onset	duration	titr	surround	centre	response	rt
11.671875	0.00833333333333333	1	30	15	2	1.919921875
15.912109375	0.00833333333333333	1	NaN	-15	1	0.7353515625
18.921875	0.00833333333333333	1	30	14	2	0.6376953125
21.9208984375	0.00833333333333333	1	-30	15	2	0.5185546875
24.546875	0.00833333333333333	1	30	13	2	0.7724609375
27.8701171875	0.00833333333333333	1	30	12	2	0.673828125
30.9453125	0.00833333333333333	1	30	11	2	0.87890625
34.0615234375	0.00833333333333333	1	NaN	-14	1	0.5947265625
37.1875	0.00833333333333333	1	-30	14	2	0.716796875
40.203125	0.00833333333333333	1	30	-15	1	0.7099609375
43.220703125	0.00833333333333333	1	30	10	2	0.947265625
46.529296875	0.00833333333333333	1	30	-14	1	0.7275390625
49.419921875	0.00833333333333333	1	NaN	15	2	0.8603515625
52.8525390625	0.00833333333333333	1	30	-13	1	0.724609375
55.970703125	0.00833333333333333	1	-30	-15	1	0.8935546875
59.2373046875	0.00833333333333333	1	30	9	2	0.8037109375
62.5625	0.00833333333333333	1	30	8	2	0.8388671875
65.728515625	0.00833333333333333	1	-30	-14	1	0.8408203125
69.0703125	0.00833333333333333	1	30	-12	1	0.9951171875
72.12890625	0.00833333333333333	1	-30	13	2	0.6962890625
75.2451171875	0.00833333333333333	1	30	7	2	0.587890625
78.0703125	0.00833333333333333	1	-30	12	2	0.5791015625
80.861328125	0.00833333333333333	1	NaN	14	2	0.6044921875
83.9287109375	0.00833333333333333	1	-30	-13	1	0.544921875
86.6201171875	0.00833333333333333	1	NaN	-13	1	1.3173828125
90.4033203125	0.00833333333333333	1	NaN	13	2	0.7666015625
93.453125	0.00833333333333333	1	NaN	-12	1	0.8056640625
96.7353515625	0.00833333333333333	1	NaN	12	2	0.6103515625
99.88671875	0.00833333333333333	1	30	-11	1	0.6357421875
103.0615234375	0.00833333333333333	1	-30	-12	1	0.5244140625
105.8359375	0.00833333333333333	1	30	-10	1	0.7021484375
108.6767578125	0.00833333333333333	1	-30	-11	1	0.62109375
111.5693359375	0.00833333333333333	1	30	6	1	0.79296875
114.7685546875	0.00833333333333333	1	-30	-10	1	0.6259765625
117.8681640625	0.00833333333333333	1	30	7	2	0.7587890625
120.7783203125	0.00833333333333333	1	NaN	11	2	1.296875
124.427734375	0.00833333333333333	1	-30	-9	1	0.9189453125
127.744140625	0.00833333333333333	1	-30	-8	1	0.70703125
130.9775390625	0.00833333333333333	1	30	6	2	0.77734375
134.26953125	0.00833333333333333	1	30	-9	1	0.6220703125
137.185546875	0.00833333333333333	1	-30	11	2	0.7294921875
140.4599609375	0.00833333333333333	1	30	-8	1	0.5673828125
143.27734375	0.00833333333333333	1	NaN	-11	1	0.90234375
146.5439453125	0.00833333333333333	1	NaN	-10	1	1.01953125
149.869140625	0.00833333333333333	1	30	-7	1	0.55078125
152.560546875	0.00833333333333333	1	30	-6	1	0.763671875
155.4853515625	0.00833333333333333	1	30	5	2	1.0068359375
158.9521484375	0.00833333333333333	1	NaN	-9	1	0.6201171875
162.1015625	0.00833333333333333	1	NaN	-8	1	0.462890625
164.7939453125	0.00833333333333333	1	30	-5	1	0.6748046875
168.04296875	0.00833333333333333	1	NaN	10	2	0.537109375
171.109375	0.00833333333333333	1	-30	10	2	0.51171875
174.15234375	0.00833333333333333	1	30	-4	1	0.5478515625
177.1689453125	0.00833333333333333	1	NaN	-7	1	0.7314453125
180.3603515625	0.00833333333333333	1	-30	-7	1	0.580078125
183.2265625	0.00833333333333333	1	-30	-6	1	0.73828125
186.4013671875	0.00833333333333333	1	NaN	9	2	0.8515625
189.3759765625	0.00833333333333333	1	NaN	8	2	0.7724609375
192.5185546875	0.00833333333333333	1	30	4	1	0.662109375
195.4765625	0.00833333333333333	1	NaN	-6	1	0.705078125
198.5673828125	0.00833333333333333	1	-30	9	2	0.90234375
201.9267578125	0.00833333333333333	1	-30	-5	1	0.791015625
205.134765625	0.00833333333333333	1	NaN	7	2	0.71875
208.3095703125	0.00833333333333333	1	-30	-4	1	1.2802734375
211.642578125	0.00833333333333333	1	-30	8	2	0.619140625
214.8095703125	0.00833333333333333	1	-30	7	2	0.6923828125
217.79296875	0.00833333333333333	1	-30	-3	2	0.64453125
220.7431640625	0.00833333333333333	1	NaN	6	2	1.18359375
224.076171875	0.00833333333333333	1	NaN	-5	1	0.8583984375
227.5263671875	0.00833333333333333	1	30	-3	1	0.599609375
230.6591796875	0.00833333333333333	1	-30	-4	1	0.7626953125
233.6005859375	0.00833333333333333	1	30	5	1	0.8134765625
236.8095703125	0.00833333333333333	1	NaN	5	2	0.61328125
239.599609375	0.00833333333333333	1	-30	6	2	0.447265625
242.591796875	0.00833333333333333	1	-30	-3	1	0.6787109375
245.349609375	0.00833333333333333	1	30	-2	1	0.4892578125
248.208984375	0.00833333333333333	1	-30	-2	1	0.7578125
251.2509765625	0.00833333333333333	1	30	-1	1	0.556640625
254.2080078125	0.00833333333333333	1	30	6	2	0.8388671875
257.3076171875	0.00833333333333333	1	30	0	1	0.7158203125
260.1171875	0.00833333333333333	1	-30	-1	2	0.578125
262.93359375	0.00833333333333333	1	30	5	2	0.75390625
266.142578125	0.00833333333333333	1	-30	-2	2	0.5849609375
268.875	0.00833333333333333	1	30	1	2	0.732421875
271.9169921875	0.00833333333333333	1	30	0	1	0.634765625
275.091796875	0.00833333333333333	1	-30	-3	1	0.740234375
278.2001953125	0.00833333333333333	1	NaN	4	2	0.7919921875
281.44140625	0.00833333333333333	1	NaN	-4	1	0.55078125
284.1171875	0.00833333333333333	1	NaN	3	2	1.291015625
287.8837890625	0.00833333333333333	1	30	4	1	0.6923828125
291.05859375	0.00833333333333333	1	-30	5	2	0.58984375
293.7666015625	0.00833333333333333	1	NaN	-3	1	0.521484375
296.6748046875	0.00833333333333333	1	-30	-2	2	0.5732421875
299.4580078125	0.00833333333333333	1	-30	-3	2	0.623046875
302.2001953125	0.00833333333333333	1	30	5	2	0.6005859375
304.8916015625	0.00833333333333333	1	30	1	1	0.5654296875
307.541015625	0.00833333333333333	1	-30	-4	2	0.7001953125
310.3330078125	0.00833333333333333	1	30	4	2	0.6357421875
325.3583984375	0.00833333333333333	1	-30	4	2	0.474609375
328.1650390625	0.00833333333333333	1	-30	3	2	0.4609375
331.1748046875	0.00833333333333333	1	30	2	1	0.6103515625
334.1162109375	0.00833333333333333	1	-30	-5	1	0.541015625
336.8994140625	0.00833333333333333	1	30	3	1	0.57421875
339.890625	0.00833333333333333	1	NaN	2	2	0.767578125
342.8564453125	0.00833333333333333	1	NaN	1	2	0.44921875
345.8408203125	0.00833333333333333	1	-30	-4	2	0.6572265625
348.7998046875	0.00833333333333333	1	30	4	2	0.6337890625
351.8984375	0.00833333333333333	1	NaN	0	2	0.7841796875
354.765625	0.00833333333333333	1	-30	-5	2	0.5087890625
357.6904296875	0.00833333333333333	1	NaN	-1	1	0.736328125
360.666015625	0.00833333333333333	1	30	3	1	0.552734375
363.6826171875	0.00833333333333333	1	30	3	1	0.576171875
366.8232421875	0.00833333333333333	1	NaN	0	1	0.5234375
369.5322265625	0.00833333333333333	1	NaN	1	2	0.8544921875
372.8408203125	0.00833333333333333	1	30	4	2	0.8740234375
376.115234375	0.00833333333333333	1	-30	2	2	0.4560546875
378.673828125	0.00833333333333333	1	30	3	2	0.537109375
381.740234375	0.00833333333333333	1	-30	-6	2	0.5185546875
384.798828125	0.00833333333333333	1	NaN	-2	1	1.2119140625
388.3818359375	0.00833333333333333	1	30	2	1	0.6611328125
391.5654296875	0.00833333333333333	1	30	4	2	1.3583984375
395.380859375	0.00833333333333333	1	30	3	1	0.6787109375
398.265625	0.00833333333333333	1	-30	1	2	1.001953125
401.5986328125	0.00833333333333333	1	NaN	0	1	0.669921875
404.53125	0.00833333333333333	1	-30	0	2	0.7685546875
407.681640625	0.00833333333333333	1	NaN	-1	1	1.2666015625
411.4560546875	0.00833333333333333	1	30	3	1	0.9404296875
414.78125	0.00833333333333333	1	NaN	1	1	1.2392578125
418.4736328125	0.00833333333333333	1	-30	-1	2	0.8984375
421.6220703125	0.00833333333333333	1	NaN	2	2	0.7265625
424.6064453125	0.00833333333333333	1	30	4	2	0.90234375
427.615234375	0.00833333333333333	1	NaN	0	2	0.7490234375
430.7978515625	0.00833333333333333	1	30	3	1	1.0791015625
434.0146484375	0.00833333333333333	1	NaN	1	2	0.734375
437.2060546875	0.00833333333333333	1	30	4	1	0.6953125
440.3642578125	0.00833333333333333	1	NaN	-1	1	1.216796875
443.7734375	0.00833333333333333	1	30	4	2	0.927734375
447.2978515625	0.00833333333333333	1	-30	-7	1	0.619140625
450.056640625	0.00833333333333333	1	30	3	2	0.7802734375
453.2314453125	0.00833333333333333	1	NaN	0	2	1.0859375
456.8134765625	0.00833333333333333	1	NaN	0	1	0.599609375
459.7392578125	0.00833333333333333	1	-30	-2	2	0.8740234375
462.9560546875	0.00833333333333333	1	NaN	-1	1	0.8095703125
465.9130859375	0.00833333333333333	1	-30	-6	1	0.65234375
468.9228515625	0.00833333333333333	1	NaN	0	1	0.5546875
472.072265625	0.00833333333333333	1	-30	-5	1	0.6142578125
475.046875	0.00833333333333333	1	NaN	1	2	1.2080078125
478.564453125	0.00833333333333333	1	30	2	2	0.7216796875
481.796875	0.00833333333333333	1	NaN	1	1	0.7294921875
485.0390625	0.00833333333333333	1	30	1	1	0.53515625
487.763671875	0.00833333333333333	1	NaN	2	2	0.7548828125
490.72265625	0.00833333333333333	1	NaN	0	2	0.7314453125
493.796875	0.00833333333333333	1	30	5	2	0.513671875
496.654296875	0.00833333333333333	1	NaN	-1	1	0.640625
499.4638671875	0.00833333333333333	1	NaN	0	1	0.630859375
502.2138671875	0.00833333333333333	1	-30	-3	2	0.7451171875
505.5224609375	0.00833333333333333	1	-30	-4	2	0.5732421875
508.4140625	0.00833333333333333	1	NaN	1	2	0.513671875
511.080078125	0.00833333333333333	1	NaN	0	2	0.52734375
513.9052734375	0.00833333333333333	1	NaN	-1	2	0.57421875
516.9306640625	0.00833333333333333	1	-30	-4	2	0.5966796875
520.0712890625	0.00833333333333333	1	NaN	-2	1	1.15234375
523.8212890625	0.00833333333333333	1	NaN	1	2	0.498046875
526.7470703125	0.00833333333333333	1	-30	-5	2	0.62109375
529.646484375	0.00833333333333333	1	NaN	0	2	0.6494140625
532.638671875	0.00833333333333333	1	NaN	-1	1	0.78515625
536.0546875	0.00833333333333333	1	-30	-5	1	0.6728515625
538.99609375	0.00833333333333333	1	NaN	0	1	1.2998046875
542.796875	0.00833333333333333	1	NaN	1	2	0.611328125
545.3798828125	0.00833333333333333	1	-30	-6	1	1.1005859375
548.6044921875	0.00833333333333333	1	NaN	0	1	0.66796875
551.8212890625	0.00833333333333333	1	NaN	-1	1	0.546875
554.6044921875	0.00833333333333333	1	-30	-5	1	0.6201171875
557.5048828125	0.00833333333333333	1	NaN	1	1	0.6640625
560.587890625	0.00833333333333333	1	NaN	0	1	0.60546875
563.7705078125	0.00833333333333333	1	NaN	1	1	0.662109375
566.5791015625	0.00833333333333333	1	-30	-4	2	0.7734375
569.904296875	0.00833333333333333	1	-30	-5	2	0.5927734375
572.6044921875	0.00833333333333333	1	NaN	2	2	0.732421875
575.896484375	0.00833333333333333	1	NaN	2	2	0.537109375
578.6533203125	0.00833333333333333	1	NaN	1	2	0.67578125
581.87890625	0.00833333333333333	1	NaN	0	1	0.7705078125
584.970703125	0.00833333333333333	1	-30	-6	2	0.615234375
587.8037109375	0.00833333333333333	1	NaN	1	2	0.814453125
590.8212890625	0.00833333333333333	1	-30	-7	1	0.8603515625
594.24609375	0.00833333333333333	1	-30	-6	1	0.828125
597.5537109375	0.00833333333333333	1	-30	-5	2	0.9599609375
600.9794921875	0.00833333333333333	1	NaN	0	1	0.6787109375
604.0205078125	0.00833333333333333	1	-30	-6	1	0.61328125
606.9453125	0.00833333333333333	1	-30	-5	1	0.537109375
609.6376953125	0.00833333333333333	1	-30	-4	1	0.5087890625
612.3037109375	0.00833333333333333	1	-30	-3	1	0.6591796875
615.2958984375	0.00833333333333333	1	-30	-2	1	0.7548828125
618.2119140625	0.00833333333333333	1	-30	-1	2	0.6865234375
621.1875	0.00833333333333333	1	-30	-2	2	0.462890625
624.037109375	0.00833333333333333	1	-30	-3	2	0.677734375
660.9951171875	0.00833333333333333	1	-30	-4	2	0.6806640625
663.8115234375	0.00833333333333333	1	-30	-5	2	0.5849609375
666.7119140625	0.00833333333333333	1	-30	-6	1	0.5322265625
669.427734375	0.00833333333333333	1	-30	-5	1	0.537109375
672.3515625	0.00833333333333333	1	-30	-4	1	0.5244140625
674.986328125	0.00833333333333333	1	-30	-3	1	0.8017578125
678.0615234375	0.00833333333333333	1	-30	-2	1	0.5830078125
680.9111328125	0.00833333333333333	1	-30	-1	2	0.5732421875
683.578125	0.00833333333333333	1	-30	-2	2	0.5146484375
686.4697265625	0.00833333333333333	1	-30	-3	2	0.51953125
689.1279296875	0.00833333333333333	1	-30	-4	1	0.5087890625
692.0947265625	0.00833333333333333	1	-30	-3	1	0.5341796875
695.01953125	0.00833333333333333	1	-30	-2	1	0.505859375
698.0361328125	0.00833333333333333	1	-30	-1	2	0.5771484375
701.078125	0.00833333333333333	1	-30	-3.33333333333333	1	0.5830078125
704.16796875	0.00833333333333333	1	-30	-4.33333333333333	2	0.5654296875
706.828125	0.00833333333333333	1	30	4	2	0.6416015625
709.6279296875	0.00833333333333333	1	30	3	1	0.8017578125
712.845703125	0.00833333333333333	1	30	3.875	1	0.7119140625
715.9111328125	0.00833333333333333	1	NaN	-0.166666666666667	1	0.7744140625
719.0263671875	0.00833333333333333	1	NaN	0.833333333333333	1	0.5078125
721.8271484375	0.00833333333333333	1	-30	-4.45833333333333	1	0.4111328125
724.6689453125	0.00833333333333333	1	NaN	0.958333333333333	1	0.4013671875
727.3603515625	0.00833333333333333	1	30	4	1	0.7177734375
730.2431640625	0.00833333333333333	1	-30	-4.33333333333333	2	0.611328125
733.3935546875	0.00833333333333333	1	NaN	-0.0416666666666667	1	0.796875
736.3857421875	0.00833333333333333	1	30	4.125	1	0.7724609375
739.626953125	0.00833333333333333	1	NaN	1.08333333333333	1	0.4921875
742.6767578125	0.00833333333333333	1	30	4.25	1	0.498046875
745.494140625	0.00833333333333333	1	NaN	0.0833333333333333	1	0.5205078125
748.193359375	0.00833333333333333	1	-30	-3.20833333333333	1	0.5576171875
750.9853515625	0.00833333333333333	1	30	3.125	1	0.62109375
753.9931640625	0.00833333333333333	1	NaN	0.208333333333333	1	1.318359375
757.5595703125	0.00833333333333333	1	-30	-4.45833333333333	1	0.5595703125
760.3271484375	0.00833333333333333	1	-30	-3.08333333333333	1	0.5205078125
762.9345703125	0.00833333333333333	1	NaN	0.333333333333333	1	0.5126953125
765.7099609375	0.00833333333333333	1	NaN	1.20833333333333	1	0.3857421875
768.2265625	0.00833333333333333	1	30	4.375	1	0.5576171875
771.0595703125	0.00833333333333333	1	30	3.25	1	0.5478515625
774.2099609375	0.00833333333333333	1	NaN	1.33333333333333	1	0.5498046875
776.9931640625	0.00833333333333333	1	30	4.5	1	0.5751953125
780.03515625	0.00833333333333333	1	NaN	1.45833333333333	1	0.564453125
783.068359375	0.00833333333333333	1	30	4.625	1	0.5166015625
785.7431640625	0.00833333333333333	1	NaN	1.58333333333333	1	0.4248046875
788.6259765625	0.00833333333333333	1	-30	-4.33333333333333	1	0.3427734375
791.509765625	0.00833333333333333	1	-30	-4.20833333333333	1	0.474609375
794.0751953125	0.00833333333333333	1	30	3.375	1	0.541015625
797.04296875	0.00833333333333333	1	30	3.5	1	0.5654296875
799.841796875	0.00833333333333333	1	30	3.625	1	0.56640625
802.7841796875	0.00833333333333333	1	30	4.75	1	0.80859375
805.9677734375	0.00833333333333333	1	30	3.75	1	1.10546875
809.142578125	0.00833333333333333	1	30	4.875	1	0.7626953125
812.44140625	0.00833333333333333	1	30	5	1	0.8798828125
815.6337890625	0.00833333333333333	1	-30	-4.08333333333333	1	0.775390625
818.7255859375	0.00833333333333333	1	-30	-2.95833333333333	1	0.5478515625
821.79296875	0.00833333333333333	1	NaN	0.458333333333333	1	0.671875
824.7255859375	0.00833333333333333	1	-30	-3.95833333333333	1	0.5634765625
827.5419921875	0.00833333333333333	1	NaN	0.583333333333333	1	0.587890625
830.30078125	0.00833333333333333	1	30	3.875	1	0.6533203125
833.4423828125	0.00833333333333333	1	30	5.125	1	0.6318359375
836.6005859375	0.00833333333333333	1	30	5.25	1	0.4814453125
839.2919921875	0.00833333333333333	1	30	5.375	1	0.58984375
842.1337890625	0.00833333333333333	1	NaN	0.708333333333333	1	0.3876953125
844.68359375	0.00833333333333333	1	NaN	1.70833333333333	1	0.56640625
847.333984375	0.00833333333333333	1	30	5.5	2	0.9638671875
850.716796875	0.00833333333333333	1	NaN	1.83333333333333	1	0.8056640625
853.6005859375	0.00833333333333333	1	30	4	1	0.6181640625
856.333984375	0.00833333333333333	1	-30	-2.83333333333333	2	0.7724609375
859.2919921875	0.00833333333333333	1	NaN	1.95833333333333	2	0.6787109375
862.4755859375	0.00833333333333333	1	30	4.125	2	0.7666015625
865.4248046875	0.00833333333333333	1	-30	-2.95833333333333	2	0.498046875
868.2919921875	0.00833333333333333	1	-30	-3.83333333333333	2	0.6953125
871.099609375	0.00833333333333333	1	30	5.375	2	0.630859375
873.8330078125	0.00833333333333333	1	NaN	0.833333333333333	2	0.4501953125
876.4580078125	0.00833333333333333	1	-30	-3.95833333333333	2	0.625
879.275390625	0.00833333333333333	1	30	4	2	0.3916015625
882.216796875	0.00833333333333333	1	-30	-3.08333333333333	2	0.4501953125
884.783203125	0.00833333333333333	1	-30	-4.08333333333333	2	0.4765625
887.533203125	0.00833333333333333	1	30	5.25	2	0.4541015625
890.05859375	0.00833333333333333	1	-30	-3.20833333333333	2	0.4091796875
892.841796875	0.00833333333333333	1	30	3.875	2	0.43359375
895.6494140625	0.00833333333333333	1	30	3.75	2	0.490234375
898.2001953125	0.00833333333333333	1	NaN	1.83333333333333	2	0.35546875
900.69140625	0.00833333333333333	1	30	3.625	2	0.4404296875
903.4326171875	0.00833333333333333	1	30	5.125	2	0.443359375
906.125	0.00833333333333333	1	30	3.5	2	0.4794921875
909.1416015625	0.00833333333333333	1	-30	-4.20833333333333	2	0.57421875
912.0908203125	0.00833333333333333	1	30	5	2	0.537109375
914.9326171875	0.00833333333333333	1	NaN	1.70833333333333	2	0.583984375
917.9912109375	0.00833333333333333	1	-30	-3.33333333333333	1	1.189453125
921.5322265625	0.00833333333333333	1	NaN	0.708333333333333	1	0.5439453125
924.1748046875	0.00833333333333333	1	30	4.875	1	0.6455078125
927.0244140625	0.00833333333333333	1	NaN	0.833333333333333	1	0.65234375
929.8076171875	0.00833333333333333	1	NaN	1.58333333333333	1	0.4853515625
932.8564453125	0.00833333333333333	1	NaN	1.70833333333333	1	0.580078125
935.7744140625	0.00833333333333333	1	-30	-4.33333333333333	1	0.5341796875
938.548828125	0.00833333333333333	1	NaN	0.958333333333333	1	0.392578125
941.1328125	0.00833333333333333	1	-30	-3.20833333333333	1	0.47265625
944.07421875	0.00833333333333333	1	-30	-4.20833333333333	1	0.5947265625
946.982421875	0.00833333333333333	1	NaN	1.83333333333333	1	0.55859375
949.765625	0.00833333333333333	1	30	5	1	0.3994140625
952.673828125	0.00833333333333333	1	NaN	1.08333333333333	1	0.396484375
955.615234375	0.00833333333333333	1	NaN	1.95833333333333	1	0.375
958.240234375	0.00833333333333333	1	-30	-4.08333333333333	1	0.58984375
961.2900390625	0.00833333333333333	1	NaN	1.20833333333333	1	0.66015625
984.9404296875	0.00833333333333333	1	-30	-3.95833333333333	2	0.5791015625
987.6982421875	0.00833333333333333	1	NaN	2.08333333333333	2	0.4375
990.6064453125	0.00833333333333333	1	NaN	1.95833333333333	2	0.361328125
993.3564453125	0.00833333333333333	1	-30	-4.08333333333333	2	0.36328125
995.90625	0.00833333333333333	1	NaN	1.83333333333333	2	0.5419921875
998.689453125	0.00833333333333333	1	30	3.375	1	0.638671875
1001.73046875	0.00833333333333333	1	NaN	1.33333333333333	2	0.4697265625
1004.5810546875	0.00833333333333333	1	-30	-4.20833333333333	2	0.427734375
1007.5146484375	0.00833333333333333	1	30	5.125	2	0.4697265625
1010.2236328125	0.00833333333333333	1	NaN	1.20833333333333	2	0.4169921875
1012.880859375	0.00833333333333333	1	30	5	1	0.6953125
1015.7646484375	0.00833333333333333	1	-30	-4.33333333333333	2	0.6201171875
1018.6552734375	0.00833333333333333	1	NaN	1.70833333333333	2	0.44921875
1021.2392578125	0.00833333333333333	1	30	5.125	2	0.4013671875
1023.97265625	0.00833333333333333	1	-30	-3.08333333333333	2	0.396484375
1026.9228515625	0.00833333333333333	1	-30	-4.45833333333333	2	0.421875
1029.4892578125	0.00833333333333333	1	-30	-3.20833333333333	2	0.400390625
1032.4296875	0.00833333333333333	1	-30	-4.58333333333333	2	0.3564453125
1034.947265625	0.00833333333333333	1	NaN	1.58333333333333	2	0.501953125
1037.9140625	0.00833333333333333	1	NaN	1.08333333333333	2	0.34375
1040.697265625	0.00833333333333333	1	30	3.5	2	0.3837890625
1043.2724609375	0.00833333333333333	1	-30	-4.70833333333333	2	0.513671875
1045.9140625	0.00833333333333333	1	-30	-3.33333333333333	2	0.439453125
1048.4794921875	0.00833333333333333	1	NaN	0.958333333333333	1	0.6103515625
1051.6728515625	0.00833333333333333	1	NaN	1.45833333333333	2	0.5771484375
1054.4638671875	0.00833333333333333	1	30	5	2	0.41796875
1057.421875	0.00833333333333333	1	NaN	1.33333333333333	2	0.5478515625
1060.130859375	0.00833333333333333	1	30	3.375	2	0.3994140625
1062.7890625	0.00833333333333333	1	-30	-4.83333333333333	2	0.4853515625
1065.3974609375	0.00833333333333333	1	30	4.875	2	0.4931640625
1068.1220703125	0.00833333333333333	1	NaN	1.20833333333333	2	0.392578125
1071.080078125	0.00833333333333333	1	30	3.25	2	0.41015625
1073.7294921875	0.00833333333333333	1	NaN	1.08333333333333	1	0.552734375
1076.4970703125	0.00833333333333333	1	30	3.125	1	0.41015625
1079.396484375	0.00833333333333333	1	30	3.25	1	0.501953125
1082.4306640625	0.00833333333333333	1	NaN	1.20833333333333	1	0.4765625
1085.3388671875	0.00833333333333333	1	NaN	1.08333333333333	1	0.5595703125
1088.072265625	0.00833333333333333	1	-30	-4.95833333333333	1	0.5947265625
1091.11328125	0.00833333333333333	1	-30	-3.45833333333333	2	0.5625
1093.86328125	0.00833333333333333	1	-30	-3.58333333333333	2	0.7724609375
1096.9130859375	0.00833333333333333	1	NaN	1.20833333333333	1	0.4580078125
1099.455078125	0.00833333333333333	1	30	3.375	1	0.4521484375
1102.421875	0.00833333333333333	1	NaN	1.33333333333333	1	0.302734375
1105.0380859375	0.00833333333333333	1	NaN	1.33333333333333	1	0.365234375
1107.712890625	0.00833333333333333	1	NaN	1.45833333333333	1	0.458984375
1110.5966796875	0.00833333333333333	1	-30	-3.70833333333333	1	0.607421875
1113.3876953125	0.00833333333333333	1	30	3.5	1	0.47265625
1116.146484375	0.00833333333333333	1	NaN	1.45833333333333	1	0.4892578125
1118.837890625	0.00833333333333333	1	-30	-3.58333333333333	1	0.6220703125
1121.99609375	0.00833333333333333	1	NaN	1.58333333333333	1	0.34375
1124.61328125	0.00833333333333333	1	-30	-4.83333333333333	1	0.375
1127.2119140625	0.00833333333333333	1	30	4.75	1	0.3203125
1130.029296875	0.00833333333333333	1	-30	-3.45833333333333	2	0.54296875
1132.8125	0.00833333333333333	1	NaN	1.58333333333333	2	0.5517578125
1135.970703125	0.00833333333333333	1	-30	-3.58333333333333	2	0.4658203125
1138.7294921875	0.00833333333333333	1	-30	-3.70833333333333	2	0.435546875
1141.470703125	0.00833333333333333	1	30	4.875	2	0.5341796875
1144.4296875	0.00833333333333333	1	-30	-4.70833333333333	2	0.447265625
1147.0537109375	0.00833333333333333	1	NaN	1.45833333333333	2	0.599609375
1149.8544921875	0.00833333333333333	1	30	3.625	1	0.5986328125
1152.962890625	0.00833333333333333	1	NaN	1.70833333333333	2	0.59375
1155.6875	0.00833333333333333	1	30	4.75	1	0.7099609375
1158.8876953125	0.00833333333333333	1	30	3.75	1	0.486328125
1161.912109375	0.00833333333333333	1	30	4.875	1	0.4775390625
1164.478515625	0.00833333333333333	1	30	3.875	1	0.630859375
1167.419921875	0.00833333333333333	1	-30	-4.83333333333333	1	0.59375
1170.1875	0.00833333333333333	1	-30	-4.70833333333333	1	0.345703125
1172.912109375	0.00833333333333333	1	-30	-4.58333333333333	1	0.365234375
1175.6787109375	0.00833333333333333	1	-30	-3.83333333333333	2	0.53515625
1178.76171875	0.00833333333333333	1	30	4	2	0.5
1181.3955078125	0.00833333333333333	1	NaN	1.58333333333333	2	0.451171875
1184.2958984375	0.00833333333333333	1	-30	-3.95833333333333	2	0.470703125
1186.970703125	0.00833333333333333	1	NaN	1.33333333333333	2	0.5634765625
1190.0703125	0.00833333333333333	1	30	5	1	0.50390625
1192.8369140625	0.00833333333333333	1	-30	-4.08333333333333	1	0.505859375
1195.6357421875	0.00833333333333333	1	NaN	1.20833333333333	1	0.3466796875
1198.419921875	0.00833333333333333	1	-30	-3.95833333333333	2	0.794921875
1201.544921875	0.00833333333333333	1	NaN	1.33333333333333	1	0.59765625
1204.4287109375	0.00833333333333333	1	NaN	1.45833333333333	2	0.4501953125
1207.01171875	0.00833333333333333	1	-30	-4.08333333333333	1	0.5556640625
1210.01953125	0.00833333333333333	1	30	3.875	1	0.3076171875
1212.8369140625	0.00833333333333333	1	-30	-3.95833333333333	1	0.498046875
1215.662109375	0.00833333333333333	1	NaN	1.45833333333333	1	0.43359375
1218.4443359375	0.00833333333333333	1	NaN	1.58333333333333	1	0.3154296875
1221.310546875	0.00833333333333333	1	NaN	1.70833333333333	1	0.3603515625
1223.794921875	0.00833333333333333	1	NaN	1.83333333333333	1	0.4443359375
1226.603515625	0.00833333333333333	1	30	4	1	0.388671875
1229.0947265625	0.00833333333333333	1	-30	-4.45833333333333	1	0.45703125
1232.03515625	0.00833333333333333	1	NaN	1.33333333333333	1	0.3564453125
1234.927734375	0.00833333333333333	1	NaN	1.95833333333333	2	0.6396484375
1237.9443359375	0.00833333333333333	1	-30	-4.33333333333333	1	0.5595703125
1240.861328125	0.00833333333333333	1	30	4.125	1	0.5068359375
1243.677734375	0.00833333333333333	1	NaN	1.83333333333333	2	0.666015625
1246.486328125	0.00833333333333333	1	NaN	1.45833333333333	2	0.5458984375
1249.259765625	0.00833333333333333	1	NaN	1.33333333333333	2	0.380859375
1251.794921875	0.00833333333333333	1	30	5.125	2	0.4775390625
1254.4189453125	0.00833333333333333	1	NaN	1.70833333333333	2	0.4453125
1257.40234375	0.00833333333333333	1	-30	-3.83333333333333	2	0.58203125
1260.193359375	0.00833333333333333	1	NaN	1.58333333333333	2	0.3916015625
1262.8779296875	0.00833333333333333	1	30	5	2	0.4912109375
1265.552734375	0.00833333333333333	1	-30	-3.95833333333333	2	0.50390625
1268.3779296875	0.00833333333333333	1	30	4.875	2	0.5908203125
1271.1181640625	0.00833333333333333	1	-30	-4.20833333333333	2	0.4267578125
1273.9853515625	0.00833333333333333	1	-30	-4.33333333333333	2	0.3193359375
1276.7431640625	0.00833333333333333	1	NaN	1.20833333333333	2	0.337890625
1279.2021484375	0.00833333333333333	1	30	4.75	2	0.5830078125
1281.9853515625	0.00833333333333333	1	NaN	1.45833333333333	2	0.6640625
1311.84375	0.00833333333333333	1	NaN	1.08333333333333	2	0.974609375
1315.3271484375	0.00833333333333333	1	30	4.625	2	0.7236328125
1318.251953125	0.00833333333333333	1	-30	-4.45833333333333	2	0.4462890625
1321.251953125	0.00833333333333333	1	30	4.25	2	0.4384765625
1323.9345703125	0.00833333333333333	1	NaN	0.958333333333333	2	0.4921875
1326.8603515625	0.00833333333333333	1	30	4.125	2	0.5107421875
1329.8681640625	0.00833333333333333	1	NaN	0.833333333333333	2	0.3583984375
1332.4267578125	0.00833333333333333	1	30	4.5	2	0.5283203125
1335.384765625	0.00833333333333333	1	30	4.375	2	0.5546875
1338.5009765625	0.00833333333333333	1	30	4	2	0.3740234375
1341.1845703125	0.00833333333333333	1	30	3.875	2	0.4990234375
1344.0517578125	0.00833333333333333	1	-30	-4.08333333333333	2	0.4150390625
1346.9599609375	0.00833333333333333	1	-30	-4.58333333333333	2	0.5478515625
1349.734375	0.00833333333333333	1	NaN	1.33333333333333	2	0.62109375
1352.8427734375	0.00833333333333333	1	-30	-4.70833333333333	2	0.45703125
1355.6669921875	0.00833333333333333	1	30	4.25	2	0.296875
1358.3095703125	0.00833333333333333	1	-30	-4.20833333333333	2	0.390625
1361.142578125	0.00833333333333333	1	30	4.125	2	0.3173828125
1363.6181640625	0.00833333333333333	1	-30	-4.33333333333333	2	0.490234375
1366.5009765625	0.00833333333333333	1	-30	-4.83333333333333	2	0.359375
1369.017578125	0.00833333333333333	1	-30	-4.95833333333333	2	0.37890625
1371.9921875	0.00833333333333333	1	NaN	0.708333333333333	2	0.33984375
1374.6259765625	0.00833333333333333	1	NaN	1.20833333333333	2	0.38671875
1377.142578125	0.00833333333333333	1	NaN	1.08333333333333	2	0.341796875
1379.716796875	0.00833333333333333	1	-30	-4.45833333333333	2	0.279296875
1382.2255859375	0.00833333333333333	1	30	3.75	2	0.306640625
1384.6845703125	0.00833333333333333	1	NaN	0.958333333333333	2	0.3603515625
1387.359375	0.00833333333333333	1	NaN	0.583333333333333	2	0.3896484375
1390.3095703125	0.00833333333333333	1	30	4	2	0.2392578125
1392.7177734375	0.00833333333333333	1	30	3.875	2	0.4794921875
1395.6005859375	0.00833333333333333	1	NaN	0.458333333333333	2	0.3564453125
1398.4091796875	0.00833333333333333	1	30	3.625	1	0.4921875
1401.3505859375	0.00833333333333333	1	30	3.75	1	0.5029296875
1404.142578125	0.00833333333333333	1	-30	-4.58333333333333	1	0.623046875
1407.0751953125	0.00833333333333333	1	30	3.75	1	0.6025390625
1410.17578125	0.00833333333333333	1	30	3.875	1	0.4453125
1412.8330078125	0.00833333333333333	1	-30	-4.45833333333333	1	0.5166015625
1415.55078125	0.00833333333333333	1	30	4	1	0.4384765625
1418.30859375	0.00833333333333333	1	NaN	0.833333333333333	1	0.46484375
1420.875	0.00833333333333333	1	NaN	0.333333333333333	1	0.6748046875
1424.05078125	0.00833333333333333	1	30	3.875	1	0.5869140625
1426.9921875	0.00833333333333333	1	-30	-5.08333333333333	1	0.509765625
1429.6572265625	0.00833333333333333	1	-30	-4.95833333333333	1	0.724609375
1432.900390625	0.00833333333333333	1	30	4.125	2	0.5615234375
1435.765625	0.00833333333333333	1	NaN	0.458333333333333	1	0.6162109375
1438.6337890625	0.00833333333333333	1	-30	-4.33333333333333	1	0.3720703125
1441.2333984375	0.00833333333333333	1	30	4	1	0.357421875
1443.791015625	0.00833333333333333	1	30	4.125	1	0.3671875
1446.3662109375	0.00833333333333333	1	30	4.25	1	0.3203125
1449.1494140625	0.00833333333333333	1	-30	-4.83333333333333	1	0.361328125
1451.68359375	0.00833333333333333	1	NaN	0.958333333333333	1	0.3466796875
1454.1416015625	0.00833333333333333	1	-30	-4.70833333333333	1	0.6416015625
1456.8662109375	0.00833333333333333	1	30	4	1	0.29296875
1459.5498046875	0.00833333333333333	1	NaN	0.583333333333333	1	0.28125
1462.08203125	0.00833333333333333	1	NaN	0.708333333333333	1	0.373046875
1464.783203125	0.00833333333333333	1	30	4.375	1	0.5205078125
1467.7734375	0.00833333333333333	1	NaN	0.833333333333333	1	0.3935546875
1470.3408203125	0.00833333333333333	1	NaN	1.08333333333333	1	0.40234375
1473.232421875	0.00833333333333333	1	-30	-4.20833333333333	2	0.71875
1476.283203125	0.00833333333333333	1	30	4.125	2	0.4208984375
1479.19921875	0.00833333333333333	1	30	4.5	2	0.5126953125
1482.0908203125	0.00833333333333333	1	NaN	1.20833333333333	2	0.453125
1484.724609375	0.00833333333333333	1	30	4	2	0.546875
1487.5908203125	0.00833333333333333	1	-30	-4.58333333333333	2	1.0419921875
1491.0244140625	0.00833333333333333	1	NaN	0.958333333333333	1	0.49609375
1494.0068359375	0.00833333333333333	1	30	4.375	1	0.6015625
1496.7412109375	0.00833333333333333	1	30	3.875	1	0.4677734375
1499.7568359375	0.00833333333333333	1	NaN	1.08333333333333	1	0.4033203125
1502.640625	0.00833333333333333	1	-30	-4.70833333333333	1	0.5673828125
1505.7822265625	0.00833333333333333	1	NaN	1.20833333333333	1	0.4423828125
1508.6826171875	0.00833333333333333	1	-30	-4.33333333333333	1	0.349609375
1511.248046875	0.00833333333333333	1	-30	-4.20833333333333	1	0.3525390625
1514.1904296875	0.00833333333333333	1	30	4.5	1	0.474609375
1517.166015625	0.00833333333333333	1	NaN	1.08333333333333	1	0.306640625
1519.70703125	0.00833333333333333	1	NaN	1.33333333333333	1	0.318359375
1522.5732421875	0.00833333333333333	1	-30	-4.08333333333333	1	0.3076171875
1525.3486328125	0.00833333333333333	1	-30	-4.58333333333333	1	0.4599609375
1528.3984375	0.00833333333333333	1	-30	-4.45833333333333	1	0.4033203125
1530.9072265625	0.00833333333333333	1	-30	-3.95833333333333	1	0.349609375
1533.3740234375	0.00833333333333333	1	30	4.625	1	0.2998046875
1536.1650390625	0.00833333333333333	1	-30	-3.83333333333333	1	0.46875
1538.9404296875	0.00833333333333333	1	-30	-4.33333333333333	2	0.693359375
1541.939453125	0.00833333333333333	1	30	4.75	2	0.58203125
1544.748046875	0.00833333333333333	1	NaN	1.20833333333333	2	0.5498046875
1547.4404296875	0.00833333333333333	1	-30	-4.45833333333333	2	0.369140625
1550.1640625	0.00833333333333333	1	NaN	1.08333333333333	1	0.349609375
1552.58984375	0.00833333333333333	1	NaN	1.20833333333333	1	0.2841796875
1555.4482421875	0.00833333333333333	1	-30	-3.70833333333333	1	0.8740234375
1558.6396484375	0.00833333333333333	1	-30	-4.58333333333333	1	0.5625
1561.6728515625	0.00833333333333333	1	NaN	1.33333333333333	1	0.4169921875
1564.40625	0.00833333333333333	1	30	4.625	1	0.4677734375
1567.1396484375	0.00833333333333333	1	NaN	1.45833333333333	1	0.615234375
1569.939453125	0.00833333333333333	1	NaN	1.58333333333333	1	0.3193359375
1572.71484375	0.00833333333333333	1	NaN	1.70833333333333	1	0.3837890625
1575.6064453125	0.00833333333333333	1	NaN	1.83333333333333	1	0.412109375
1578.33984375	0.00833333333333333	1	-30	-3.58333333333333	1	0.4228515625
1581.306640625	0.00833333333333333	1	-30	-3.45833333333333	1	0.3681640625
1583.8310546875	0.00833333333333333	1	NaN	1.45833333333333	1	0.4677734375
1586.5390625	0.00833333333333333	1	NaN	1.58333333333333	1	0.3525390625
1589.11328125	0.00833333333333333	1	NaN	1.70833333333333	1	0.3701171875
1592.0146484375	0.00833333333333333	1	NaN	1.95833333333333	2	0.64453125
1594.830078125	0.00833333333333333	1	-30	-3.33333333333333	2	0.716796875
1597.6220703125	0.00833333333333333	1	30	4.75	2	0.4375
1600.5390625	0.00833333333333333	1	NaN	1.83333333333333	2	0.400390625
1603.373046875	0.00833333333333333	1	NaN	1.70833333333333	2	0.470703125
1606.2470703125	0.00833333333333333	1	NaN	1.83333333333333	2	0.4853515625
1609.671875	0.00833333333333333	1	-30	-3.45833333333333	2	0.595703125
1632.6875	0.00833333333333333	1	-30	-3.58333333333333	2	0.6376953125
1635.6552734375	0.00833333333333333	1	NaN	1.58333333333333	2	0.4208984375
1638.1552734375	0.00833333333333333	1	NaN	1.70833333333333	2	0.4892578125
1640.9052734375	0.00833333333333333	1	NaN	1.45833333333333	2	0.427734375
1643.4306640625	0.00833333333333333	1	30	4.625	2	0.4306640625
1646.2890625	0.00833333333333333	1	30	4.5	2	0.419921875
1648.8974609375	0.00833333333333333	1	30	4.375	2	0.5634765625
1651.638671875	0.00833333333333333	1	NaN	1.58333333333333	2	0.3427734375
1654.197265625	0.00833333333333333	1	-30	-3.70833333333333	2	0.3603515625
1656.822265625	0.00833333333333333	1	NaN	1.33333333333333	2	0.439453125
1659.763671875	0.00833333333333333	1	NaN	1.45833333333333	2	0.3056640625
1662.5048828125	0.00833333333333333	1	30	4.25	2	0.3486328125
1664.9716796875	0.00833333333333333	1	-30	-3.83333333333333	2	0.3544921875
1667.580078125	0.00833333333333333	1	30	4.125	2	0.505859375
1670.455078125	0.00833333333333333	1	NaN	1.33333333333333	2	0.53515625
1673.5048828125	0.00833333333333333	1	-30	-3.95833333333333	2	0.380859375
1676.263671875	0.00833333333333333	1	NaN	1.20833333333333	2	0.333984375
1678.7294921875	0.00833333333333333	1	-30	-4.08333333333333	2	0.3486328125
1681.4453125	0.00833333333333333	1	30	4	1	0.529296875
1684.4462890625	0.00833333333333333	1	NaN	1.20833333333333	1	0.4560546875
1687.1630859375	0.00833333333333333	1	30	4.125	1	0.4189453125
1690.021484375	0.00833333333333333	1	30	4.25	1	0.44921875
1693.0458984375	0.00833333333333333	1	NaN	1.33333333333333	1	0.5205078125
1695.73828125	0.00833333333333333	1	NaN	1.08333333333333	1	0.373046875
1698.4541015625	0.00833333333333333	1	-30	-4.20833333333333	1	0.3447265625
1700.8291015625	0.00833333333333333	1	30	4.375	1	0.4736328125
1703.396484375	0.00833333333333333	1	NaN	1.20833333333333	1	0.40234375
1705.853515625	0.00833333333333333	1	30	4.5	1	0.4658203125
1708.8046875	0.00833333333333333	1	-30	-4.08333333333333	1	0.3779296875
1711.720703125	0.00833333333333333	1	NaN	1.33333333333333	1	0.3662109375
1714.3544921875	0.00833333333333333	1	30	4.625	1	0.3564453125
1717.029296875	0.00833333333333333	1	-30	-3.95833333333333	1	0.3857421875
1719.962890625	0.00833333333333333	1	-30	-3.83333333333333	1	0.541015625
1722.8203125	0.00833333333333333	1	-30	-3.70833333333333	1	0.37109375
1725.3544921875	0.00833333333333333	1	-30	-3.58333333333333	2	0.61328125
1728.212890625	0.00833333333333333	1	30	4.75	2	0.53125
1730.9697265625	0.00833333333333333	1	NaN	1.45833333333333	2	0.5498046875
1734.0537109375	0.00833333333333333	1	NaN	1.33333333333333	2	0.4501953125
1736.8037109375	0.00833333333333333	1	NaN	1.45833333333333	2	0.3798828125
1739.662109375	0.00833333333333333	1	NaN	1.33333333333333	2	0.3701171875
1742.5703125	0.00833333333333333	1	NaN	1.20833333333333	2	0.4296875
1745.5537109375	0.00833333333333333	1	NaN	1.20833333333333	2	0.40625
1748.4443359375	0.00833333333333333	1	NaN	1.08333333333333	2	0.7158203125
1751.5029296875	0.00833333333333333	1	NaN	0.958333333333333	1	0.529296875
1754.5625	0.00833333333333333	1	NaN	1.08333333333333	1	0.3740234375
1757.3037109375	0.00833333333333333	1	NaN	1.20833333333333	1	0.4013671875
1759.8203125	0.00833333333333333	1	NaN	1.08333333333333	1	0.3486328125
1762.412109375	0.00833333333333333	1	NaN	1.20833333333333	1	0.3408203125
1764.8701171875	0.00833333333333333	1	NaN	1.33333333333333	1	0.3388671875
1767.5205078125	0.00833333333333333	1	NaN	1.33333333333333	1	0.48046875
1770.1787109375	0.00833333333333333	1	NaN	1.45833333333333	1	0.3583984375
1772.662109375	0.00833333333333333	1	NaN	1.45833333333333	1	0.4189453125
1775.5107421875	0.00833333333333333	1	NaN	1.58333333333333	2	0.38671875
1778.228515625	0.00833333333333333	1	NaN	1.58333333333333	1	0.9091796875
1781.1953125	0.00833333333333333	1	NaN	1.70833333333333	1	0.4140625
1784.14453125	0.00833333333333333	1	NaN	1.83333333333333	1	0.3525390625
1786.9453125	0.00833333333333333	1	NaN	1.95833333333333	1	0.4638671875
1789.5703125	0.00833333333333333	1	NaN	2.08333333333333	1	0.447265625
1792.3525390625	0.00833333333333333	1	NaN	2.20833333333333	1	0.3056640625
1794.8115234375	0.00833333333333333	1	NaN	2.33333333333333	1	0.333984375
1797.2451171875	0.00833333333333333	1	NaN	2.45833333333333	1	0.31640625
1799.7783203125	0.00833333333333333	1	NaN	2.58333333333333	1	0.328125
1802.39453125	0.00833333333333333	1	NaN	2.70833333333333	1	0.4716796875
1805.361328125	0.00833333333333333	1	NaN	2.83333333333333	2	0.4970703125
1808.40234375	0.00833333333333333	0	-30	-4.30833333333333	1	0.7041015625
1811.5283203125	0.00833333333333333	0	30	4.4	1	0.513671875
1814.228515625	0.00833333333333333	0	-30	-4.30833333333333	2	0.662109375
1817.3359375	0.00833333333333333	0	-30	-4.30833333333333	2	0.4111328125
1820.037109375	0.00833333333333333	0	30	4.4	1	0.701171875
1822.9609375	0.00833333333333333	0	-30	-4.30833333333333	2	0.666015625
1826.177734375	0.00833333333333333	0	30	4.4	1	0.673828125
1829.0361328125	0.00833333333333333	0	-30	-4.30833333333333	1	0.54296875
1832.052734375	0.00833333333333333	0	-30	-4.30833333333333	1	0.333984375
1834.869140625	0.00833333333333333	0	-30	-4.30833333333333	1	0.3984375
1837.40234375	0.00833333333333333	0	30	4.4	1	0.369140625
1839.8359375	0.00833333333333333	0	30	4.4	1	0.52734375
1842.451171875	0.00833333333333333	0	30	4.525	1	2.384765625
1847.427734375	0.00833333333333333	0	30	4.525	1	0.9599609375
1850.71875	0.00833333333333333	0	-30	-4.30833333333333	1	0.6123046875
1853.5771484375	0.00833333333333333	0	30	4.525	1	0.4990234375
1856.6103515625	0.00833333333333333	0	-30	-4.30833333333333	1	0.2978515625
1859.126953125	0.00833333333333333	0	30	4.525	1	0.4931640625
1861.693359375	0.00833333333333333	0	-30	-4.18333333333333	1	0.3505859375
1864.5439453125	0.00833333333333333	0	30	4.525	1	0.33203125
1866.9599609375	0.00833333333333333	0	-30	-4.18333333333333	1	0.4921875
1869.994140625	0.00833333333333333	0	-30	-4.18333333333333	1	0.41015625
1872.66015625	0.00833333333333333	0	-30	-4.18333333333333	1	0.5205078125
1875.4345703125	0.00833333333333333	0	-30	-4.18333333333333	1	0.3701171875
1877.8759765625	0.00833333333333333	0	-30	-4.05833333333333	1	0.4248046875
1880.5439453125	0.00833333333333333	0	-30	-4.05833333333333	1	0.412109375
1883.3017578125	0.00833333333333333	0	30	4.65	1	0.375
1886.0517578125	0.00833333333333333	0	-30	-4.05833333333333	2	0.5693359375
1889.03515625	0.00833333333333333	0	30	4.65	1	0.681640625
1891.9853515625	0.00833333333333333	0	-30	-4.05833333333333	1	0.3876953125
1894.7099609375	0.00833333333333333	0	30	4.65	1	0.4306640625
1897.5673828125	0.00833333333333333	0	30	4.65	1	0.501953125
1900.41796875	0.00833333333333333	0	-30	-4.05833333333333	1	0.4267578125
1903.4013671875	0.00833333333333333	0	-30	-4.05833333333333	1	0.3876953125
1906.3427734375	0.00833333333333333	0	30	4.65	1	0.294921875
1908.8349609375	0.00833333333333333	0	-30	-4.05833333333333	1	0.4345703125
1911.3095703125	0.00833333333333333	0	30	4.775	1	0.3681640625
1914.1767578125	0.00833333333333333	0	30	4.775	1	0.380859375
1916.7431640625	0.00833333333333333	0	30	4.775	1	0.486328125
1919.693359375	0.00833333333333333	0	-30	-4.05833333333333	1	0.4326171875
1922.2763671875	0.00833333333333333	0	30	4.775	1	0.353515625
1924.7509765625	0.00833333333333333	0	30	4.775	1	0.455078125
1927.3173828125	0.00833333333333333	0	30	4.9	1	0.47265625
1930.208984375	0.00833333333333333	0	-30	-3.93333333333333	1	0.517578125
1932.7919921875	0.00833333333333333	0	-30	-3.93333333333333	2	0.7109375
1935.958984375	0.00833333333333333	0	30	4.9	1	0.630859375
1938.900390625	0.00833333333333333	0	30	4.9	1	0.3857421875
1941.42578125	0.00833333333333333	0	30	4.9	1	0.453125
1944.17578125	0.00833333333333333	0	-30	-3.93333333333333	1	0.3193359375
1946.7587890625	0.00833333333333333	0	-30	-3.93333333333333	1	0.416015625
1949.54296875	0.00833333333333333	0	-30	-3.93333333333333	1	0.3359375
1952.1591796875	0.00833333333333333	0	30	4.9	1	0.3759765625
1954.7001953125	0.00833333333333333	0	-30	-3.93333333333333	1	0.619140625
1957.5341796875	0.00833333333333333	0	-30	-3.93333333333333	2	0.5927734375
1960.5419921875	0.00833333333333333	0	30	5.025	2	0.45703125
1963.3759765625	0.00833333333333333	0	-30	-3.93333333333333	2	0.4951171875
1966.43359375	0.00833333333333333	0	30	5.025	1	0.4140625
1969.2509765625	0.00833333333333333	0	-30	-3.93333333333333	1	0.5888671875
1972.1171875	0.00833333333333333	0	-30	-3.93333333333333	1	0.38671875
1975.1083984375	0.00833333333333333	0	-30	-3.93333333333333	1	0.466796875
1977.9501953125	0.00833333333333333	0	-30	-3.93333333333333	1	0.44140625
1980.5419921875	0.00833333333333333	0	-30	-3.93333333333333	1	0.41015625
1983.3671875	0.00833333333333333	0	30	5.025	1	0.376953125
1985.8583984375	0.00833333333333333	0	30	5.025	1	0.349609375
1988.3671875	0.00833333333333333	0	30	5.025	1	0.376953125
1991.1005859375	0.00833333333333333	0	-30	-3.80833333333333	1	0.3232421875
1993.783203125	0.00833333333333333	0	30	5.025	1	0.376953125
1996.466796875	0.00833333333333333	0	-30	-3.80833333333333	2	0.765625
1999.625	0.00833333333333333	0	-30	-3.80833333333333	2	0.791015625
2003.0087890625	0.00833333333333333	0	-30	-3.80833333333333	2	0.8564453125
2006.1669921875	0.00833333333333333	0	-30	-3.80833333333333	2	0.43359375
2009.033203125	0.00833333333333333	0	30	5.15	1	0.86328125
2012.474609375	0.00833333333333333	0	30	5.15	1	0.6064453125
2015.275390625	0.00833333333333333	0	30	5.15	2	0.669921875
2018.31640625	0.00833333333333333	0	30	5.15	2	0.580078125
2021.349609375	0.00833333333333333	0	-30	-3.80833333333333	2	0.5712890625
2024.515625	0.00833333333333333	0	-30	-3.93333333333333	1	0.6611328125
2027.3994140625	0.00833333333333333	0	30	5.15	1	0.4658203125
2030.3330078125	0.00833333333333333	0	30	5.15	1	0.4443359375
2032.94921875	0.00833333333333333	0	30	5.15	1	0.453125
2077.2744140625	0.00833333333333333	0	-30	-3.93333333333333	2	0.8564453125
2080.2568359375	0.00833333333333333	0	-30	-3.93333333333333	2	0.5146484375
2083.1240234375	0.00833333333333333	0	30	5.15	2	0.9189453125
2086.130859375	0.00833333333333333	0	30	5.15	2	0.4482421875
2088.7900390625	0.00833333333333333	0	-30	-3.93333333333333	2	0.4609375
2091.640625	0.00833333333333333	0	-30	-3.93333333333333	2	0.490234375
2094.4150390625	0.00833333333333333	0	-30	-3.93333333333333	2	0.4921875
2097.357421875	0.00833333333333333	0	30	5.15	2	0.4697265625
2100.3486328125	0.00833333333333333	0	30	5.15	2	0.478515625
2103.123046875	0.00833333333333333	0	30	5.15	2	0.47265625
2106.0654296875	0.00833333333333333	0	-30	-4.05833333333333	2	0.474609375
2108.6484375	0.00833333333333333	0	30	5.025	2	0.5791015625
2111.740234375	0.00833333333333333	0	30	5.025	2	0.4560546875
2114.46484375	0.00833333333333333	0	30	5.025	2	0.35546875
2117.115234375	0.00833333333333333	0	30	5.025	2	0.2890625
2119.8564453125	0.00833333333333333	0	-30	-4.05833333333333	2	0.3876953125
2122.498046875	0.00833333333333333	0	30	5.025	2	0.3779296875
2125.1982421875	0.00833333333333333	0	-30	-4.05833333333333	2	0.4384765625
2127.7734375	0.00833333333333333	0	-30	-4.05833333333333	2	0.294921875
2130.21484375	0.00833333333333333	0	30	4.9	2	0.333984375
2132.7900390625	0.00833333333333333	0	-30	-4.05833333333333	1	0.55078125
2135.4560546875	0.00833333333333333	0	30	4.9	1	0.396484375
2137.9814453125	0.00833333333333333	0	30	4.9	1	0.439453125
2140.7900390625	0.00833333333333333	0	30	4.9	1	0.5263671875
2143.53125	0.00833333333333333	0	30	4.9	1	0.4814453125
2146.0478515625	0.00833333333333333	0	30	4.9	1	0.365234375
2148.65625	0.00833333333333333	0	30	5.025	1	0.373046875
2151.2392578125	0.00833333333333333	0	30	5.025	1	0.326171875
2154.056640625	0.00833333333333333	0	30	5.025	1	0.517578125
2157.072265625	0.00833333333333333	0	30	5.025	1	0.4052734375
2159.814453125	0.00833333333333333	0	-30	-4.05833333333333	1	0.4228515625
2162.7138671875	0.00833333333333333	0	-30	-4.05833333333333	1	0.443359375
2165.7060546875	0.00833333333333333	0	30	5.025	1	0.3876953125
2168.189453125	0.00833333333333333	0	30	5.15	1	2.2158203125
2172.7060546875	0.00833333333333333	0	-30	-4.05833333333333	1	0.5078125
2175.4716796875	0.00833333333333333	0	30	5.15	1	0.4384765625
2178.1474609375	0.00833333333333333	0	30	5.15	1	0.458984375
2180.6640625	0.00833333333333333	0	-30	-4.05833333333333	1	0.7421875
2183.763671875	0.00833333333333333	0	-30	-3.93333333333333	1	0.474609375
2186.4306640625	0.00833333333333333	0	30	5.15	1	0.3193359375
2188.8974609375	0.00833333333333333	0	-30	-3.93333333333333	1	0.388671875
2191.5546875	0.00833333333333333	0	-30	-3.93333333333333	1	0.404296875
2194.1640625	0.00833333333333333	0	-30	-3.93333333333333	1	0.4267578125
2197.0634765625	0.00833333333333333	0	30	5.15	1	0.3115234375
2199.7724609375	0.00833333333333333	0	30	5.275	1	0.38671875
2202.48828125	0.00833333333333333	0	30	5.275	1	0.3193359375
2205.3544921875	0.00833333333333333	0	30	5.275	1	0.3642578125
2208.1806640625	0.00833333333333333	0	30	5.275	1	0.322265625
2210.947265625	0.00833333333333333	0	30	5.275	1	0.33203125
2213.7138671875	0.00833333333333333	0	-30	-3.93333333333333	1	0.4853515625
2216.5048828125	0.00833333333333333	0	-30	-3.80833333333333	1	0.56640625
2219.638671875	0.00833333333333333	0	30	5.4	1	0.5205078125
2222.263671875	0.00833333333333333	0	-30	-3.80833333333333	1	0.583984375
2225.3212890625	0.00833333333333333	0	-30	-3.80833333333333	1	1.1904296875
2228.955078125	0.00833333333333333	0	30	5.4	1	0.4287109375
2231.7470703125	0.00833333333333333	0	-30	-3.80833333333333	1	0.6767578125
2234.6552734375	0.00833333333333333	0	-30	-3.80833333333333	1	0.736328125
2237.8798828125	0.00833333333333333	0	-30	-3.68333333333333	1	0.8720703125
2241.12109375	0.00833333333333333	0	-30	-3.68333333333333	2	0.7587890625
2244.1552734375	0.00833333333333333	0	30	5.4	2	0.5810546875
2246.8212890625	0.00833333333333333	0	-30	-3.68333333333333	1	1.291015625
2250.5302734375	0.00833333333333333	0	30	5.4	1	0.4541015625
2253.296875	0.00833333333333333	0	30	5.4	1	0.53515625
2255.98828125	0.00833333333333333	0	30	5.4	1	0.4443359375
2258.7548828125	0.00833333333333333	0	30	5.4	2	0.59765625
2261.3876953125	0.00833333333333333	0	30	5.4	2	0.533203125
2264.0546875	0.00833333333333333	0	30	5.4	2	0.474609375
2267.0966796875	0.00833333333333333	0	-30	-3.68333333333333	2	0.423828125
2269.6298828125	0.00833333333333333	0	-30	-3.68333333333333	1	0.7470703125
2272.521484375	0.00833333333333333	0	30	5.4	1	0.6953125
2275.396484375	0.00833333333333333	0	30	5.4	1	0.541015625
2278.2294921875	0.00833333333333333	0	30	5.4	1	0.36328125
2281.0625	0.00833333333333333	0	30	5.4	1	0.474609375
2283.87109375	0.00833333333333333	0	30	5.4	1	0.474609375
2286.845703125	0.00833333333333333	0	30	5.525	1	0.412109375
2289.5947265625	0.00833333333333333	0	-30	-3.68333333333333	1	0.5751953125
2292.4208984375	0.00833333333333333	0	30	5.525	2	0.701171875
2295.2451171875	0.00833333333333333	0	30	5.525	1	0.9326171875
2298.4287109375	0.00833333333333333	0	-30	-3.68333333333333	1	0.4130859375
2301.38671875	0.00833333333333333	0	-30	-3.68333333333333	1	0.271484375
2314.26171875	0.00833333333333333	0	30	5.525	2	0.9248046875
2317.63671875	0.00833333333333333	0	-30	-3.68333333333333	1	0.509765625
2320.64453125	0.00833333333333333	0	-30	-3.55833333333333	1	0.4775390625
2323.3857421875	0.00833333333333333	0	30	5.525	1	0.5048828125
2326.294921875	0.00833333333333333	0	-30	-3.55833333333333	1	0.5244140625
2328.9033203125	0.00833333333333333	0	30	5.525	1	0.4599609375
2331.486328125	0.00833333333333333	0	30	5.525	1	0.62109375
2334.25390625	0.00833333333333333	0	-30	-3.55833333333333	1	0.4609375
2337.25390625	0.00833333333333333	0	30	5.525	1	0.4931640625
2339.9619140625	0.00833333333333333	0	-30	-3.55833333333333	2	1.4658203125
2344.0615234375	0.00833333333333333	0	-30	-3.55833333333333	1	0.046875
2346.3203125	0.00833333333333333	0	-30	-3.55833333333333	1	0.451171875
2348.9033203125	0.00833333333333333	0	-30	-3.55833333333333	1	0.419921875
2351.861328125	0.00833333333333333	0	-30	-3.55833333333333	1	0.326171875
2354.6279296875	0.00833333333333333	0	30	5.525	1	0.576171875
2357.4619140625	0.00833333333333333	0	-30	-3.55833333333333	1	0.4697265625
2360.14453125	0.00833333333333333	0	-30	-3.43333333333333	1	0.6513671875
2362.88671875	0.00833333333333333	0	30	5.65	2	0.9736328125
2366.46875	0.00833333333333333	0	30	5.65	1	0.6474609375
2369.2109375	0.00833333333333333	0	30	5.65	1	0.8017578125
2372.2197265625	0.00833333333333333	0	-30	-3.43333333333333	1	0.6328125
2375.13671875	0.00833333333333333	0	-30	-3.43333333333333	1	0.34765625
2377.6357421875	0.00833333333333333	0	-30	-3.43333333333333	1	0.2646484375
2380.294921875	0.00833333333333333	0	30	5.65	1	0.3740234375
2383.0107421875	0.00833333333333333	0	30	5.65	1	0.658203125
2385.7275390625	0.00833333333333333	0	-30	-3.43333333333333	1	0.6455078125
2388.8857421875	0.00833333333333333	0	30	5.65	1	0.009765625
2391.0439453125	0.00833333333333333	0	30	5.775	2	0.6171875
2394.01953125	0.00833333333333333	0	30	5.775	2	0.4814453125
2396.6279296875	0.00833333333333333	0	30	5.775	2	0.96875
2399.76953125	0.00833333333333333	0	-30	-3.30833333333333	2	0.4833984375
2402.4609375	0.00833333333333333	0	30	5.775	2	0.4638671875
2405.3271484375	0.00833333333333333	0	30	5.775	2	0.58203125
2408.46875	0.00833333333333333	0	30	5.65	2	0.5927734375
2411.5107421875	0.00833333333333333	0	30	5.65	2	0.55859375
2414.626953125	0.00833333333333333	0	30	5.65	2	0.5869140625
2417.7939453125	0.00833333333333333	0	-30	-3.30833333333333	2	0.5
2420.734375	0.00833333333333333	0	-30	-3.30833333333333	2	0.4716796875
2423.4521484375	0.00833333333333333	0	-30	-3.30833333333333	1	0.6416015625
2426.34375	0.00833333333333333	0	-30	-3.30833333333333	1	0.3740234375
2429.0927734375	0.00833333333333333	0	30	5.65	1	0.43359375
2431.7939453125	0.00833333333333333	0	-30	-3.30833333333333	1	0.4765625
2434.560546875	0.00833333333333333	0	-30	-3.30833333333333	1	0.4384765625
2437.5185546875	0.00833333333333333	0	30	5.65	1	0.431640625
2440.3681640625	0.00833333333333333	0	30	5.65	1	0.4228515625
2442.90234375	0.00833333333333333	0	-30	-3.30833333333333	1	0.3681640625
2445.376953125	0.00833333333333333	0	30	5.65	1	0.4853515625
2448.0771484375	0.00833333333333333	0	30	5.65	1	0.3134765625
2450.4853515625	0.00833333333333333	0	-30	-3.18333333333333	1	0.45703125
2453.3603515625	0.00833333333333333	0	-30	-3.18333333333333	1	0.4306640625
2456.0263671875	0.00833333333333333	0	-30	-3.18333333333333	1	0.3564453125
2458.5517578125	0.00833333333333333	0	30	5.775	1	0.4794921875
2461.5263671875	0.00833333333333333	0	-30	-3.18333333333333	1	0.3212890625
2463.9853515625	0.00833333333333333	0	30	5.775	1	0.4296875
2466.5517578125	0.00833333333333333	0	30	5.775	1	0.4873046875
2469.1015625	0.00833333333333333	0	-30	-3.18333333333333	1	0.43359375
2471.7265625	0.00833333333333333	0	30	5.775	2	0.544921875
2474.7685546875	0.00833333333333333	0	-30	-3.05833333333333	2	0.5986328125
2477.884765625	0.00833333333333333	0	30	5.775	1	0.6826171875
2480.8017578125	0.00833333333333333	0	30	5.775	1	0.486328125
2483.7431640625	0.00833333333333333	0	30	5.775	1	0.4970703125
2486.6513671875	0.00833333333333333	0	30	5.775	1	0.5400390625
2489.5927734375	0.00833333333333333	0	-30	-3.05833333333333	1	0.4794921875
2492.16796875	0.00833333333333333	0	-30	-3.05833333333333	1	0.423828125
2495.0927734375	0.00833333333333333	0	30	5.775	1	0.443359375
2497.650390625	0.00833333333333333	0	-30	-3.05833333333333	1	0.3740234375
2500.2763671875	0.00833333333333333	0	30	5.9	1	0.427734375
2502.7431640625	0.00833333333333333	0	30	5.9	1	0.4013671875
2505.4921875	0.00833333333333333	0	30	5.9	1	0.3720703125
2508.234375	0.00833333333333333	0	30	5.9	2	0.91015625
2511.7255859375	0.00833333333333333	0	-30	-3.05833333333333	1	0.6669921875
2514.650390625	0.00833333333333333	0	30	5.9	1	0.4306640625
2517.142578125	0.00833333333333333	0	30	5.9	1	0.474609375
2519.734375	0.00833333333333333	0	30	5.9	1	0.39453125
2522.55859375	0.00833333333333333	0	-30	-3.05833333333333	2	0.8740234375
2525.9501953125	0.00833333333333333	0	30	5.9	1	0.5625
2528.93359375	0.00833333333333333	0	-30	-3.05833333333333	1	0.603515625
2531.650390625	0.00833333333333333	0	30	5.9	1	0.4794921875
2534.3251953125	0.00833333333333333	0	-30	-3.05833333333333	1	0.412109375
2537.1171875	0.00833333333333333	0	-30	-3.05833333333333	1	0.4521484375
2567.7578125	0.00833333333333333	0	-30	-3.05833333333333	2	0.94921875
2570.93359375	0.00833333333333333	0	-30	-3.05833333333333	2	0.62890625
2573.8251953125	0.00833333333333333	0	-30	-3.05833333333333	2	0.529296875
2576.4580078125	0.00833333333333333	0	-30	-3.05833333333333	2	0.4892578125
2579.06640625	0.00833333333333333	0	30	6.025	2	0.5771484375
2581.9404296875	0.00833333333333333	0	-30	-3.05833333333333	1	0.5908203125
2584.732421875	0.00833333333333333	0	-30	-3.05833333333333	1	0.798828125
2587.791015625	0.00833333333333333	0	30	6.025	1	0.412109375
2590.599609375	0.00833333333333333	0	30	6.025	1	0.4677734375
2593.1162109375	0.00833333333333333	0	30	6.025	1	0.375
2595.94140625	0.00833333333333333	0	30	6.025	1	0.6455078125
2598.7666015625	0.00833333333333333	0	-30	-3.05833333333333	1	0.4853515625
2601.5166015625	0.00833333333333333	0	-30	-3.05833333333333	2	0.6953125
2604.666015625	0.00833333333333333	0	30	6.025	2	0.5380859375
2607.46484375	0.00833333333333333	0	30	6.025	2	0.7470703125
2610.3994140625	0.00833333333333333	0	30	6.025	1	0.5400390625
2613.2314453125	0.00833333333333333	0	-30	-3.05833333333333	1	0.533203125
2615.908203125	0.00833333333333333	0	30	6.025	1	0.5205078125
2618.6494140625	0.00833333333333333	0	30	6.025	1	0.8583984375
2621.599609375	0.00833333333333333	0	30	6.025	1	0.388671875
2624.5244140625	0.00833333333333333	0	30	6.025	1	0.5283203125
2627.57421875	0.00833333333333333	0	-30	-3.05833333333333	1	0.4619140625
2630.1572265625	0.00833333333333333	0	30	6.15	1	0.5751953125
2633.3154296875	0.00833333333333333	0	30	6.15	1	0.42578125
2635.9912109375	0.00833333333333333	0	-30	-3.05833333333333	1	0.4296875
2638.4990234375	0.00833333333333333	0	-30	-3.05833333333333	1	0.4345703125
2641.45703125	0.00833333333333333	0	-30	-3.05833333333333	1	0.4677734375
2644.1826171875	0.00833333333333333	0	-30	-2.93333333333333	1	0.4384765625
2647.041015625	0.00833333333333333	0	30	6.15	2	1.0517578125
2650.5068359375	0.00833333333333333	0	30	6.15	1	0.6103515625
2653.1572265625	0.00833333333333333	0	-30	-2.93333333333333	1	0.591796875
2656.0576171875	0.00833333333333333	0	-30	-2.93333333333333	1	0.7001953125
2659.2578125	0.00833333333333333	0	-30	-2.93333333333333	1	0.7158203125
2662.1904296875	0.00833333333333333	0	-30	-2.93333333333333	1	0.5673828125
2665.07421875	0.00833333333333333	0	-30	-2.80833333333333	1	0.84375
2668.1240234375	0.00833333333333333	0	30	6.15	2	0.6337890625
2671.09765625	0.00833333333333333	0	30	6.15	2	0.572265625
2673.96484375	0.00833333333333333	0	30	6.15	2	0.609375
2676.9140625	0.00833333333333333	0	30	6.15	2	0.5244140625
2679.95703125	0.00833333333333333	0	-30	-2.80833333333333	2	0.45703125
2682.623046875	0.00833333333333333	0	-30	-2.80833333333333	2	0.4150390625
2685.1650390625	0.00833333333333333	0	-30	-2.80833333333333	2	0.578125
2688.2822265625	0.00833333333333333	0	30	6.15	2	0.580078125
2691.03125	0.00833333333333333	0	-30	-2.80833333333333	2	0.51953125
2693.9560546875	0.00833333333333333	0	30	6.025	2	0.2744140625
2696.58203125	0.00833333333333333	0	30	6.025	2	0.3369140625
2699.365234375	0.00833333333333333	0	-30	-2.80833333333333	2	0.4091796875
2701.806640625	0.00833333333333333	0	30	6.025	2	0.4638671875
2704.556640625	0.00833333333333333	0	30	6.025	2	0.826171875
2707.9560546875	0.00833333333333333	0	-30	-2.93333333333333	2	0.4111328125
2710.4814453125	0.00833333333333333	0	30	6.025	2	0.9345703125
2713.84765625	0.00833333333333333	0	30	5.9	2	0.583984375
2716.59765625	0.00833333333333333	0	-30	-2.93333333333333	2	0.76171875
2719.6064453125	0.00833333333333333	0	30	5.9	2	0.6005859375
2722.7314453125	0.00833333333333333	0	-30	-2.93333333333333	2	0.740234375
2725.998046875	0.00833333333333333	0	30	5.9	2	0.5458984375
2728.6728515625	0.00833333333333333	0	30	5.9	2	0.4306640625
2731.4560546875	0.00833333333333333	0	-30	-2.93333333333333	1	0.8076171875
2734.58984375	0.00833333333333333	0	30	5.9	1	0.4580078125
2737.4130859375	0.00833333333333333	0	-30	-2.93333333333333	1	0.3955078125
2740.3642578125	0.00833333333333333	0	-30	-2.93333333333333	1	2.6357421875
2745.3720703125	0.00833333333333333	0	-30	-2.93333333333333	1	0.6123046875
2748.10546875	0.00833333333333333	0	-30	-2.93333333333333	1	0.3828125
2750.7392578125	0.00833333333333333	0	30	5.9	1	0.4052734375
2753.5224609375	0.00833333333333333	0	-30	-2.80833333333333	1	0.6298828125
2756.4052734375	0.00833333333333333	0	30	5.9	1	0.3955078125
2759.130859375	0.00833333333333333	0	30	5.9	1	0.26171875
2761.513671875	0.00833333333333333	0	-30	-2.80833333333333	1	0.447265625
2764.314453125	0.00833333333333333	0	30	5.9	1	0.294921875
2766.763671875	0.00833333333333333	0	30	6.025	1	0.365234375
2769.3720703125	0.00833333333333333	0	30	6.025	1	0.396484375
2772.0390625	0.00833333333333333	0	-30	-2.80833333333333	2	0.818359375
2775.2216796875	0.00833333333333333	0	-30	-2.80833333333333	2	0.7080078125
2778.4638671875	0.00833333333333333	0	30	6.025	2	0.8740234375
2781.7373046875	0.00833333333333333	0	-30	-2.80833333333333	1	0.48828125
2784.771484375	0.00833333333333333	0	30	6.025	1	0.3662109375
2787.2548828125	0.00833333333333333	0	30	6.025	1	0.4111328125
2789.896484375	0.00833333333333333	0	-30	-2.80833333333333	1	0.3291015625
2792.705078125	0.00833333333333333	0	30	6.025	1	0.6005859375
2795.546875	0.00833333333333333	0	-30	-2.80833333333333	1	0.4228515625
2858.0537109375	0.00833333333333333	0	-30	-2.80833333333333	1	1.0947265625
2861.462890625	0.00833333333333333	0	30	6.025	1	0.525390625
2864.162109375	0.00833333333333333	0	30	6.025	1	0.6494140625
2867.24609375	0.00833333333333333	0	30	6.15	1	0.5341796875
2870.24609375	0.00833333333333333	0	-30	-2.80833333333333	1	0.5263671875
2873.01171875	0.00833333333333333	0	-30	-2.68333333333333	1	0.6005859375
2875.728515625	0.00833333333333333	0	-30	-2.68333333333333	1	0.5634765625
2878.51171875	0.00833333333333333	0	30	6.15	1	0.396484375
2881.0693359375	0.00833333333333333	0	-30	-2.68333333333333	1	0.5830078125
2884.1943359375	0.00833333333333333	0	-30	-2.68333333333333	1	0.4501953125
2886.970703125	0.00833333333333333	0	30	6.15	1	0.3935546875
2889.669921875	0.00833333333333333	0	30	6.15	1	0.310546875
2892.0615234375	0.00833333333333333	0	-30	-2.68333333333333	1	0.3115234375
2894.6533203125	0.00833333333333333	0	-30	-2.55833333333333	1	0.34375
2897.236328125	0.00833333333333333	0	30	6.15	1	0.47265625
2900.0205078125	0.00833333333333333	0	-30	-2.55833333333333	1	0.80078125
2903.037109375	0.00833333333333333	0	30	6.275	1	0.48828125
2906.037109375	0.00833333333333333	0	-30	-2.55833333333333	1	0.392578125
2908.544921875	0.00833333333333333	0	-30	-2.55833333333333	1	0.4365234375
2911.287109375	0.00833333333333333	0	-30	-2.55833333333333	1	0.7900390625
2914.5283203125	0.00833333333333333	0	-30	-2.43333333333333	2	0.7177734375
2917.486328125	0.00833333333333333	0	30	6.275	2	0.5751953125
2920.5859375	0.00833333333333333	0	-30	-2.43333333333333	2	0.5400390625
2923.3701171875	0.00833333333333333	0	-30	-2.43333333333333	2	0.5244140625
2926.052734375	0.00833333333333333	0	30	6.275	2	0.4892578125
2929.0869140625	0.00833333333333333	0	30	6.275	2	0.3916015625
2932.0859375	0.00833333333333333	0	-30	-2.43333333333333	2	0.5205078125
2935.13671875	0.00833333333333333	0	30	6.275	2	0.4453125
2938.01953125	0.00833333333333333	0	-30	-2.43333333333333	2	0.5146484375
2940.861328125	0.00833333333333333	0	30	6.275	2	0.5126953125
2943.5517578125	0.00833333333333333	0	30	6.15	1	0.8388671875
2946.5859375	0.00833333333333333	0	30	6.15	1	0.388671875
2949.302734375	0.00833333333333333	0	30	6.15	1	0.400390625
2952.060546875	0.00833333333333333	0	30	6.15	1	0.482421875
2954.7861328125	0.00833333333333333	0	30	6.15	1	0.365234375
2957.3681640625	0.00833333333333333	0	30	6.275	1	0.3828125
2959.8447265625	0.00833333333333333	0	-30	-2.55833333333333	1	0.6826171875
2962.9521484375	0.00833333333333333	0	30	6.275	1	0.4150390625
2965.7109375	0.00833333333333333	0	30	6.275	1	0.6806640625
2968.51953125	0.00833333333333333	0	-30	-2.55833333333333	1	0.4482421875
2971.40234375	0.00833333333333333	0	-30	-2.55833333333333	1	0.509765625
2973.935546875	0.00833333333333333	0	-30	-2.55833333333333	1	0.423828125
2976.65234375	0.00833333333333333	0	30	6.275	1	0.7236328125
2979.7021484375	0.00833333333333333	0	30	6.275	1	0.4013671875
2982.302734375	0.00833333333333333	0	30	6.4	1	0.376953125
2984.9775390625	0.00833333333333333	0	-30	-2.55833333333333	1	0.54296875
2987.66015625	0.00833333333333333	0	30	6.4	1	0.404296875
2990.3681640625	0.00833333333333333	0	30	6.4	1	0.583984375
2993.2607421875	0.00833333333333333	0	-30	-2.43333333333333	1	0.4599609375
2996.251953125	0.00833333333333333	0	-30	-2.43333333333333	1	0.3720703125
2998.826171875	0.00833333333333333	0	30	6.4	1	0.3740234375
3001.3349609375	0.00833333333333333	0	-30	-2.43333333333333	1	0.625
3004.1357421875	0.00833333333333333	0	-30	-2.43333333333333	1	0.6083984375
3006.943359375	0.00833333333333333	0	30	6.4	1	0.537109375
3009.8271484375	0.00833333333333333	0	-30	-2.43333333333333	1	0.5810546875
3012.6103515625	0.00833333333333333	0	-30	-2.30833333333333	2	0.6865234375
3015.6513671875	0.00833333333333333	0	-30	-2.30833333333333	2	0.4931640625
3018.6103515625	0.00833333333333333	0	-30	-2.30833333333333	2	0.375
3021.5009765625	0.00833333333333333	0	30	6.525	2	0.5078125
3024.3603515625	0.00833333333333333	0	30	6.525	2	0.6005859375
3027.0849609375	0.00833333333333333	0	-30	-2.30833333333333	2	0.6044921875
3029.8515625	0.00833333333333333	0	-30	-2.30833333333333	2	0.4453125
3032.6669921875	0.00833333333333333	0	-30	-2.43333333333333	2	0.5029296875
3035.6767578125	0.00833333333333333	0	30	6.525	2	0.453125
3038.318359375	0.00833333333333333	0	-30	-2.43333333333333	2	0.8427734375
3041.2763671875	0.00833333333333333	0	30	6.525	2	0.7490234375
3044.3095703125	0.00833333333333333	0	-30	-2.43333333333333	1	0.9482421875
3047.7177734375	0.00833333333333333	0	-30	-2.43333333333333	2	0.4755859375
3050.734375	0.00833333333333333	0	-30	-2.43333333333333	2	0.3798828125
3053.3349609375	0.00833333333333333	0	-30	-2.43333333333333	2	0.443359375
3056.3095703125	0.00833333333333333	0	-30	-2.43333333333333	2	0.4765625
3059.2177734375	0.00833333333333333	0	-30	-2.43333333333333	1	0.7607421875
3062.2841796875	0.00833333333333333	0	30	6.525	1	0.837890625
3065.30078125	0.00833333333333333	0	-30	-2.43333333333333	1	0.4853515625
3068.091796875	0.00833333333333333	0	-30	-2.43333333333333	1	0.375
3070.634765625	0.00833333333333333	0	-30	-2.43333333333333	1	0.51171875
3073.201171875	0.00833333333333333	0	-30	-2.43333333333333	1	0.45703125
3075.984375	0.00833333333333333	0	-30	-2.30833333333333	1	0.482421875
3078.6337890625	0.00833333333333333	0	30	6.525	1	0.537109375
3081.333984375	0.00833333333333333	0	30	6.525	1	0.388671875
3110.275390625	0.00833333333333333	0	-30	-2.30833333333333	2	0.6884765625
3113.3671875	0.00833333333333333	0	-30	-2.30833333333333	2	0.388671875
3116.2587890625	0.00833333333333333	0	-30	-2.30833333333333	2	0.4736328125
3119.2001953125	0.00833333333333333	0	-30	-2.30833333333333	2	0.33203125
3121.708984375	0.00833333333333333	0	-30	-2.30833333333333	2	0.3916015625
3124.2255859375	0.00833333333333333	0	30	6.525	2	0.458984375
3127.125	0.00833333333333333	0	30	6.525	2	0.3837890625
3129.8837890625	0.00833333333333333	0	30	6.525	2	0.4169921875
3132.375	0.00833333333333333	0	-30	-2.43333333333333	2	0.3974609375
3134.9833984375	0.00833333333333333	0	30	6.525	2	0.3974609375
3137.8330078125	0.00833333333333333	0	30	6.525	2	0.33203125
3140.6083984375	0.00833333333333333	0	30	6.4	2	0.5322265625
3143.31640625	0.00833333333333333	0	-30	-2.43333333333333	2	0.4404296875
3146.0419921875	0.00833333333333333	0	30	6.4	2	0.451171875
3149.033203125	0.00833333333333333	0	-30	-2.43333333333333	2	0.3955078125
3151.8662109375	0.00833333333333333	0	-30	-2.43333333333333	2	0.5390625
3154.783203125	0.00833333333333333	0	-30	-2.43333333333333	2	0.390625
3157.6572265625	0.00833333333333333	0	-30	-2.55833333333333	2	0.4677734375
3160.5576171875	0.00833333333333333	0	-30	-2.55833333333333	2	0.5517578125
3163.3740234375	0.00833333333333333	0	-30	-2.55833333333333	2	0.607421875
3166.32421875	0.00833333333333333	0	-30	-2.55833333333333	2	0.705078125
3169.408203125	0.00833333333333333	0	30	6.4	2	0.533203125
3172.32421875	0.00833333333333333	0	-30	-2.55833333333333	1	0.865234375
3175.3330078125	0.00833333333333333	0	-30	-2.55833333333333	1	0.552734375
3177.9912109375	0.00833333333333333	0	-30	-2.55833333333333	1	0.5185546875
3180.974609375	0.00833333333333333	0	-30	-2.55833333333333	1	0.3837890625
3183.7822265625	0.00833333333333333	0	-30	-2.55833333333333	1	0.416015625
3186.4404296875	0.00833333333333333	0	-30	-2.43333333333333	1	0.6787109375
3189.357421875	0.00833333333333333	0	-30	-2.43333333333333	1	0.5458984375
3192.0908203125	0.00833333333333333	0	30	6.4	1	0.427734375
3194.94921875	0.00833333333333333	0	-30	-2.43333333333333	2	0.6015625
3197.8564453125	0.00833333333333333	0	30	6.4	1	0.822265625
3201.107421875	0.00833333333333333	0	-30	-2.43333333333333	1	0.53125
3203.9404296875	0.00833333333333333	0	-30	-2.43333333333333	1	0.5546875
3206.7578125	0.00833333333333333	0	-30	-2.43333333333333	1	0.6416015625
3209.916015625	0.00833333333333333	0	30	6.4	1	0.466796875
3212.5322265625	0.00833333333333333	0	30	6.4	1	0.5068359375
3215.1318359375	0.00833333333333333	0	-30	-2.43333333333333	1	0.5234375
3218.0732421875	0.00833333333333333	0	30	6.4	1	0.56640625
3220.9404296875	0.00833333333333333	0	30	6.525	1	0.4267578125
3223.7568359375	0.00833333333333333	0	-30	-2.43333333333333	2	0.634765625
3226.6240234375	0.00833333333333333	0	30	6.525	2	0.86328125
3229.7568359375	0.00833333333333333	0	-30	-2.43333333333333	1	0.611328125
3232.365234375	0.00833333333333333	0	-30	-2.43333333333333	1	0.802734375
3235.4150390625	0.00833333333333333	0	-30	-2.43333333333333	1	0.537109375
3238.365234375	0.00833333333333333	0	30	6.525	1	0.9228515625
3241.6484375	0.00833333333333333	0	-30	-2.43333333333333	2	0.6640625
3244.931640625	0.00833333333333333	0	-30	-2.43333333333333	2	0.5810546875
3247.7646484375	0.00833333333333333	0	-30	-2.43333333333333	2	0.595703125
3250.8486328125	0.00833333333333333	0	-30	-2.43333333333333	2	0.4560546875
3253.4892578125	0.00833333333333333	0	-30	-2.43333333333333	2	0.615234375
3256.365234375	0.00833333333333333	0	-30	-2.55833333333333	2	0.626953125
3259.3564453125	0.00833333333333333	0	-30	-2.55833333333333	2	0.5
3262.3564453125	0.00833333333333333	0	30	6.525	2	0.541015625
3265.046875	0.00833333333333333	0	-30	-2.55833333333333	2	0.4423828125
3268.0068359375	0.00833333333333333	0	-30	-2.55833333333333	2	0.666015625
3271.314453125	0.00833333333333333	0	-30	-2.55833333333333	2	0.326171875
3273.755859375	0.00833333333333333	0	30	6.525	2	0.5009765625
3276.71484375	0.00833333333333333	0	-30	-2.68333333333333	1	0.7099609375
3279.6982421875	0.00833333333333333	0	-30	-2.68333333333333	2	0.7275390625
3282.78125	0.00833333333333333	0	-30	-2.68333333333333	2	0.580078125
3285.748046875	0.00833333333333333	0	-30	-2.68333333333333	2	0.4853515625
3288.7060546875	0.00833333333333333	0	30	6.525	1	0.53515625
3291.6396484375	0.00833333333333333	0	30	6.525	2	0.9541015625
3294.86328125	0.00833333333333333	0	30	6.525	1	0.5625
3297.896484375	0.00833333333333333	0	30	6.525	1	0.513671875
3300.4970703125	0.00833333333333333	0	30	6.525	1	0.5771484375
3303.6044921875	0.00833333333333333	0	-30	-2.68333333333333	1	0.6376953125
3306.5712890625	0.00833333333333333	0	-30	-2.68333333333333	1	0.4150390625
3309.3876953125	0.00833333333333333	0	30	6.525	2	0.6865234375
3312.3798828125	0.00833333333333333	0	30	6.525	2	0.55859375
3315.37109375	0.00833333333333333	0	-30	-2.68333333333333	2	0.53515625
3318.0546875	0.00833333333333333	0	-30	-2.68333333333333	2	0.69140625
3321.22265625	0.00833333333333333	0	30	6.525	2	0.4599609375
3323.8466796875	0.00833333333333333	0	30	6.525	2	0.4677734375
3326.48828125	0.00833333333333333	0	30	6.525	2	0.6103515625
3329.296875	0.00833333333333333	0	30	6.4	1	0.5458984375
3332.171875	0.00833333333333333	0	30	6.4	1	0.4951171875
3335.0712890625	0.00833333333333333	0	-30	-2.68333333333333	2	0.916015625
3338.3046875	0.00833333333333333	0	30	6.4	2	0.8662109375
3358.2373046875	0.00833333333333333	0	30	6.4	2	0.9267578125
3361.73828125	0.00833333333333333	0	30	6.4	2	1.009765625
3365.1962890625	0.00833333333333333	0	-30	-2.68333333333333	1	0.7275390625
3368.23828125	0.00833333333333333	0	-30	-2.68333333333333	1	0.494140625
3371.12109375	0.00833333333333333	0	-30	-2.68333333333333	1	0.4833984375
3373.8134765625	0.00833333333333333	0	-30	-2.68333333333333	1	0.630859375
3376.8134765625	0.00833333333333333	0	-30	-2.68333333333333	2	0.791015625
3380.021484375	0.00833333333333333	0	-30	-2.68333333333333	2	0.53515625
3382.896484375	0.00833333333333333	0	30	6.4	2	0.6845703125
3385.6884765625	0.00833333333333333	0	30	6.4	1	0.8681640625
3388.99609375	0.00833333333333333	0	30	6.4	1	0.5205078125
3392.0126953125	0.00833333333333333	0	30	6.4	1	0.6962890625
3395.0625	0.00833333333333333	0	30	6.4	1	0.4150390625
3398.037109375	0.00833333333333333	0	30	6.4	1	0.49609375
3400.87890625	0.00833333333333333	0	30	6.525	1	0.5107421875
3403.7958984375	0.00833333333333333	0	-30	-2.68333333333333	1	0.6650390625
3406.8544921875	0.00833333333333333	0	30	6.525	1	0.5107421875
3409.6630859375	0.00833333333333333	0	-30	-2.68333333333333	1	0.40625
3412.2197265625	0.00833333333333333	0	30	6.525	1	0.43359375
3414.8125	0.00833333333333333	0	30	6.525	1	0.376953125
3417.3955078125	0.00833333333333333	0	30	6.525	1	0.6904296875
3420.537109375	0.00833333333333333	0	30	6.65	2	0.4931640625
3423.453125	0.00833333333333333	0	-30	-2.68333333333333	2	0.4248046875
3426.279296875	0.00833333333333333	0	30	6.65	2	0.6630859375
3429.3544921875	0.00833333333333333	0	-30	-2.68333333333333	2	0.6279296875
3432.3291015625	0.00833333333333333	0	-30	-2.68333333333333	1	0.6767578125
3435.279296875	0.00833333333333333	0	30	6.65	1	0.447265625
3438.0126953125	0.00833333333333333	0	30	6.65	1	0.5693359375
3440.6865234375	0.00833333333333333	0	-30	-2.68333333333333	1	0.5439453125
3443.3623046875	0.00833333333333333	0	30	6.65	1	0.5400390625
3446.4375	0.00833333333333333	0	-30	-2.68333333333333	1	0.3857421875
3449.1787109375	0.00833333333333333	0	30	6.65	1	0.5556640625
3451.9609375	0.00833333333333333	0	30	6.65	1	0.357421875
3454.603515625	0.00833333333333333	0	-30	-2.68333333333333	1	0.4111328125
3457.0703125	0.00833333333333333	0	-30	-2.68333333333333	1	0.369140625
3459.9033203125	0.00833333333333333	0	30	6.775	1	0.3681640625
3462.3701171875	0.00833333333333333	0	30	6.775	1	0.5009765625
3465.0947265625	0.00833333333333333	0	-30	-2.55833333333333	1	0.3203125
3467.6865234375	0.00833333333333333	0	-30	-2.55833333333333	1	0.6083984375
3470.8115234375	0.00833333333333333	0	30	6.775	2	0.8125
3473.7783203125	0.00833333333333333	0	-30	-2.55833333333333	2	0.7734375
3476.88671875	0.00833333333333333	0	-30	-2.55833333333333	2	0.6806640625
3479.828125	0.00833333333333333	0	30	6.775	2	0.66796875
3482.7275390625	0.00833333333333333	0	30	6.775	2	0.5283203125
3485.728515625	0.00833333333333333	0	-30	-2.55833333333333	1	0.4150390625
3488.369140625	0.00833333333333333	0	-30	-2.55833333333333	1	0.478515625
3491.044921875	0.00833333333333333	0	-30	-2.55833333333333	2	0.5634765625
3494.1611328125	0.00833333333333333	0	30	6.775	2	0.431640625
3496.9697265625	0.00833333333333333	0	30	6.775	2	0.55078125
3500.0283203125	0.00833333333333333	0	30	6.65	2	0.7158203125
3502.9697265625	0.00833333333333333	0	30	6.65	2	0.318359375
3505.736328125	0.00833333333333333	0	-30	-2.55833333333333	1	0.6806640625
3508.5615234375	0.00833333333333333	0	-30	-2.55833333333333	2	0.54296875
3511.302734375	0.00833333333333333	0	-30	-2.55833333333333	2	0.70703125
3514.2861328125	0.00833333333333333	0	-30	-2.55833333333333	1	0.5546875
3517.0615234375	0.00833333333333333	0	30	6.65	1	0.611328125
3520.0029296875	0.00833333333333333	0	-30	-2.55833333333333	2	0.40625
3522.560546875	0.00833333333333333	0	-30	-2.55833333333333	2	0.6240234375
3525.2529296875	0.00833333333333333	0	-30	-2.55833333333333	2	0.484375
3527.90234375	0.00833333333333333	0	-30	-2.55833333333333	2	0.37109375
3530.560546875	0.00833333333333333	0	30	6.65	2	0.3525390625
3533.15234375	0.00833333333333333	0	30	6.65	2	0.4970703125
3535.8779296875	0.00833333333333333	0	-30	-2.55833333333333	2	0.7158203125
3538.7607421875	0.00833333333333333	0	30	6.65	2	0.5048828125
3541.4775390625	0.00833333333333333	0	-30	-2.68333333333333	2	0.5400390625
3544.4443359375	0.00833333333333333	0	30	6.65	2	0.4619140625
3547.02734375	0.00833333333333333	0	30	6.65	1	0.4541015625
3549.9931640625	0.00833333333333333	0	-30	-2.68333333333333	2	0.560546875
3553.0263671875	0.00833333333333333	0	30	6.65	2	0.423828125
3555.7509765625	0.00833333333333333	0	30	6.65	2	0.4833984375
3558.34375	0.00833333333333333	0	-30	-2.68333333333333	2	0.3701171875
3560.8525390625	0.00833333333333333	0	-30	-2.68333333333333	2	0.5654296875
3563.568359375	0.00833333333333333	0	-30	-2.68333333333333	2	0.666015625
3566.78515625	0.00833333333333333	0	30	6.65	2	0.6015625
3569.626953125	0.00833333333333333	0	-30	-2.80833333333333	1	0.455078125
3572.6689453125	0.00833333333333333	0	30	6.65	1	0.5498046875
3575.3935546875	0.00833333333333333	0	30	6.65	1	0.6171875
3578.42578125	0.00833333333333333	0	30	6.65	1	0.4091796875
3581.1767578125	0.00833333333333333	0	-30	-2.80833333333333	1	0.330078125
3583.9931640625	0.00833333333333333	0	30	6.65	1	0.2978515625
3614.509765625	0.00833333333333333	0	30	6.65	2	0.9580078125
3617.5849609375	0.00833333333333333	0	30	6.65	2	0.7158203125
3620.8095703125	0.00833333333333333	0	30	6.65	1	0.6025390625
3623.9423828125	0.00833333333333333	0	-30	-2.80833333333333	2	0.734375
3626.8671875	0.00833333333333333	0	-30	-2.80833333333333	2	0.513671875
3629.658203125	0.00833333333333333	0	30	6.65	2	0.4501953125
3632.41796875	0.00833333333333333	0	-30	-2.80833333333333	2	0.466796875
3634.9677734375	0.00833333333333333	0	-30	-2.80833333333333	2	0.5166015625
3637.9833984375	0.00833333333333333	0	-30	-2.80833333333333	2	0.6455078125
3640.9423828125	0.00833333333333333	0	30	6.65	2	0.462890625
3643.826171875	0.00833333333333333	0	-30	-2.93333333333333	2	0.6513671875
3646.67578125	0.00833333333333333	0	30	6.65	2	0.4169921875
3649.349609375	0.00833333333333333	0	30	6.65	2	0.34375
3652.1259765625	0.00833333333333333	0	-30	-2.93333333333333	2	0.4951171875
3654.9501953125	0.00833333333333333	0	30	6.65	2	0.3828125
3657.6171875	0.00833333333333333	0	30	6.525	2	0.3486328125
3660.150390625	0.00833333333333333	0	30	6.525	2	0.359375
3662.734375	0.00833333333333333	0	30	6.525	2	0.3994140625
3665.208984375	0.00833333333333333	0	-30	-2.93333333333333	2	0.388671875
3668.0087890625	0.00833333333333333	0	-30	-2.93333333333333	2	0.7578125
3670.892578125	0.00833333333333333	0	-30	-2.93333333333333	2	0.46484375
3673.7587890625	0.00833333333333333	0	-30	-3.05833333333333	2	0.4228515625
3676.3671875	0.00833333333333333	0	30	6.525	2	0.53515625
3679.107421875	0.00833333333333333	0	30	6.525	2	0.4267578125
3681.6337890625	0.00833333333333333	0	-30	-3.05833333333333	2	0.31640625
3684.2587890625	0.00833333333333333	0	30	6.4	2	0.2919921875
3686.7666015625	0.00833333333333333	0	-30	-3.05833333333333	2	0.279296875
3689.5166015625	0.00833333333333333	0	30	6.4	2	0.2822265625
3692.2333984375	0.00833333333333333	0	-30	-3.05833333333333	2	0.3251953125
3694.6337890625	0.00833333333333333	0	-30	-3.05833333333333	2	0.3330078125
3697.1083984375	0.00833333333333333	0	30	6.4	1	0.505859375
3699.7421875	0.00833333333333333	0	-30	-3.18333333333333	1	0.4326171875
3702.599609375	0.00833333333333333	0	-30	-3.18333333333333	1	0.302734375
3705.2333984375	0.00833333333333333	0	-30	-3.18333333333333	1	0.341796875
3708.0419921875	0.00833333333333333	0	-30	-3.18333333333333	1	0.3564453125
3710.841796875	0.00833333333333333	0	-30	-3.18333333333333	1	0.517578125
3713.5498046875	0.00833333333333333	0	-30	-3.05833333333333	1	0.3935546875
3716.1748046875	0.00833333333333333	0	30	6.4	1	0.3525390625
3718.8994140625	0.00833333333333333	0	-30	-3.05833333333333	1	0.3076171875
3721.2998046875	0.00833333333333333	0	30	6.4	1	0.3798828125
3724.0244140625	0.00833333333333333	0	-30	-3.05833333333333	1	0.294921875
3726.5166015625	0.00833333333333333	0	30	6.4	1	0.38671875
3729.1826171875	0.00833333333333333	0	-30	-3.05833333333333	1	0.3212890625
3731.8740234375	0.00833333333333333	0	30	6.4	1	0.349609375
3734.6328125	0.00833333333333333	0	-30	-3.05833333333333	1	0.294921875
3737.3984375	0.00833333333333333	0	-30	-2.93333333333333	1	0.2978515625
3739.8486328125	0.00833333333333333	0	30	6.525	1	0.439453125
3742.482421875	0.00833333333333333	0	-30	-2.93333333333333	1	0.349609375
3744.8994140625	0.00833333333333333	0	-30	-2.93333333333333	1	0.3486328125
3747.3828125	0.00833333333333333	0	-30	-2.93333333333333	1	0.376953125
3750.0908203125	0.00833333333333333	0	-30	-2.93333333333333	1	0.6376953125
3752.890625	0.00833333333333333	0	-30	-2.80833333333333	1	0.4375
3755.8828125	0.00833333333333333	0	30	6.525	1	0.357421875
3758.765625	0.00833333333333333	0	30	6.525	1	0.4912109375
3761.3984375	0.00833333333333333	0	-30	-2.80833333333333	1	0.5546875
3764.515625	0.00833333333333333	0	30	6.525	1	0.4931640625
3767.4404296875	0.00833333333333333	0	30	6.525	1	0.4892578125
3770.140625	0.00833333333333333	0	-30	-2.80833333333333	1	0.7080078125
3773.3408203125	0.00833333333333333	0	30	6.65	2	0.7880859375
3776.5576171875	0.00833333333333333	0	30	6.65	1	0.4599609375
3779.4072265625	0.00833333333333333	0	-30	-2.80833333333333	1	0.482421875
3782.140625	0.00833333333333333	0	30	6.65	1	0.3330078125
3784.8486328125	0.00833333333333333	0	-30	-2.80833333333333	1	0.6005859375
3787.556640625	0.00833333333333333	0	-30	-2.68333333333333	1	0.4130859375
3790.1982421875	0.00833333333333333	0	-30	-2.68333333333333	1	0.3876953125
3792.9892578125	0.00833333333333333	0	30	6.65	1	0.33203125
3795.45703125	0.00833333333333333	0	30	6.65	1	0.6650390625
3798.423828125	0.00833333333333333	0	30	6.65	2	0.689453125
3801.623046875	0.00833333333333333	0	-30	-2.68333333333333	2	0.451171875
3804.623046875	0.00833333333333333	0	-30	-2.68333333333333	1	0.5791015625
3807.748046875	0.00833333333333333	0	30	6.65	1	0.390625
3810.6982421875	0.00833333333333333	0	30	6.65	1	0.3916015625
3813.3818359375	0.00833333333333333	0	-30	-2.68333333333333	1	0.396484375
3815.998046875	0.00833333333333333	0	30	6.65	1	0.419921875
3818.7978515625	0.00833333333333333	0	-30	-2.68333333333333	1	0.2841796875
3821.2978515625	0.00833333333333333	0	-30	-2.68333333333333	1	0.3447265625
3823.8564453125	0.00833333333333333	0	30	6.65	1	0.41796875
3826.615234375	0.00833333333333333	0	30	6.65	1	0.33984375
3829.0810546875	0.00833333333333333	0	30	6.775	1	0.3701171875
3831.53125	0.00833333333333333	0	30	6.775	1	0.3193359375
3887.7216796875	0.00833333333333333	0	30	6.775	2	0.642578125
3890.697265625	0.00833333333333333	0	30	6.775	2	0.6357421875
3893.513671875	0.00833333333333333	0	-30	-2.68333333333333	2	0.443359375
3896.4970703125	0.00833333333333333	0	-30	-2.68333333333333	2	0.4521484375
3899.1044921875	0.00833333333333333	0	-30	-2.68333333333333	2	0.4287109375
3901.7890625	0.00833333333333333	0	30	6.775	2	0.5283203125
3904.720703125	0.00833333333333333	0	-30	-2.68333333333333	2	0.3330078125
3907.330078125	0.00833333333333333	0	-30	-2.68333333333333	2	0.771484375
3910.6220703125	0.00833333333333333	0	-30	-2.80833333333333	2	0.3671875
3913.35546875	0.00833333333333333	0	-30	-2.80833333333333	2	0.3544921875
3916.0126953125	0.00833333333333333	0	-30	-2.80833333333333	2	0.2890625
3918.796875	0.00833333333333333	0	-30	-2.80833333333333	2	0.392578125
3921.5380859375	0.00833333333333333	0	-30	-2.80833333333333	2	0.396484375
3924.455078125	0.00833333333333333	0	30	6.775	2	0.4072265625
3927.421875	0.00833333333333333	0	-30	-2.93333333333333	2	0.4326171875
3929.9453125	0.00833333333333333	0	-30	-2.93333333333333	2	0.4208984375
3932.6884765625	0.00833333333333333	0	30	6.775	2	0.26953125
3935.50390625	0.00833333333333333	0	-30	-2.93333333333333	2	0.2626953125
3938.2880859375	0.00833333333333333	0	-30	-2.93333333333333	2	0.421875
3940.98828125	0.00833333333333333	0	30	6.65	2	0.1943359375
3943.2216796875	0.00833333333333333	0	30	6.65	2	0.400390625
3945.9296875	0.00833333333333333	0	30	6.65	2	0.30078125
3948.3046875	0.00833333333333333	0	-30	-2.93333333333333	2	0.2939453125
3950.8212890625	0.00833333333333333	0	30	6.65	1	0.361328125
3953.654296875	0.00833333333333333	0	-30	-3.05833333333333	2	0.5205078125
3956.6298828125	0.00833333333333333	0	30	6.65	2	0.7060546875
3959.6376953125	0.00833333333333333	0	30	6.65	2	0.3623046875
3962.4208984375	0.00833333333333333	0	-30	-3.05833333333333	2	0.3623046875
3965.2548828125	0.00833333333333333	0	-30	-3.05833333333333	2	0.48046875
3967.9375	0.00833333333333333	0	-30	-3.05833333333333	1	0.669921875
3971.0625	0.00833333333333333	0	-30	-3.05833333333333	1	0.3603515625
3973.8876953125	0.00833333333333333	0	-30	-3.05833333333333	1	0.2958984375
3976.5947265625	0.00833333333333333	0	30	6.65	1	0.3251953125
3979.404296875	0.00833333333333333	0	-30	-3.05833333333333	1	0.603515625
3982.3447265625	0.00833333333333333	0	-30	-3.05833333333333	2	0.591796875
3985.12890625	0.00833333333333333	0	30	6.65	2	0.54296875
3987.8623046875	0.00833333333333333	0	-30	-3.05833333333333	1	0.4736328125
3990.294921875	0.00833333333333333	0	30	6.65	1	0.625
3993.4873046875	0.00833333333333333	0	30	6.65	1	0.45703125
3996.13671875	0.00833333333333333	0	30	6.65	1	0.431640625
3999.037109375	0.00833333333333333	0	-30	-3.05833333333333	1	0.4912109375
4001.7529296875	0.00833333333333333	0	-30	-3.05833333333333	1	0.34375
4004.3037109375	0.00833333333333333	0	-30	-3.05833333333333	1	0.4091796875
4006.904296875	0.00833333333333333	0	30	6.65	1	0.2880859375
4009.4287109375	0.00833333333333333	0	30	6.65	1	0.443359375
4012.0859375	0.00833333333333333	0	30	6.775	1	0.291015625
4014.8125	0.00833333333333333	0	30	6.775	1	0.412109375
4017.3623046875	0.00833333333333333	0	-30	-3.05833333333333	1	0.646484375
4020.3115234375	0.00833333333333333	0	-30	-2.93333333333333	1	0.40234375
4023.12890625	0.00833333333333333	0	30	6.775	1	0.2880859375
4025.5537109375	0.00833333333333333	0	-30	-2.93333333333333	1	0.447265625
4028.361328125	0.00833333333333333	0	-30	-2.93333333333333	1	0.591796875
4031.50390625	0.00833333333333333	0	-30	-2.93333333333333	1	0.689453125
4034.39453125	0.00833333333333333	0	30	6.775	1	0.4150390625
4037.1865234375	0.00833333333333333	0	30	6.775	1	0.4228515625
4039.978515625	0.00833333333333333	0	30	6.9	2	0.7353515625
4043.1201171875	0.00833333333333333	0	-30	-2.93333333333333	2	0.43359375
4046.0859375	0.00833333333333333	0	-30	-2.93333333333333	2	0.515625
4048.8203125	0.00833333333333333	0	30	6.9	2	0.4375
4051.328125	0.00833333333333333	0	-30	-2.93333333333333	2	0.4501953125
4054.01171875	0.00833333333333333	0	30	6.9	2	0.822265625
4057.2861328125	0.00833333333333333	0	30	6.9	2	0.595703125
4060.169921875	0.00833333333333333	0	-30	-2.93333333333333	2	0.4482421875
4062.736328125	0.00833333333333333	0	-30	-2.93333333333333	2	0.7783203125
4065.8779296875	0.00833333333333333	0	30	6.9	2	1.052734375
4069.4033203125	0.00833333333333333	0	30	6.775	2	0.5595703125
4072.5439453125	0.00833333333333333	0	30	6.775	1	0.5390625
4075.3359375	0.00833333333333333	0	-30	-3.05833333333333	1	0.5947265625
4078.4697265625	0.00833333333333333	0	-30	-3.05833333333333	2	0.62890625
4081.2861328125	0.00833333333333333	0	-30	-3.05833333333333	1	0.732421875
4084.2861328125	0.00833333333333333	0	-30	-3.05833333333333	1	0.533203125
4086.935546875	0.00833333333333333	0	30	6.775	1	0.443359375
4089.744140625	0.00833333333333333	0	30	6.775	1	0.4111328125
4092.40234375	0.00833333333333333	0	30	6.775	1	0.45703125
4095.2607421875	0.00833333333333333	0	30	6.775	1	0.4150390625
4098.15234375	0.00833333333333333	0	-30	-3.05833333333333	1	0.474609375
4101.1767578125	0.00833333333333333	0	-30	-3.05833333333333	1	0.482421875
4104.0185546875	0.00833333333333333	0	-30	-3.05833333333333	1	0.44140625
4106.51953125	0.00833333333333333	0	30	6.9	1	0.419921875
4109.109375	0.00833333333333333	0	-30	-2.93333333333333	2	0.654296875
4128.185546875	0.00833333333333333	0	30	6.9	2	0.5712890625
4131.34375	0.00833333333333333	0	-30	-2.93333333333333	1	0.6767578125
4134.568359375	0.00833333333333333	0	30	6.9	2	0.5166015625
4137.34375	0.00833333333333333	0	-30	-2.93333333333333	1	0.4853515625
4140.0849609375	0.00833333333333333	0	-30	-2.93333333333333	1	0.3681640625
4142.701171875	0.00833333333333333	0	30	6.9	1	0.3759765625
4145.5771484375	0.00833333333333333	0	-30	-2.93333333333333	1	0.2841796875
4148.0517578125	0.00833333333333333	0	-30	-2.93333333333333	1	0.2890625
4150.634765625	0.00833333333333333	0	30	6.9	1	0.337890625
4153.5185546875	0.00833333333333333	0	30	6.9	1	0.4228515625
4156.4345703125	0.00833333333333333	0	30	6.9	1	0.4189453125
4158.884765625	0.00833333333333333	0	30	6.9	1	0.625
4161.943359375	0.00833333333333333	0	30	7.025	1	0.2939453125
4164.5263671875	0.00833333333333333	0	-30	-2.80833333333333	1	0.3359375
4166.9599609375	0.00833333333333333	0	30	7.025	1	0.3740234375
4169.326171875	0.00833333333333333	0	30	7.025	1	0.279296875
4172.0595703125	0.00833333333333333	0	30	7.025	1	0.330078125
4174.6083984375	0.00833333333333333	0	30	7.025	1	0.3095703125
4177.30078125	0.00833333333333333	0	30	7.15	1	0.4169921875
4179.826171875	0.00833333333333333	0	-30	-2.80833333333333	1	0.4521484375
4182.859375	0.00833333333333333	0	30	7.15	1	0.37890625
4185.509765625	0.00833333333333333	0	-30	-2.80833333333333	1	0.5927734375
4188.6015625	0.00833333333333333	0	30	7.15	1	0.556640625
4191.2509765625	0.00833333333333333	0	-30	-2.80833333333333	1	0.427734375
4194.3427734375	0.00833333333333333	0	-30	-2.80833333333333	1	0.5361328125
4197.1171875	0.00833333333333333	0	30	7.15	1	0.6337890625
4200.2255859375	0.00833333333333333	0	30	7.15	1	0.1650390625
4202.54296875	0.00833333333333333	0	30	7.275	2	0.6640625
4205.341796875	0.00833333333333333	0	30	7.275	2	0.46484375
4208.3427734375	0.00833333333333333	0	-30	-2.68333333333333	2	0.50390625
4211.0830078125	0.00833333333333333	0	30	7.275	1	0.5322265625
4214.1337890625	0.00833333333333333	0	30	7.275	1	0.42578125
4216.984375	0.00833333333333333	0	30	7.275	1	0.4462890625
4219.5751953125	0.00833333333333333	0	-30	-2.68333333333333	1	0.3681640625
4222.099609375	0.00833333333333333	0	30	7.275	1	0.4599609375
4224.9326171875	0.00833333333333333	0	30	7.275	1	0.2744140625
4227.3583984375	0.00833333333333333	0	-30	-2.68333333333333	1	0.537109375
4230.3671875	0.00833333333333333	0	30	7.4	1	0.4482421875
4232.9248046875	0.00833333333333333	0	30	7.4	1	0.5390625
4235.7919921875	0.00833333333333333	0	-30	-2.68333333333333	1	0.3515625
4238.2587890625	0.00833333333333333	0	30	7.4	1	0.3095703125
4240.9990234375	0.00833333333333333	0	30	7.4	1	0.4814453125
4244.025390625	0.00833333333333333	0	30	7.4	2	0.630859375
4247.1669921875	0.00833333333333333	0	-30	-2.68333333333333	1	0.529296875
4250.1240234375	0.00833333333333333	0	-30	-2.68333333333333	1	0.4287109375
4252.7998046875	0.00833333333333333	0	30	7.4	1	0.48046875
4255.7158203125	0.00833333333333333	0	30	7.4	1	0.30859375
4258.3837890625	0.00833333333333333	0	30	7.4	2	0.6728515625
4261.6083984375	0.00833333333333333	0	-30	-2.55833333333333	2	0.9521484375
4264.9169921875	0.00833333333333333	0	30	7.4	2	0.4921875
4268.025390625	0.00833333333333333	0	30	7.4	2	0.5595703125
4271.099609375	0.00833333333333333	0	30	7.4	2	0.4775390625
4273.75	0.00833333333333333	0	30	7.4	2	0.458984375
4276.3662109375	0.00833333333333333	0	-30	-2.55833333333333	2	0.4189453125
4278.9736328125	0.00833333333333333	0	-30	-2.55833333333333	2	0.4033203125
4281.8828125	0.00833333333333333	0	-30	-2.55833333333333	2	0.55859375
4284.82421875	0.00833333333333333	0	-30	-2.55833333333333	2	0.6328125
4287.9658203125	0.00833333333333333	0	-30	-2.68333333333333	2	0.404296875
4290.7080078125	0.00833333333333333	0	30	7.275	1	0.61328125
4293.6416015625	0.00833333333333333	0	-30	-2.68333333333333	1	0.4404296875
4296.4248046875	0.00833333333333333	0	-30	-2.68333333333333	1	0.625
4299.482421875	0.00833333333333333	0	-30	-2.68333333333333	1	0.7509765625
4302.82421875	0.00833333333333333	0	30	7.275	2	0.658203125
4305.890625	0.00833333333333333	0	30	7.275	2	0.623046875
4308.9990234375	0.00833333333333333	0	30	7.275	2	0.619140625
4312.1728515625	0.00833333333333333	0	-30	-2.68333333333333	2	0.60546875
4315.265625	0.00833333333333333	0	-30	-2.68333333333333	2	0.5849609375
4318.390625	0.00833333333333333	0	-30	-2.68333333333333	2	0.6279296875
4321.2900390625	0.00833333333333333	0	30	7.275	2	0.6494140625
4324.548828125	0.00833333333333333	0	30	7.275	2	0.6142578125
4327.5322265625	0.00833333333333333	0	30	7.15	2	0.9345703125
4330.5908203125	0.00833333333333333	0	30	7.15	2	0.5556640625
4333.45703125	0.00833333333333333	0	-30	-2.68333333333333	1	0.6259765625
4336.607421875	0.00833333333333333	0	-30	-2.68333333333333	1	0.53125
4339.7392578125	0.00833333333333333	0	30	7.15	1	0.5673828125
4342.8408203125	0.00833333333333333	0	30	7.15	2	0.5703125
4345.8818359375	0.00833333333333333	0	30	7.15	2	0.609375
4349.1484375	0.00833333333333333	0	30	7.15	1	0.9990234375
4352.3154296875	0.00833333333333333	0	-30	-2.68333333333333	2	0.3681640625
4355.0234375	0.00833333333333333	0	30	7.15	1	0.65234375
