onset	duration	titr	surround	centre	response	rt
41.0966796875	0.00833333333333333	1	30	-15	1	2.9228515625
46.587890625	0.00833333333333333	1	30	15	2	2.7119140625
51.6044921875	0.00833333333333333	1	30	14	2	1.6796875
55.8134765625	0.00833333333333333	1	30	13	2	1.166015625
59.529296875	0.00833333333333333	1	NaN	15	2	0.818359375
62.6123046875	0.00833333333333333	1	NaN	14	2	0.759765625
65.5205078125	0.00833333333333333	1	NaN	13	2	0.8271484375
68.462890625	0.00833333333333333	1	NaN	-15	1	0.62109375
71.5458984375	0.00833333333333333	1	NaN	-14	1	0.6982421875
74.412109375	0.00833333333333333	1	-30	15	2	0.8564453125
77.7529296875	0.00833333333333333	1	30	12	2	0.6669921875
80.7705078125	0.00833333333333333	1	NaN	-13	1	0.59375
83.8291015625	0.00833333333333333	1	30	-14	1	0.84765625
86.9443359375	0.00833333333333333	1	-30	14	2	0.66796875
89.9873046875	0.00833333333333333	1	NaN	12	2	0.6337890625
92.8369140625	0.00833333333333333	1	NaN	-12	1	0.6083984375
95.6201171875	0.00833333333333333	1	-30	13	2	0.625
98.6123046875	0.00833333333333333	1	30	11	2	0.65625
101.6875	0.00833333333333333	1	-30	12	2	0.7978515625
104.912109375	0.00833333333333333	1	30	-13	1	0.693359375
107.9619140625	0.00833333333333333	1	-30	-15	1	0.7724609375
110.953125	0.00833333333333333	1	30	-12	1	0.572265625
114.044921875	0.00833333333333333	1	NaN	-11	1	0.45703125
116.8037109375	0.00833333333333333	1	-30	11	2	0.689453125
119.828125	0.00833333333333333	1	30	10	2	0.9052734375
123.2705078125	0.00833333333333333	1	-30	-14	1	0.767578125
126.4365234375	0.00833333333333333	1	NaN	-10	1	0.697265625
129.4873046875	0.00833333333333333	1	NaN	11	2	0.6865234375
132.228515625	0.00833333333333333	1	-30	10	2	0.689453125
135.2275390625	0.00833333333333333	1	30	-11	1	0.5146484375
137.9033203125	0.00833333333333333	1	-30	-13	1	0.703125
140.728515625	0.00833333333333333	1	NaN	-9	1	0.8935546875
143.9697265625	0.00833333333333333	1	NaN	10	2	0.64453125
146.828125	0.00833333333333333	1	30	-10	1	0.5546875
149.427734375	0.00833333333333333	1	NaN	-8	1	0.71484375
152.4697265625	0.00833333333333333	1	30	-9	1	0.544921875
155.51953125	0.00833333333333333	1	-30	9	2	0.54296875
158.26953125	0.00833333333333333	1	30	9	2	0.6015625
161.1533203125	0.00833333333333333	1	NaN	-7	1	0.60546875
164.2861328125	0.00833333333333333	1	NaN	-6	1	0.47265625
167.236328125	0.00833333333333333	1	NaN	-5	2	0.9306640625
170.28515625	0.00833333333333333	1	-30	-12	2	0.6982421875
173.3447265625	0.00833333333333333	1	-30	-13	1	0.7109375
176.2861328125	0.00833333333333333	1	-30	-12	1	0.609375
179.01953125	0.00833333333333333	1	30	8	2	0.7080078125
182.2529296875	0.00833333333333333	1	30	7	2	0.626953125
185.4111328125	0.00833333333333333	1	NaN	-6	2	1.6611328125
189.185546875	0.00833333333333333	1	-30	-11	1	0.5419921875
192.2275390625	0.00833333333333333	1	NaN	-7	1	0.5
195.0439453125	0.00833333333333333	1	-30	8	2	0.67578125
198.2353515625	0.00833333333333333	1	NaN	-6	1	0.701171875
201.126953125	0.00833333333333333	1	30	-8	1	0.6171875
203.9267578125	0.00833333333333333	1	NaN	9	2	0.59375
206.8857421875	0.00833333333333333	1	-30	7	2	0.6826171875
209.984375	0.00833333333333333	1	30	6	2	0.6396484375
212.9765625	0.00833333333333333	1	-30	-10	2	0.591796875
215.7841796875	0.00833333333333333	1	NaN	8	2	0.65625
218.9189453125	0.00833333333333333	1	NaN	-5	2	0.7138671875
222.1689453125	0.00833333333333333	1	-30	6	2	0.5439453125
225.0517578125	0.00833333333333333	1	-30	-11	1	0.9091796875
228.001953125	0.00833333333333333	1	30	-7	1	1.51953125
231.59375	0.00833333333333333	1	30	5	2	0.9833984375
234.9931640625	0.00833333333333333	1	NaN	-6	1	0.81640625
237.9267578125	0.00833333333333333	1	30	4	2	0.9228515625
241.384765625	0.00833333333333333	1	30	-6	1	0.79296875
244.2177734375	0.00833333333333333	1	NaN	-5	1	0.7919921875
247.318359375	0.00833333333333333	1	30	-5	1	0.68359375
250.05859375	0.00833333333333333	1	NaN	7	1	0.83984375
253.1845703125	0.00833333333333333	1	NaN	-4	1	0.537109375
255.91015625	0.00833333333333333	1	30	3	1	0.8603515625
258.9931640625	0.00833333333333333	1	30	4	2	0.849609375
262.1513671875	0.00833333333333333	1	NaN	8	2	0.611328125
265.16796875	0.00833333333333333	1	NaN	-3	1	2.0263671875
269.6181640625	0.00833333333333333	1	30	3	2	0.7763671875
272.576171875	0.00833333333333333	1	NaN	7	2	0.5146484375
275.4345703125	0.00833333333333333	1	NaN	-2	2	0.6962890625
278.68359375	0.00833333333333333	1	NaN	-3	1	0.84765625
282.05078125	0.00833333333333333	1	NaN	6	2	0.640625
284.9921875	0.00833333333333333	1	NaN	-2	2	0.619140625
287.759765625	0.00833333333333333	1	-30	-10	1	1.2919921875
291.5673828125	0.00833333333333333	1	-30	5	2	0.66796875
294.708984375	0.00833333333333333	1	-30	-9	1	0.9658203125
297.767578125	0.00833333333333333	1	30	-4	1	0.8759765625
300.7587890625	0.00833333333333333	1	NaN	5	2	0.5966796875
303.80078125	0.00833333333333333	1	-30	4	2	0.5625
306.9091796875	0.00833333333333333	1	NaN	-3	1	1.126953125
310.2509765625	0.00833333333333333	1	NaN	4	2	0.6083984375
313.1337890625	0.00833333333333333	1	NaN	-2	2	0.5986328125
316.18359375	0.00833333333333333	1	-30	3	2	0.580078125
319.2333984375	0.00833333333333333	1	NaN	3	2	0.802734375
322.1669921875	0.00833333333333333	1	30	-3	1	0.765625
325.3916015625	0.00833333333333333	1	30	2	2	0.6845703125
328.3671875	0.00833333333333333	1	-30	2	2	0.685546875
331.4921875	0.00833333333333333	1	-30	1	2	0.80859375
334.7998046875	0.00833333333333333	1	-30	-8	1	0.8369140625
337.81640625	0.00833333333333333	1	-30	0	2	0.884765625
367.1748046875	0.00833333333333333	1	-30	-1	1	0.9111328125
370.283203125	0.00833333333333333	1	-30	-7	2	0.794921875
373.5	0.00833333333333333	1	-30	0	2	0.9384765625
376.666015625	0.00833333333333333	1	-30	-8	2	1.1005859375
380.1416015625	0.00833333333333333	1	NaN	-3	1	1.1123046875
383.607421875	0.00833333333333333	1	-30	-9	1	1.0947265625
387.06640625	0.00833333333333333	1	-30	-1	2	0.931640625
390.3994140625	0.00833333333333333	1	NaN	2	2	0.6474609375
393.5908203125	0.00833333333333333	1	-30	-2	2	0.591796875
396.732421875	0.00833333333333333	1	-30	-3	2	0.7626953125
399.69921875	0.00833333333333333	1	NaN	1	2	0.6357421875
402.56640625	0.00833333333333333	1	-30	-4	2	0.720703125
405.7314453125	0.00833333333333333	1	NaN	0	2	0.8359375
408.7158203125	0.00833333333333333	1	30	1	2	1.3076171875
412.0908203125	0.00833333333333333	1	30	-2	1	1.6923828125
416.0068359375	0.00833333333333333	1	30	-1	1	0.80859375
419.07421875	0.00833333333333333	1	30	0	1	1.4453125
422.865234375	0.00833333333333333	1	-30	-5	2	0.9501953125
426.3408203125	0.00833333333333333	1	30	1	2	0.794921875
429.2490234375	0.00833333333333333	1	NaN	-1	2	0.623046875
432.123046875	0.00833333333333333	1	NaN	-2	2	0.396484375
434.9326171875	0.00833333333333333	1	-30	-6	2	0.5869140625
437.798828125	0.00833333333333333	1	-30	-7	2	0.7373046875
441.0986328125	0.00833333333333333	1	30	0	2	0.6787109375
444.1484375	0.00833333333333333	1	-30	-8	2	0.740234375
447.2568359375	0.00833333333333333	1	-30	-9	1	0.52734375
450.0146484375	0.00833333333333333	1	-30	-8	2	0.5859375
452.806640625	0.00833333333333333	1	30	0	2	0.6416015625
455.6484375	0.00833333333333333	1	NaN	-3	2	0.6396484375
458.806640625	0.00833333333333333	1	30	-1	2	1.0419921875
462.2646484375	0.00833333333333333	1	-30	-9	2	0.7119140625
465.20703125	0.00833333333333333	1	-30	-10	2	0.6982421875
468.4140625	0.00833333333333333	1	30	-1	2	0.5390625
471.123046875	0.00833333333333333	1	-30	-11	2	0.91015625
474.615234375	0.00833333333333333	1	30	-2	2	0.75390625
477.58203125	0.00833333333333333	1	-30	-8	2	0.7392578125
480.46484375	0.00833333333333333	1	-30	-12	2	0.849609375
483.873046875	0.00833333333333333	1	-30	-9	2	0.96875
487.064453125	0.00833333333333333	1	-30	-10	1	0.7294921875
489.8984375	0.00833333333333333	1	30	-3	1	0.767578125
492.7314453125	0.00833333333333333	1	-30	-13	1	0.6064453125
495.814453125	0.00833333333333333	1	-30	-9	1	0.67578125
498.8232421875	0.00833333333333333	1	30	-2	2	1.306640625
502.646484375	0.00833333333333333	1	30	-2	1	0.931640625
506.0380859375	0.00833333333333333	1	-30	-8	1	0.755859375
508.9228515625	0.00833333333333333	1	30	-3	1	0.759765625
512.2392578125	0.00833333333333333	1	-30	-7	2	1.115234375
515.7890625	0.00833333333333333	1	NaN	-4	2	0.8857421875
518.9638671875	0.00833333333333333	1	NaN	-5	1	0.951171875
522.4638671875	0.00833333333333333	1	30	-2	1	0.8583984375
525.447265625	0.00833333333333333	1	-30	-8	1	0.755859375
528.5556640625	0.00833333333333333	1	NaN	-4	1	0.9189453125
531.822265625	0.00833333333333333	1	30	-1	1	0.62109375
534.763671875	0.00833333333333333	1	NaN	-3	1	0.791015625
537.9892578125	0.00833333333333333	1	-30	-7	2	1.0302734375
541.36328125	0.00833333333333333	1	30	-1	1	0.9599609375
544.4638671875	0.00833333333333333	1	30	0	2	0.859375
547.85546875	0.00833333333333333	1	NaN	-2	1	0.740234375
551.1474609375	0.00833333333333333	1	30	0	1	0.8642578125
554.3134765625	0.00833333333333333	1	NaN	-1	2	1.0029296875
557.5966796875	0.00833333333333333	1	-30	-8	1	1.4873046875
561.2802734375	0.00833333333333333	1	30	1	1	1.15625
564.7138671875	0.00833333333333333	1	NaN	-2	1	0.8984375
567.822265625	0.00833333333333333	1	30	2	1	0.91015625
571.138671875	0.00833333333333333	1	30	-1	1	0.673828125
574.1962890625	0.00833333333333333	1	30	3	1	0.888671875
577.1552734375	0.00833333333333333	1	30	0	1	0.77734375
580.0634765625	0.00833333333333333	1	30	1	1	0.7412109375
583.396484375	0.00833333333333333	1	30	4	2	0.984375
586.513671875	0.00833333333333333	1	NaN	-1	1	1.04296875
590.0537109375	0.00833333333333333	1	30	2	1	0.7587890625
593.029296875	0.00833333333333333	1	30	3	1	1.224609375
596.5302734375	0.00833333333333333	1	30	4	2	0.962890625
599.86328125	0.00833333333333333	1	NaN	0	2	0.6142578125
602.99609375	0.00833333333333333	1	NaN	-1	2	0.6328125
606.087890625	0.00833333333333333	1	30	3	2	1.27734375
609.5126953125	0.00833333333333333	1	30	3	2	1.2529296875
613.279296875	0.00833333333333333	1	30	2	2	1.0302734375
616.7880859375	0.00833333333333333	1	30	1	2	0.921875
620.0380859375	0.00833333333333333	1	30	0	2	0.8076171875
623.0546875	0.00833333333333333	1	30	-1	1	1.119140625
626.5791015625	0.00833333333333333	1	30	2	2	0.9873046875
629.9873046875	0.00833333333333333	1	30	1	1	0.779296875
632.919921875	0.00833333333333333	1	30	0	1	1.24609375
636.5380859375	0.00833333333333333	1	NaN	-2	1	0.876953125
639.7373046875	0.00833333333333333	1	-30	-7	2	0.6455078125
642.7294921875	0.00833333333333333	1	NaN	-1	2	0.95703125
646.1044921875	0.00833333333333333	1	NaN	-2	2	0.5341796875
648.9033203125	0.00833333333333333	1	NaN	-3	1	0.736328125
652.12109375	0.00833333333333333	1	NaN	-2	1	1.349609375
655.87109375	0.00833333333333333	1	30	1	1	1.16796875
659.353515625	0.00833333333333333	1	30	2	1	0.8779296875
662.50390625	0.00833333333333333	1	30	2	2	1.18359375
666.2705078125	0.00833333333333333	1	NaN	-1	2	0.6494140625
693.9287109375	0.00833333333333333	1	30	1	1	0.9521484375
697.1953125	0.00833333333333333	1	30	3	2	0.6689453125
699.9287109375	0.00833333333333333	1	30	2	2	1.328125
703.51953125	0.00833333333333333	1	-30	-8	1	0.76953125
706.361328125	0.00833333333333333	1	30	2	2	1.0390625
709.537109375	0.00833333333333333	1	30	1	2	0.583984375
712.177734375	0.00833333333333333	1	30	0	2	0.703125
715.0693359375	0.00833333333333333	1	30	-1	2	0.8837890625
718.0029296875	0.00833333333333333	1	30	1	2	0.837890625
721.236328125	0.00833333333333333	1	-30	-7	2	0.685546875
724.01953125	0.00833333333333333	1	30	-2	2	0.7822265625
727.26953125	0.00833333333333333	1	30	0	1	1.15625
730.51171875	0.00833333333333333	1	30	1	2	0.7294921875
733.5947265625	0.00833333333333333	1	30	-3	1	0.8310546875
736.4697265625	0.00833333333333333	1	30	-2	2	1.060546875
739.619140625	0.00833333333333333	1	30	-3	1	0.5263671875
742.6279296875	0.00833333333333333	1	-30	-8.75	1	0.8779296875
745.736328125	0.00833333333333333	1	NaN	-1.5	2	1.0576171875
749.2763671875	0.00833333333333333	1	30	-0.25	2	0.9658203125
752.419921875	0.00833333333333333	1	NaN	-2.5	2	0.662109375
755.5791015625	0.00833333333333333	1	-30	-7.75	1	1.17578125
759.2607421875	0.00833333333333333	1	30	0.75	2	0.646484375
762.435546875	0.00833333333333333	1	NaN	-2.625	2	0.775390625
765.5859375	0.00833333333333333	1	NaN	-1.625	2	0.6328125
768.5927734375	0.00833333333333333	1	-30	-7.625	2	0.666015625
771.4775390625	0.00833333333333333	1	30	-0.375	1	0.90234375
774.560546875	0.00833333333333333	1	NaN	-2.75	1	1.001953125
777.818359375	0.00833333333333333	1	NaN	-1.75	2	0.6328125
780.935546875	0.00833333333333333	1	NaN	-2.625	1	1.00390625
784.0439453125	0.00833333333333333	1	-30	-8.625	1	0.951171875
787.53515625	0.00833333333333333	1	-30	-7.75	1	1.1884765625
791.0439453125	0.00833333333333333	1	NaN	-2.5	2	0.7197265625
794.126953125	0.00833333333333333	1	30	-0.25	1	1.4453125
797.71875	0.00833333333333333	1	-30	-8.5	1	1.212890625
801.3857421875	0.00833333333333333	1	NaN	-2.625	1	0.6259765625
804.4931640625	0.00833333333333333	1	-30	-7.625	2	0.6787109375
807.28515625	0.00833333333333333	1	-30	-7.75	1	0.958984375
810.6435546875	0.00833333333333333	1	-30	-7.625	1	0.904296875
813.6015625	0.00833333333333333	1	30	-0.125	1	1.0830078125
817.201171875	0.00833333333333333	1	NaN	-2.5	1	0.8037109375
820.2763671875	0.00833333333333333	1	30	0	1	0.8720703125
823.318359375	0.00833333333333333	1	30	0.625	1	0.9267578125
826.841796875	0.00833333333333333	1	30	0.125	1	0.70703125
829.9091796875	0.00833333333333333	1	30	0.75	1	0.744140625
832.91796875	0.00833333333333333	1	-30	-8.375	1	0.798828125
836.16015625	0.00833333333333333	1	-30	-8.25	1	1.5166015625
839.9677734375	0.00833333333333333	1	NaN	-1.875	1	1.28515625
843.6845703125	0.00833333333333333	1	NaN	-1.75	1	0.7841796875
846.9599609375	0.00833333333333333	1	NaN	-2.375	2	0.8212890625
849.9599609375	0.00833333333333333	1	NaN	-2.5	2	2.365234375
854.759765625	0.00833333333333333	1	30	0.25	2	0.662109375
857.6923828125	0.00833333333333333	1	-30	-8.125	1	1.177734375
860.9423828125	0.00833333333333333	1	NaN	-1.625	1	1.0390625
864.1845703125	0.00833333333333333	1	30	0.125	1	1.189453125
867.6591796875	0.00833333333333333	1	30	0.875	1	1.298828125
871.1337890625	0.00833333333333333	1	30	1	1	0.8798828125
874.109375	0.00833333333333333	1	NaN	-2.625	2	2.3125
878.8671875	0.00833333333333333	1	30	1.125	1	1.291015625
882.392578125	0.00833333333333333	1	NaN	-2.75	1	0.7099609375
885.43359375	0.00833333333333333	1	-30	-8	2	0.6611328125
888.6923828125	0.00833333333333333	1	NaN	-1.5	2	0.6103515625
891.7158203125	0.00833333333333333	1	30	0.25	2	0.8828125
895.1337890625	0.00833333333333333	1	-30	-8.125	1	21.3779296875
918.8837890625	0.00833333333333333	1	-30	-7.5	2	0.68359375
922.0166015625	0.00833333333333333	1	30	0.125	2	0.8076171875
925.1005859375	0.00833333333333333	1	-30	-8	1	0.69140625
928.1171875	0.00833333333333333	1	30	0	2	0.73046875
931.2578125	0.00833333333333333	1	NaN	-1.625	2	0.91796875
934.3916015625	0.00833333333333333	1	30	1.25	2	0.537109375
937.115234375	0.00833333333333333	1	30	-0.125	2	0.6767578125
940.216796875	0.00833333333333333	1	NaN	-2.625	2	0.6396484375
943.2578125	0.00833333333333333	1	NaN	-1.75	2	0.6787109375
946.357421875	0.00833333333333333	1	30	-0.25	2	1.0283203125
949.7822265625	0.00833333333333333	1	NaN	-2.75	1	0.666015625
952.9501953125	0.00833333333333333	1	30	1.125	2	0.5625
955.7998046875	0.00833333333333333	1	-30	-7.875	2	0.720703125
958.857421875	0.00833333333333333	1	NaN	-1.875	2	0.7041015625
961.69921875	0.00833333333333333	1	NaN	-2	2	0.669921875
964.71484375	0.00833333333333333	1	-30	-8	2	0.75
967.7578125	0.00833333333333333	1	30	1	2	0.67578125
970.6240234375	0.00833333333333333	1	30	0.875	1	0.6728515625
973.44140625	0.00833333333333333	1	-30	-7.625	2	0.6484375
976.240234375	0.00833333333333333	1	-30	-7.75	2	5.5537109375
984.291015625	0.00833333333333333	1	NaN	-2.625	2	0.6787109375
987.291015625	0.00833333333333333	1	-30	-7.875	2	0.615234375
990.482421875	0.00833333333333333	1	30	-0.375	2	0.767578125
993.3310546875	0.00833333333333333	1	30	1	2	0.88671875
1054.990234375	0.00833333333333333	1	NaN	-2.125	1	1.013671875
1058.0224609375	0.00833333333333333	1	-30	-8	2	0.8857421875
1061.380859375	0.00833333333333333	1	NaN	-2.75	1	0.6962890625
1064.248046875	0.00833333333333333	1	30	-0.5	1	1.076171875
1067.6396484375	0.00833333333333333	1	30	-0.375	1	0.732421875
1070.6220703125	0.00833333333333333	1	NaN	-2	1	0.6220703125
1073.71484375	0.00833333333333333	1	NaN	-1.875	1	0.76953125
1076.7646484375	0.00833333333333333	1	-30	-8.125	1	0.6396484375
1079.8232421875	0.00833333333333333	1	NaN	-1.75	1	0.59765625
1082.939453125	0.00833333333333333	1	30	0.875	1	0.529296875
1085.998046875	0.00833333333333333	1	NaN	-1.625	1	0.5029296875
1088.755859375	0.00833333333333333	1	-30	-8.125	1	0.6328125
1091.873046875	0.00833333333333333	1	NaN	-1.5	1	0.32421875
1094.447265625	0.00833333333333333	1	-30	-8	1	0.822265625
1097.3056640625	0.00833333333333333	1	NaN	-2.625	2	0.828125
1100.6474609375	0.00833333333333333	1	NaN	-2.75	2	0.990234375
1104.15625	0.00833333333333333	1	-30	-8	1	1.0654296875
1107.73046875	0.00833333333333333	1	30	-0.25	1	0.595703125
1110.4228515625	0.00833333333333333	1	-30	-7.875	2	0.966796875
1113.6806640625	0.00833333333333333	1	NaN	-2.875	1	0.60546875
1116.59765625	0.00833333333333333	1	-30	-8	2	0.6884765625
1119.779296875	0.00833333333333333	1	30	-0.125	1	0.9150390625
1122.947265625	0.00833333333333333	1	-30	-8.125	1	0.634765625
1125.7470703125	0.00833333333333333	1	30	0	1	0.779296875
1128.689453125	0.00833333333333333	1	-30	-8	1	1.3173828125
1132.23828125	0.00833333333333333	1	30	0.125	1	0.81640625
1135.1640625	0.00833333333333333	1	30	0.25	1	0.7783203125
1138.2548828125	0.00833333333333333	1	NaN	-2.75	2	0.8720703125
1141.4052734375	0.00833333333333333	1	NaN	-2.875	1	0.5380859375
1144.138671875	0.00833333333333333	1	NaN	-1.375	1	0.7880859375
1146.962890625	0.00833333333333333	1	-30	-7.875	2	0.66015625
1149.73046875	0.00833333333333333	1	30	1	2	0.7890625
1152.7705078125	0.00833333333333333	1	-30	-7.875	2	0.5966796875
1155.705078125	0.00833333333333333	1	NaN	-1.25	2	0.4541015625
1158.546875	0.00833333333333333	1	NaN	-1.375	2	0.5966796875
1161.6796875	0.00833333333333333	1	30	0.875	2	1.4638671875
1165.455078125	0.00833333333333333	1	30	0.375	2	0.544921875
1168.2216796875	0.00833333333333333	1	NaN	-1.5	2	0.6103515625
1171.1455078125	0.00833333333333333	1	30	0.75	2	0.638671875
1174.1962890625	0.00833333333333333	1	30	0.25	2	0.611328125
1177.3466796875	0.00833333333333333	1	NaN	-2.75	2	0.60546875
1180.4296875	0.00833333333333333	1	30	0.625	2	0.71484375
1183.2548828125	0.00833333333333333	1	30	0.125	2	0.625
1186.0712890625	0.00833333333333333	1	NaN	-1.625	2	0.7294921875
1189.2216796875	0.00833333333333333	1	NaN	-1.75	2	0.5791015625
1192.1298828125	0.00833333333333333	1	30	0.5	2	0.5341796875
1195.1796875	0.00833333333333333	1	NaN	-1.875	2	0.6689453125
1198.021484375	0.00833333333333333	1	NaN	-2.875	2	0.68359375
1201.2626953125	0.00833333333333333	1	-30	-8	2	0.7216796875
1204.4130859375	0.00833333333333333	1	30	0	2	0.8759765625
1207.5947265625	0.00833333333333333	1	-30	-8.125	1	1.791015625
1211.7626953125	0.00833333333333333	1	-30	-8	1	1.3427734375
1215.6962890625	0.00833333333333333	1	NaN	-2	1	1.0810546875
1218.953125	0.00833333333333333	1	NaN	-1.875	1	0.736328125
1221.8955078125	0.00833333333333333	1	NaN	-3	1	0.5458984375
1224.4794921875	0.00833333333333333	1	NaN	-1.75	1	0.810546875
1227.6376953125	0.00833333333333333	1	NaN	-1.625	1	1.4365234375
1231.5693359375	0.00833333333333333	1	30	-0.125	1	0.576171875
1234.5029296875	0.00833333333333333	1	-30	-7.875	2	0.962890625
1237.5126953125	0.00833333333333333	1	30	0.375	2	0.625
1240.1875	0.00833333333333333	1	30	0.25	1	0.814453125
1243.0283203125	0.00833333333333333	1	30	0	2	1.158203125
1246.38671875	0.00833333333333333	1	-30	-8	1	0.8154296875
1249.287109375	0.00833333333333333	1	30	-0.125	1	0.962890625
1252.3291015625	0.00833333333333333	1	-30	-7.875	1	0.537109375
1255.1455078125	0.00833333333333333	1	30	0.375	1	0.6416015625
1257.912109375	0.00833333333333333	1	-30	-8	1	0.5380859375
1260.8623046875	0.00833333333333333	1	-30	-7.875	2	1.1328125
1264.1865234375	0.00833333333333333	1	-30	-8	1	0.6806640625
1267.3037109375	0.00833333333333333	1	NaN	-1.5	2	0.595703125
1270.345703125	0.00833333333333333	1	NaN	-1.625	2	0.4814453125
1273.078125	0.00833333333333333	1	30	0	2	0.7412109375
1276.0869140625	0.00833333333333333	1	NaN	-1.75	2	0.65234375
1279.0947265625	0.00833333333333333	1	-30	-7.75	1	0.9169921875
1282.4453125	0.00833333333333333	1	30	0.5	2	0.7109375
1285.251953125	0.00833333333333333	1	-30	-7.625	2	0.671875
1287.9951171875	0.00833333333333333	1	30	0.375	2	1.3525390625
1291.4365234375	0.00833333333333333	1	-30	-7.875	2	0.630859375
1294.1611328125	0.00833333333333333	1	30	-0.125	2	0.7626953125
1297.4443359375	0.00833333333333333	1	NaN	-1.875	1	0.87109375
1300.64453125	0.00833333333333333	1	30	0.25	2	0.7763671875
1303.8115234375	0.00833333333333333	1	NaN	-1.75	2	0.5126953125
1306.5615234375	0.00833333333333333	1	-30	-7.75	2	0.5546875
1309.2109375	0.00833333333333333	1	-30	-8	2	0.8017578125
1312.38671875	0.00833333333333333	1	30	-0.25	1	0.9453125
1315.6357421875	0.00833333333333333	1	30	0.125	2	0.9453125
1318.64453125	0.00833333333333333	1	NaN	-1.875	1	0.65625
1321.4365234375	0.00833333333333333	1	NaN	-1.75	1	1.2568359375
1324.703125	0.00833333333333333	1	30	-0.125	1	0.7255859375
1327.6025390625	0.00833333333333333	1	-30	-7.875	1	0.5947265625
1330.5029296875	0.00833333333333333	1	NaN	-1.625	1	0.5419921875
1333.09375	0.00833333333333333	1	30	0	1	0.6875
1335.9443359375	0.00833333333333333	1	-30	-8.125	1	0.708984375
1339.1279296875	0.00833333333333333	1	30	0.125	1	0.6611328125
1341.986328125	0.00833333333333333	1	30	0.25	1	1.71484375
1346.1943359375	0.00833333333333333	1	NaN	-1.5	1	0.8359375
1349.435546875	0.00833333333333333	1	NaN	-1.375	1	0.8017578125
1352.52734375	0.00833333333333333	1	30	0.375	1	0.7099609375
1382.7685546875	0.00833333333333333	1	-30	-8	2	0.830078125
1385.7939453125	0.00833333333333333	1	30	0.5	1	1.029296875
1389.2353515625	0.00833333333333333	1	-30	-7.75	1	0.8115234375
1392.1845703125	0.00833333333333333	1	30	0.625	2	0.8388671875
1395.5673828125	0.00833333333333333	1	NaN	-1.25	2	0.8076171875
1398.443359375	0.00833333333333333	1	30	0.5	2	1.2275390625
1401.8515625	0.00833333333333333	1	30	0	1	0.923828125
1405.03515625	0.00833333333333333	1	30	0.375	2	1.212890625
1408.576171875	0.00833333333333333	1	NaN	-1.375	1	0.85546875
1411.8349609375	0.00833333333333333	1	30	0.125	1	0.8291015625
1414.734375	0.00833333333333333	1	-30	-8.125	1	1.2978515625
1418.4169921875	0.00833333333333333	1	30	0.25	1	0.703125
1421.6259765625	0.00833333333333333	1	30	0.375	2	1.150390625
1425.0341796875	0.00833333333333333	1	30	0.25	1	0.7978515625
1428.05078125	0.00833333333333333	1	-30	-8	1	0.91796875
1431.04296875	0.00833333333333333	1	NaN	-1.25	1	0.6376953125
1434.2099609375	0.00833333333333333	1	NaN	-1.125	2	1.0302734375
1437.3681640625	0.00833333333333333	1	-30	-7.875	2	1.216796875
1440.951171875	0.00833333333333333	1	30	0.25	2	2.033203125
1445.2177734375	0.00833333333333333	1	NaN	-1.25	2	0.623046875
1448.04296875	0.00833333333333333	1	NaN	-1.375	2	0.654296875
1451.2255859375	0.00833333333333333	1	30	0.125	2	0.9189453125
1454.42578125	0.00833333333333333	1	30	0	2	0.6708984375
1457.576171875	0.00833333333333333	1	30	-0.125	1	0.697265625
1460.576171875	0.00833333333333333	1	-30	-7.625	1	0.8486328125
1463.951171875	0.00833333333333333	1	-30	-7.5	2	0.6982421875
1466.833984375	0.00833333333333333	1	30	0.375	2	0.9677734375
1469.841796875	0.00833333333333333	1	-30	-7.625	1	0.583984375
1472.583984375	0.00833333333333333	1	30	0	2	0.953125
1475.9091796875	0.00833333333333333	1	NaN	-1.5	1	0.8447265625
1478.8173828125	0.00833333333333333	1	NaN	-1.375	1	0.7451171875
1481.767578125	0.00833333333333333	1	NaN	-1.25	1	0.9306640625
1484.9091796875	0.00833333333333333	1	-30	-7.5	2	1.044921875
1488.4755859375	0.00833333333333333	1	30	-0.125	1	0.798828125
1491.3408203125	0.00833333333333333	1	30	0	1	1.5732421875
1494.9423828125	0.00833333333333333	1	NaN	-1.125	1	0.7080078125
1497.8837890625	0.00833333333333333	1	30	0.125	1	0.638671875
1500.650390625	0.00833333333333333	1	30	0.25	2	0.65625
1503.4912109375	0.00833333333333333	1	30	0.25	1	0.7919921875
1506.283203125	0.00833333333333333	1	NaN	-1	2	0.6796875
1509.2412109375	0.00833333333333333	1	NaN	-1.125	2	0.9541015625
1512.31640625	0.00833333333333333	1	NaN	-1.25	2	0.71875
1515.275390625	0.00833333333333333	1	NaN	-1.375	1	0.6953125
1518.3330078125	0.00833333333333333	1	30	0.125	1	0.57421875
1521.4580078125	0.00833333333333333	0	30	0.18125	1	0.6650390625
1524.2587890625	0.00833333333333333	0	-30	-7.9	1	0.6572265625
1527.2998046875	0.00833333333333333	0	30	0.18125	1	0.7919921875
1530.625	0.00833333333333333	0	30	0.18125	1	0.6748046875
1533.8095703125	0.00833333333333333	0	30	0.18125	2	1.0263671875
1537.0078125	0.00833333333333333	0	30	0.18125	1	0.64453125
1539.7666015625	0.00833333333333333	0	-30	-7.9	1	0.60546875
1542.82421875	0.00833333333333333	0	30	0.18125	1	0.67578125
1545.916015625	0.00833333333333333	0	-30	-7.9	1	0.5517578125
1548.908203125	0.00833333333333333	0	-30	-7.9	1	1.2236328125
1552.349609375	0.00833333333333333	0	30	0.18125	1	0.8388671875
1555.466796875	0.00833333333333333	0	-30	-7.9	2	1.0732421875
1558.916015625	0.00833333333333333	0	30	0.18125	1	0.6884765625
1561.8076171875	0.00833333333333333	0	-30	-7.9	2	0.94921875
1564.9736328125	0.00833333333333333	0	-30	-7.9	1	0.8955078125
1568.2822265625	0.00833333333333333	0	30	0.18125	1	0.8671875
1571.423828125	0.00833333333333333	0	30	0.30625	1	0.8212890625
1574.6328125	0.00833333333333333	0	30	0.30625	2	2.2841796875
1579.0908203125	0.00833333333333333	0	-30	-7.9	1	0.73828125
1581.998046875	0.00833333333333333	0	-30	-7.9	1	0.623046875
1584.8994140625	0.00833333333333333	0	30	0.30625	1	0.6259765625
1587.9326171875	0.00833333333333333	0	-30	-7.9	1	0.640625
1590.83203125	0.00833333333333333	0	-30	-7.9	1	0.8212890625
1593.7568359375	0.00833333333333333	0	-30	-7.775	1	0.6162109375
1596.482421875	0.00833333333333333	0	30	0.30625	2	1.1318359375
1599.9736328125	0.00833333333333333	0	30	0.30625	2	0.9365234375
1603.0234375	0.00833333333333333	0	-30	-7.775	1	0.734375
1606.015625	0.00833333333333333	0	30	0.30625	1	1.5341796875
1609.7236328125	0.00833333333333333	0	-30	-7.775	1	0.802734375
1612.798828125	0.00833333333333333	0	-30	-7.775	1	0.767578125
1615.7734375	0.00833333333333333	0	30	0.30625	1	0.80859375
1619.0986328125	0.00833333333333333	0	-30	-7.775	1	1.0361328125
1622.4990234375	0.00833333333333333	0	-30	-7.65	2	0.7236328125
1625.4404296875	0.00833333333333333	0	30	0.30625	2	0.7265625
1628.7900390625	0.00833333333333333	0	30	0.30625	2	0.9365234375
1631.95703125	0.00833333333333333	0	30	0.30625	2	1.177734375
1635.4072265625	0.00833333333333333	0	30	0.30625	2	0.935546875
1638.490234375	0.00833333333333333	0	30	0.30625	2	1.1806640625
1641.865234375	0.00833333333333333	0	-30	-7.65	1	0.8544921875
1644.7978515625	0.00833333333333333	0	30	0.18125	2	0.8330078125
1647.998046875	0.00833333333333333	0	-30	-7.65	2	1.033203125
1651.46484375	0.00833333333333333	0	-30	-7.65	2	0.806640625
1654.5224609375	0.00833333333333333	0	-30	-7.65	2	0.9814453125
1657.7392578125	0.00833333333333333	0	-30	-7.65	1	1.4609375
1661.314453125	0.00833333333333333	0	-30	-7.65	2	0.78125
1664.521484375	0.00833333333333333	0	-30	-7.65	2	1.3984375
1668.34765625	0.00833333333333333	0	30	0.18125	2	0.740234375
1671.6552734375	0.00833333333333333	0	30	0.18125	2	0.6484375
1674.6728515625	0.00833333333333333	0	30	0.18125	2	0.54296875
1677.447265625	0.00833333333333333	0	-30	-7.65	1	1.46484375
1681.1728515625	0.00833333333333333	0	30	0.18125	2	1.4599609375
1684.9892578125	0.00833333333333333	0	30	0.05625	1	0.939453125
1687.97265625	0.00833333333333333	0	30	0.05625	1	0.68359375
1690.8798828125	0.00833333333333333	0	30	0.05625	1	0.9208984375
1693.9140625	0.00833333333333333	0	30	0.05625	2	0.798828125
1697.263671875	0.00833333333333333	0	30	0.05625	2	0.78515625
1700.1806640625	0.00833333333333333	0	-30	-7.65	2	0.572265625
1703.3642578125	0.00833333333333333	0	-30	-7.65	2	0.6689453125
1706.4296875	0.00833333333333333	0	30	0.05625	2	0.5712890625
1709.1796875	0.00833333333333333	0	30	0.05625	1	1.2939453125
1712.8642578125	0.00833333333333333	0	-30	-7.65	1	0.9931640625
1716.279296875	0.00833333333333333	0	30	0.05625	1	0.8583984375
1719.50390625	0.00833333333333333	0	30	0.05625	1	1.2177734375
1723.0048828125	0.00833333333333333	0	30	0.05625	1	2.068359375
1727.5126953125	0.00833333333333333	0	30	0.05625	1	0.953125
1730.8876953125	0.00833333333333333	0	30	0.18125	1	0.162109375
1733.330078125	0.00833333333333333	0	-30	-7.65	1	1.48046875
1736.830078125	0.00833333333333333	0	-30	-7.65	2	1.64453125
1740.720703125	0.00833333333333333	0	-30	-7.65	1	1.0654296875
1744.2373046875	0.00833333333333333	0	30	0.18125	1	0.708984375
1747.2294921875	0.00833333333333333	0	-30	-7.65	1	0.9326171875
1750.470703125	0.00833333333333333	0	-30	-7.65	2	0.8359375
1753.396484375	0.00833333333333333	0	30	0.18125	1	0.91796875
1756.4794921875	0.00833333333333333	0	30	0.18125	1	1.1474609375
1759.904296875	0.00833333333333333	0	30	0.18125	1	1.0908203125
1763.4794921875	0.00833333333333333	0	30	0.30625	1	1.9716796875
1767.7119140625	0.00833333333333333	0	-30	-7.65	2	1.546875
1771.705078125	0.00833333333333333	0	-30	-7.65	2	1.07421875
1775.1455078125	0.00833333333333333	0	30	0.30625	1	1.482421875
1778.978515625	0.00833333333333333	0	30	0.30625	1	1.43359375
1816.5615234375	0.00833333333333333	0	30	0.30625	1	1.1796875
1819.9951171875	0.00833333333333333	0	-30	-7.65	1	0.8662109375
1823.2119140625	0.00833333333333333	0	-30	-7.65	2	0.552734375
1825.9453125	0.00833333333333333	0	-30	-7.65	1	0.7958984375
1828.9033203125	0.00833333333333333	0	-30	-7.65	1	0.9814453125
1832.26171875	0.00833333333333333	0	30	0.30625	2	0.5751953125
1835.353515625	0.00833333333333333	0	-30	-7.65	1	0.916015625
1838.64453125	0.00833333333333333	0	30	0.30625	2	0.8486328125
1841.828125	0.00833333333333333	0	-30	-7.65	1	0.849609375
1845.1455078125	0.00833333333333333	0	30	0.30625	2	0.8759765625
1848.412109375	0.00833333333333333	0	-30	-7.65	2	0.6259765625
1851.603515625	0.00833333333333333	0	30	0.30625	2	0.658203125
1854.8193359375	0.00833333333333333	0	30	0.30625	2	0.69140625
1858.01953125	0.00833333333333333	0	-30	-7.65	2	0.986328125
1861.1953125	0.00833333333333333	0	-30	-7.65	1	1.02734375
1864.7783203125	0.00833333333333333	0	-30	-7.65	1	0.8037109375
1868.13671875	0.00833333333333333	0	30	0.18125	2	1.1494140625
1871.6201171875	0.00833333333333333	0	30	0.18125	1	0.7705078125
1874.77734375	0.00833333333333333	0	-30	-7.65	2	1.2529296875
1878.251953125	0.00833333333333333	0	-30	-7.65	2	0.9873046875
1881.5859375	0.00833333333333333	0	-30	-7.65	2	0.5966796875
1884.693359375	0.00833333333333333	0	30	0.18125	1	1.7138671875
1888.5361328125	0.00833333333333333	0	30	0.18125	2	0.9111328125
1891.7861328125	0.00833333333333333	0	-30	-7.65	2	3.029296875
1897.1767578125	0.00833333333333333	0	30	0.18125	1	0.7509765625
1900.369140625	0.00833333333333333	0	-30	-7.65	1	1.4228515625
1904.27734375	0.00833333333333333	0	30	0.18125	2	1.1787109375
1907.578125	0.00833333333333333	0	30	0.18125	1	0.7412109375
1910.6689453125	0.00833333333333333	0	30	0.18125	2	0.7548828125
1913.5771484375	0.00833333333333333	0	-30	-7.65	2	0.7265625
1916.6943359375	0.00833333333333333	0	-30	-7.65	1	0.857421875
1919.7607421875	0.00833333333333333	0	-30	-7.65	2	0.7998046875
1922.935546875	0.00833333333333333	0	30	0.18125	2	1.1767578125
1926.6943359375	0.00833333333333333	0	-30	-7.65	1	0.8740234375
1929.751953125	0.00833333333333333	0	30	0.18125	1	0.880859375
1932.826171875	0.00833333333333333	0	-30	-7.65	1	0.87890625
1936.052734375	0.00833333333333333	0	-30	-7.65	2	0.923828125
1939.2109375	0.00833333333333333	0	-30	-7.65	1	1.1416015625
1942.5107421875	0.00833333333333333	0	30	0.18125	1	0.833984375
1945.71875	0.00833333333333333	0	-30	-7.65	1	0.74609375
1949.0185546875	0.00833333333333333	0	30	0.18125	1	0.7587890625
1952.001953125	0.00833333333333333	0	-30	-7.65	2	1.294921875
1955.8271484375	0.00833333333333333	0	-30	-7.65	2	0.8056640625
1958.9091796875	0.00833333333333333	0	-30	-7.65	2	0.7958984375
1962.2265625	0.00833333333333333	0	-30	-7.65	2	0.7666015625
1965.3857421875	0.00833333333333333	0	30	0.18125	2	0.7275390625
1968.5185546875	0.00833333333333333	0	30	0.18125	2	1.0986328125
1972.02734375	0.00833333333333333	0	-30	-7.65	2	0.7509765625
1975.009765625	0.00833333333333333	0	30	0.18125	1	1.3525390625
1978.66796875	0.00833333333333333	0	-30	-7.775	2	0.765625
1981.958984375	0.00833333333333333	0	-30	-7.775	2	0.5234375
1984.568359375	0.00833333333333333	0	30	0.18125	2	0.609375
1987.54296875	0.00833333333333333	0	-30	-7.775	2	0.611328125
1990.1845703125	0.00833333333333333	0	-30	-7.775	2	0.513671875
1992.8095703125	0.00833333333333333	0	30	0.18125	1	0.9453125
1995.859375	0.00833333333333333	0	30	0.18125	2	0.7109375
1998.8017578125	0.00833333333333333	0	-30	-7.775	2	0.6328125
2001.525390625	0.00833333333333333	0	-30	-7.9	2	0.677734375
2004.41796875	0.00833333333333333	0	-30	-7.9	2	0.609375
2007.30078125	0.00833333333333333	0	-30	-7.9	2	0.669921875
2010.0927734375	0.00833333333333333	0	30	0.18125	1	0.798828125
2013.0595703125	0.00833333333333333	0	30	0.18125	1	1.255859375
2016.7666015625	0.00833333333333333	0	30	0.18125	1	0.701171875
2019.92578125	0.00833333333333333	0	-30	-7.9	1	0.58203125
2023.04296875	0.00833333333333333	0	-30	-7.9	1	0.6640625
2025.8251953125	0.00833333333333333	0	30	0.18125	1	0.7626953125
2028.984375	0.00833333333333333	0	30	0.18125	1	1.099609375
2032.208984375	0.00833333333333333	0	30	0.30625	1	0.8671875
2035.6171875	0.00833333333333333	0	-30	-7.9	2	0.8916015625
2038.7421875	0.00833333333333333	0	30	0.30625	2	1.1181640625
2042.3173828125	0.00833333333333333	0	30	0.30625	1	0.654296875
2045.1826171875	0.00833333333333333	0	-30	-7.9	1	1.2138671875
2048.5419921875	0.00833333333333333	0	-30	-7.9	1	0.5341796875
2051.55859375	0.00833333333333333	0	30	0.30625	1	0.5498046875
2054.283203125	0.00833333333333333	0	-30	-7.9	2	0.73828125
2057.4921875	0.00833333333333333	0	-30	-7.9	1	0.6083984375
2060.3671875	0.00833333333333333	0	-30	-7.9	1	0.708984375
2063.2001953125	0.00833333333333333	0	-30	-7.9	1	0.65234375
2066.0751953125	0.00833333333333333	0	30	0.30625	1	0.76171875
2069.18359375	0.00833333333333333	0	30	0.30625	1	0.853515625
2108.0986328125	0.00833333333333333	0	30	0.30625	1	0.900390625
2111.4150390625	0.00833333333333333	0	-30	-7.9	1	0.6953125
2114.2666015625	0.00833333333333333	0	30	0.43125	2	1.603515625
2118.1826171875	0.00833333333333333	0	-30	-7.9	2	1.591796875
2122.166015625	0.00833333333333333	0	30	0.43125	1	1.13671875
2125.4736328125	0.00833333333333333	0	-30	-7.9	1	1.005859375
2128.783203125	0.00833333333333333	0	-30	-7.9	1	1.5361328125
2132.474609375	0.00833333333333333	0	30	0.43125	2	1.0361328125
2136.06640625	0.00833333333333333	0	-30	-7.9	2	1.380859375
2139.5830078125	0.00833333333333333	0	-30	-7.9	2	0.912109375
2142.607421875	0.00833333333333333	0	30	0.43125	1	1.48828125
2146.2412109375	0.00833333333333333	0	-30	-7.9	1	0.6943359375
2149.041015625	0.00833333333333333	0	-30	-7.9	1	1.0947265625
2152.21484375	0.00833333333333333	0	-30	-7.9	2	0.5771484375
2155.0244140625	0.00833333333333333	0	-30	-7.9	2	0.623046875
2157.982421875	0.00833333333333333	0	-30	-7.9	2	0.6171875
2160.7744140625	0.00833333333333333	0	30	0.43125	2	0.5537109375
2163.8486328125	0.00833333333333333	0	-30	-7.9	1	0.8232421875
2166.82421875	0.00833333333333333	0	30	0.43125	1	0.576171875
2169.482421875	0.00833333333333333	0	-30	-7.9	1	0.4462890625
2172.365234375	0.00833333333333333	0	30	0.43125	1	0.8427734375
2175.5068359375	0.00833333333333333	0	-30	-7.9	2	0.509765625
2178.357421875	0.00833333333333333	0	-30	-7.9	1	0.4189453125
2181.1318359375	0.00833333333333333	0	30	0.43125	2	0.3564453125
2183.7158203125	0.00833333333333333	0	-30	-7.9	1	0.9892578125
2186.83984375	0.00833333333333333	0	-30	-7.9	2	0.42578125
2189.7900390625	0.00833333333333333	0	30	0.43125	1	0.634765625
2192.9306640625	0.00833333333333333	0	-30	-7.9	2	0.5341796875
2196.0400390625	0.00833333333333333	0	30	0.43125	2	0.7529296875
2199.0986328125	0.00833333333333333	0	30	0.43125	2	0.302734375
2201.8974609375	0.00833333333333333	0	30	0.43125	2	0.576171875
2204.7734375	0.00833333333333333	0	30	0.43125	2	0.67578125
2207.572265625	0.00833333333333333	0	-30	-7.9	1	0.61328125
2210.6728515625	0.00833333333333333	0	30	0.43125	1	0.6484375
2213.7236328125	0.00833333333333333	0	30	0.43125	2	0.982421875
2217.1982421875	0.00833333333333333	0	30	0.43125	1	1.5556640625
2220.8984375	0.00833333333333333	0	-30	-7.9	1	0.83984375
2223.998046875	0.00833333333333333	0	30	0.43125	2	0.755859375
2227.2060546875	0.00833333333333333	0	-30	-7.9	1	0.8359375
2230.2802734375	0.00833333333333333	0	-30	-7.9	1	0.490234375
2233.005859375	0.00833333333333333	0	-30	-7.9	2	0.5888671875
2235.7216796875	0.00833333333333333	0	-30	-7.9	1	0.5849609375
2238.689453125	0.00833333333333333	0	-30	-7.9	1	0.2333984375
2240.998046875	0.00833333333333333	0	30	0.43125	2	1.65234375
2244.7724609375	0.00833333333333333	0	30	0.43125	2	0.7177734375
2247.6806640625	0.00833333333333333	0	-30	-7.9	2	2.73828125
2252.771484375	0.00833333333333333	0	-30	-7.9	1	0.7041015625
2255.7060546875	0.00833333333333333	0	-30	-7.9	1	0.80859375
2258.822265625	0.00833333333333333	0	-30	-7.9	1	1.4453125
2262.572265625	0.00833333333333333	0	30	0.43125	1	0.7275390625
2265.6728515625	0.00833333333333333	0	30	0.43125	1	0.802734375
2268.947265625	0.00833333333333333	0	30	0.43125	1	0.6962890625
2272.064453125	0.00833333333333333	0	-30	-7.9	1	0.53125
2274.939453125	0.00833333333333333	0	-30	-7.9	1	0.568359375
2277.6806640625	0.00833333333333333	0	-30	-7.775	1	0.5390625
2280.7802734375	0.00833333333333333	0	30	0.43125	2	0.34375
2283.6806640625	0.00833333333333333	0	30	0.43125	1	0.771484375
2286.9716796875	0.00833333333333333	0	30	0.43125	1	0.7041015625
2290.0390625	0.00833333333333333	0	30	0.43125	1	0.6767578125
2293.3134765625	0.00833333333333333	0	30	0.43125	1	0.650390625
2296.3720703125	0.00833333333333333	0	-30	-7.775	1	0.736328125
2299.6552734375	0.00833333333333333	0	-30	-7.775	1	0.716796875
2302.73828125	0.00833333333333333	0	30	0.43125	2	1.2265625
2306.2041015625	0.00833333333333333	0	30	0.43125	1	0.8330078125
2309.23046875	0.00833333333333333	0	-30	-7.775	1	0.5263671875
2312.205078125	0.00833333333333333	0	-30	-7.775	1	0.671875
2315.4375	0.00833333333333333	0	-30	-7.65	1	0.4951171875
2318.3720703125	0.00833333333333333	0	30	0.43125	1	0.3134765625
2320.9462890625	0.00833333333333333	0	-30	-7.65	1	0.5390625
2324.0546875	0.00833333333333333	0	-30	-7.65	2	0.4541015625
2326.7548828125	0.00833333333333333	0	30	0.43125	1	0.9228515625
2330.205078125	0.00833333333333333	0	30	0.43125	1	0.5927734375
2333.0634765625	0.00833333333333333	0	-30	-7.65	1	0.5830078125
2335.9375	0.00833333333333333	0	-30	-7.65	1	0.515625
2338.6796875	0.00833333333333333	0	30	0.43125	1	0.517578125
2341.5380859375	0.00833333333333333	0	-30	-7.65	1	0.419921875
2344.2294921875	0.00833333333333333	0	-30	-7.65	1	0.4970703125
2346.896484375	0.00833333333333333	0	30	0.55625	1	0.5576171875
2349.837890625	0.00833333333333333	0	30	0.55625	1	0.2958984375
2352.62109375	0.00833333333333333	0	-30	-7.65	1	0.8173828125
2506.7607421875	0.00833333333333333	0	-30	-7.525	1	3.9384765625
2513.0771484375	0.00833333333333333	0	-30	-7.525	1	1.2060546875
2516.609375	0.00833333333333333	0	-30	-7.525	1	1.25
2520.2265625	0.00833333333333333	0	30	0.55625	1	0.75390625
2523.0771484375	0.00833333333333333	0	30	0.55625	1	0.6142578125
2525.91015625	0.00833333333333333	0	-30	-7.525	1	0.91796875
2529.0595703125	0.00833333333333333	0	30	0.55625	1	0.6962890625
2532.0185546875	0.00833333333333333	0	30	0.68125	1	0.7373046875
2534.9931640625	0.00833333333333333	0	30	0.68125	2	0.9072265625
2538.1103515625	0.00833333333333333	0	-30	-7.525	1	0.6298828125
2540.8271484375	0.00833333333333333	0	-30	-7.4	1	0.9453125
2543.9599609375	0.00833333333333333	0	-30	-7.4	1	0.62890625
2546.6767578125	0.00833333333333333	0	30	0.68125	1	0.65625
2549.41015625	0.00833333333333333	0	30	0.68125	2	0.7861328125
2552.3095703125	0.00833333333333333	0	-30	-7.4	2	0.8466796875
2555.392578125	0.00833333333333333	0	-30	-7.4	1	1.083984375
2558.8095703125	0.00833333333333333	0	30	0.68125	1	0.5390625
2561.484375	0.00833333333333333	0	30	0.68125	2	0.8408203125
2564.484375	0.00833333333333333	0	-30	-7.4	1	0.5205078125
2567.201171875	0.00833333333333333	0	-30	-7.4	1	0.5478515625
2570.109375	0.00833333333333333	0	30	0.68125	2	0.3193359375
2572.767578125	0.00833333333333333	0	-30	-7.4	2	0.91796875
2576.0673828125	0.00833333333333333	0	-30	-7.4	1	0.642578125
2579.19140625	0.00833333333333333	0	-30	-7.4	1	1.4462890625
2582.7841796875	0.00833333333333333	0	-30	-7.4	2	1.453125
2586.66796875	0.00833333333333333	0	-30	-7.4	1	1.75390625
2590.900390625	0.00833333333333333	0	30	0.68125	1	0.9453125
2594.0673828125	0.00833333333333333	0	30	0.68125	1	0.642578125
2596.80078125	0.00833333333333333	0	30	0.68125	1	0.7890625
2599.80078125	0.00833333333333333	0	-30	-7.4	1	0.7890625
2603.0009765625	0.00833333333333333	0	30	0.68125	1	0.7255859375
2606.017578125	0.00833333333333333	0	30	0.68125	1	0.7802734375
2609.0244140625	0.00833333333333333	0	30	0.80625	1	0.5576171875
2612.1005859375	0.00833333333333333	0	30	0.80625	2	0.642578125
2615.1005859375	0.00833333333333333	0	-30	-7.4	1	0.6015625
2618.05078125	0.00833333333333333	0	30	0.80625	2	0.5244140625
2620.8671875	0.00833333333333333	0	30	0.80625	1	1.259765625
2624.583984375	0.00833333333333333	0	30	0.80625	1	0.6708984375
2627.5	0.00833333333333333	0	-30	-7.4	1	0.9306640625
2630.599609375	0.00833333333333333	0	30	0.80625	1	0.943359375
2633.908203125	0.00833333333333333	0	-30	-7.4	1	1.21875
2637.525390625	0.00833333333333333	0	-30	-7.275	1	0.826171875
2640.6083984375	0.00833333333333333	0	-30	-7.275	2	0.7431640625
2643.4833984375	0.00833333333333333	0	-30	-7.275	2	2.8525390625
2648.4248046875	0.00833333333333333	0	30	0.80625	2	1.21484375
2652.1416015625	0.00833333333333333	0	-30	-7.275	2	0.6982421875
2654.9248046875	0.00833333333333333	0	30	0.80625	2	0.7392578125
2657.857421875	0.00833333333333333	0	-30	-7.275	2	0.638671875
2660.7578125	0.00833333333333333	0	30	0.80625	2	1.890625
2664.974609375	0.00833333333333333	0	30	0.80625	1	0.8017578125
2667.9326171875	0.00833333333333333	0	-30	-7.275	2	1.244140625
2671.6328125	0.00833333333333333	0	-30	-7.4	1	0.7275390625
2674.6494140625	0.00833333333333333	0	30	0.80625	2	1.51953125
2678.5234375	0.00833333333333333	0	-30	-7.4	2	1.189453125
2681.8662109375	0.00833333333333333	0	-30	-7.4	2	0.6552734375
2684.607421875	0.00833333333333333	0	-30	-7.4	1	0.5771484375
2687.2900390625	0.00833333333333333	0	-30	-7.4	2	0.87890625
2690.6318359375	0.00833333333333333	0	-30	-7.4	2	0.689453125
2693.5400390625	0.00833333333333333	0	30	0.80625	1	0.6689453125
2696.615234375	0.00833333333333333	0	30	0.80625	2	0.7939453125
2699.923828125	0.00833333333333333	0	30	0.80625	1	0.685546875
2703.1318359375	0.00833333333333333	0	30	0.80625	1	0.7412109375
2706.0576171875	0.00833333333333333	0	30	0.80625	1	0.5439453125
2709.166015625	0.00833333333333333	0	-30	-7.4	1	0.603515625
2712.33203125	0.00833333333333333	0	30	0.80625	1	1.26171875
2716.015625	0.00833333333333333	0	-30	-7.4	1	0.666015625
2719.0810546875	0.00833333333333333	0	30	0.80625	1	1.033203125
2722.5576171875	0.00833333333333333	0	-30	-7.4	1	0.796875
2725.4658203125	0.00833333333333333	0	30	0.93125	1	0.873046875
2728.70703125	0.00833333333333333	0	30	0.93125	1	1.2392578125
2732.4736328125	0.00833333333333333	0	30	0.93125	1	1.1923828125
2736.240234375	0.00833333333333333	0	-30	-7.4	2	0.6259765625
2739.0986328125	0.00833333333333333	0	30	0.93125	1	0.744140625
2741.9404296875	0.00833333333333333	0	30	0.93125	1	0.55859375
2744.681640625	0.00833333333333333	0	-30	-7.4	1	0.5693359375
2747.3896484375	0.00833333333333333	0	30	1.05625	1	0.60546875
2750.3818359375	0.00833333333333333	0	30	1.05625	1	0.8212890625
2753.306640625	0.00833333333333333	0	-30	-7.4	1	0.6484375
2756.1064453125	0.00833333333333333	0	30	1.05625	1	0.6572265625
2759.1064453125	0.00833333333333333	0	-30	-7.4	1	0.6484375
2786.138671875	0.00833333333333333	0	-30	-7.4	1	0.6494140625
2789.1142578125	0.00833333333333333	0	30	1.05625	1	0.5458984375
2791.8642578125	0.00833333333333333	0	30	1.05625	1	0.724609375
2794.78125	0.00833333333333333	0	-30	-7.4	1	0.8232421875
2798.1396484375	0.00833333333333333	0	-30	-7.275	1	0.697265625
2801.0810546875	0.00833333333333333	0	30	1.18125	1	0.8671875
2804.3798828125	0.00833333333333333	0	-30	-7.275	1	0.6328125
2807.5146484375	0.00833333333333333	0	-30	-7.275	2	1.482421875
2811.59765625	0.00833333333333333	0	-30	-7.275	1	1.3515625
2815.2724609375	0.00833333333333333	0	-30	-7.275	2	0.908203125
2818.380859375	0.00833333333333333	0	-30	-7.275	2	0.6240234375
2821.197265625	0.00833333333333333	0	30	1.18125	2	0.591796875
2823.8974609375	0.00833333333333333	0	30	1.18125	2	0.7880859375
2826.9140625	0.00833333333333333	0	30	1.18125	2	0.8515625
2829.939453125	0.00833333333333333	0	30	1.18125	1	0.8896484375
2832.9970703125	0.00833333333333333	0	-30	-7.275	1	0.576171875
2836.0224609375	0.00833333333333333	0	30	1.18125	1	0.623046875
2839.0458984375	0.00833333333333333	0	30	1.18125	2	1.2724609375
2842.7802734375	0.00833333333333333	0	30	1.18125	1	0.6015625
2845.6640625	0.00833333333333333	0	30	1.18125	2	0.646484375
2848.7138671875	0.00833333333333333	0	-30	-7.275	2	0.572265625
2851.5966796875	0.00833333333333333	0	-30	-7.275	2	0.5693359375
2854.470703125	0.00833333333333333	0	30	1.18125	2	0.6484375
2857.4970703125	0.00833333333333333	0	-30	-7.275	2	0.4619140625
2860.322265625	0.00833333333333333	0	30	1.18125	2	1.1884765625
2863.98828125	0.00833333333333333	0	30	1.18125	1	0.802734375
2867.23046875	0.00833333333333333	0	30	1.18125	1	0.6484375
2870.462890625	0.00833333333333333	0	30	1.18125	1	0.8564453125
2873.5048828125	0.00833333333333333	0	-30	-7.275	1	0.7255859375
2876.73828125	0.00833333333333333	0	30	1.18125	2	0.9248046875
2880.1044921875	0.00833333333333333	0	30	1.18125	2	0.814453125
2883.263671875	0.00833333333333333	0	-30	-7.275	2	1.255859375
2887.0634765625	0.00833333333333333	0	30	1.18125	1	2.736328125
2891.904296875	0.00833333333333333	0	-30	-7.275	1	0.7041015625
2894.9794921875	0.00833333333333333	0	30	1.18125	2	0.66796875
2898.2216796875	0.00833333333333333	0	-30	-7.275	2	0.6103515625
2901.404296875	0.00833333333333333	0	30	1.18125	2	0.69140625
2904.4365234375	0.00833333333333333	0	-30	-7.275	2	1.2998046875
2907.9365234375	0.00833333333333333	0	30	1.18125	2	1.4873046875
2911.9296875	0.00833333333333333	0	-30	-7.275	1	0.7666015625
2915.029296875	0.00833333333333333	0	30	1.18125	2	0.7392578125
2918.0458984375	0.00833333333333333	0	-30	-7.275	1	0.73828125
2920.8955078125	0.00833333333333333	0	-30	-7.275	1	0.96875
2924.3125	0.00833333333333333	0	-30	-7.275	1	0.7841796875
2927.212890625	0.00833333333333333	0	30	1.18125	2	0.8203125
2930.287109375	0.00833333333333333	0	-30	-7.275	2	0.5693359375
2933.287109375	0.00833333333333333	0	30	1.05625	2	0.833984375
2936.4951171875	0.00833333333333333	0	-30	-7.275	1	1.5859375
2940.2958984375	0.00833333333333333	0	30	1.05625	2	1.09765625
2943.8369140625	0.00833333333333333	0	-30	-7.275	2	0.64453125
2946.595703125	0.00833333333333333	0	-30	-7.275	2	0.59765625
2949.5791015625	0.00833333333333333	0	-30	-7.275	1	0.55859375
2952.63671875	0.00833333333333333	0	-30	-7.275	2	0.009765625
2954.8369140625	0.00833333333333333	0	30	1.05625	2	0.6123046875
2957.8369140625	0.00833333333333333	0	30	1.05625	2	0.5244140625
2960.927734375	0.00833333333333333	0	-30	-7.275	2	1.265625
2964.6455078125	0.00833333333333333	0	-30	-7.275	2	0.748046875
2967.6201171875	0.00833333333333333	0	30	1.05625	1	1.2216796875
2971.369140625	0.00833333333333333	0	-30	-7.275	2	0.8408203125
2974.3701171875	0.00833333333333333	0	30	1.05625	1	1.8564453125
2978.5703125	0.00833333333333333	0	-30	-7.275	1	1.591796875
2982.4033203125	0.00833333333333333	0	30	1.05625	1	1.1435546875
2985.77734375	0.00833333333333333	0	30	1.05625	1	0.7294921875
2989.0771484375	0.00833333333333333	0	-30	-7.275	1	0.6455078125
2992.1689453125	0.00833333333333333	0	-30	-7.275	1	0.658203125
2995.13671875	0.00833333333333333	0	-30	-7.275	1	1.06640625
2998.669921875	0.00833333333333333	0	30	1.05625	1	1.029296875
3001.8779296875	0.00833333333333333	0	30	1.18125	1	0.716796875
3004.9267578125	0.00833333333333333	0	-30	-7.275	1	0.8203125
3008.251953125	0.00833333333333333	0	30	1.18125	2	0.6875
3011.1787109375	0.00833333333333333	0	-30	-7.15	2	0.6171875
3014.0947265625	0.00833333333333333	0	30	1.18125	2	0.693359375
3017.13671875	0.00833333333333333	0	-30	-7.15	1	1.0263671875
3020.8017578125	0.00833333333333333	0	30	1.18125	2	0.681640625
3023.685546875	0.00833333333333333	0	-30	-7.15	1	0.3583984375
3026.361328125	0.00833333333333333	0	30	1.18125	2	0.658203125
3029.2529296875	0.00833333333333333	0	30	1.18125	2	0.5986328125
3032.134765625	0.00833333333333333	0	-30	-7.15	2	0.58984375
3034.9775390625	0.00833333333333333	0	30	1.05625	1	0.5390625
3037.8935546875	0.00833333333333333	0	30	1.05625	2	0.55078125
3073.28515625	0.00833333333333333	0	-30	-7.15	2	4.8408203125
3080.501953125	0.00833333333333333	0	-30	-7.15	1	0.2236328125
3082.9267578125	0.00833333333333333	0	-30	-7.15	2	0.009765625
3085.05078125	0.00833333333333333	0	-30	-7.15	1	0.107421875
3087.326171875	0.00833333333333333	0	-30	-7.15	1	0.009765625
3089.8505859375	0.00833333333333333	0	30	1.05625	1	0.0107421875
3091.8837890625	0.00833333333333333	0	30	1.05625	1	0.0908203125
3094.333984375	0.00833333333333333	0	-30	-7.15	1	0.4716796875
3097.009765625	0.00833333333333333	0	30	1.05625	2	0.2607421875
3099.8271484375	0.00833333333333333	0	-30	-7.15	1	2.107421875
3104.3173828125	0.00833333333333333	0	-30	-7.15	1	0.552734375
3107.16015625	0.00833333333333333	0	-30	-7.025	1	2.390625
3111.8095703125	0.00833333333333333	0	-30	-7.025	1	0.009765625
3113.751953125	0.00833333333333333	0	-30	-7.025	1	0.142578125
3116.326171875	0.00833333333333333	0	-30	-7.025	2	0.072265625
3118.5927734375	0.00833333333333333	0	-30	-7.025	1	0.6220703125
3121.6416015625	0.00833333333333333	0	30	1.05625	2	0.1171875
3124.0166015625	0.00833333333333333	0	-30	-7.025	1	0.20703125
3126.5849609375	0.00833333333333333	0	30	1.05625	2	0.5263671875
3129.283203125	0.00833333333333333	0	30	1.05625	2	1.0205078125
3132.6015625	0.00833333333333333	0	30	1.05625	1	0.8701171875
3135.8427734375	0.00833333333333333	0	30	1.05625	1	0.8125
3138.984375	0.00833333333333333	0	-30	-7.025	1	0.7109375
3142.04296875	0.00833333333333333	0	-30	-7.025	1	0.724609375
3145.201171875	0.00833333333333333	0	30	1.05625	1	0.791015625
3148.4501953125	0.00833333333333333	0	30	1.05625	1	0.6943359375
3151.3427734375	0.00833333333333333	0	30	1.05625	1	0.45703125
3154.1171875	0.00833333333333333	0	-30	-7.025	1	0.203125
3156.767578125	0.00833333333333333	0	30	1.18125	2	0.560546875
3159.5673828125	0.00833333333333333	0	30	1.18125	1	0.1455078125
3161.951171875	0.00833333333333333	0	-30	-6.9	2	0.3056640625
3164.6337890625	0.00833333333333333	0	30	1.18125	1	7.0791015625
3174.1669921875	0.00833333333333333	0	-30	-6.9	1	3.521484375
3180.125	0.00833333333333333	0	-30	-6.9	1	1.2275390625
3183.8837890625	0.00833333333333333	0	30	1.18125	1	1.4208984375
3187.466796875	0.00833333333333333	0	30	1.18125	1	12.55078125
3202.4169921875	0.00833333333333333	0	30	1.18125	1	0.6728515625
3205.466796875	0.00833333333333333	0	-30	-6.9	1	0.775390625
3208.5166015625	0.00833333333333333	0	30	1.30625	2	0.796875
3211.466796875	0.00833333333333333	0	-30	-6.9	1	1.015625
3214.95703125	0.00833333333333333	0	30	1.30625	1	1.2607421875
3218.357421875	0.00833333333333333	0	30	1.30625	2	1.6923828125
3222.2666015625	0.00833333333333333	0	30	1.30625	2	1.2236328125
3225.7333984375	0.00833333333333333	0	30	1.30625	1	1.1015625
3228.9833984375	0.00833333333333333	0	-30	-6.9	1	2.5234375
3233.5830078125	0.00833333333333333	0	30	1.30625	1	1.1796875
3237.3076171875	0.00833333333333333	0	-30	-6.775	1	0.71875
3240.43359375	0.00833333333333333	0	30	1.30625	1	0.697265625
3243.3076171875	0.00833333333333333	0	30	1.30625	1	0.6474609375
3246.2666015625	0.00833333333333333	0	30	1.30625	1	0.568359375
3249.31640625	0.00833333333333333	0	-30	-6.775	1	0.5751953125
3252.0166015625	0.00833333333333333	0	30	1.43125	1	0.7626953125
3254.9658203125	0.00833333333333333	0	30	1.43125	1	0.6611328125
3258.1748046875	0.00833333333333333	0	-30	-6.775	1	1.2763671875
3261.5576171875	0.00833333333333333	0	30	1.43125	1	0.646484375
3264.31640625	0.00833333333333333	0	-30	-6.775	1	0.4951171875
3267.2490234375	0.00833333333333333	0	-30	-6.775	1	0.619140625
3270.33203125	0.00833333333333333	0	-30	-6.65	1	0.6318359375
3273.2412109375	0.00833333333333333	0	30	1.43125	1	0.5947265625
3276.265625	0.00833333333333333	0	-30	-6.65	1	1.6982421875
3280.1240234375	0.00833333333333333	0	-30	-6.65	1	1.2802734375
3283.8828125	0.00833333333333333	0	30	1.43125	1	0.673828125
3286.9736328125	0.00833333333333333	0	30	1.55625	1	0.71875
3289.8818359375	0.00833333333333333	0	-30	-6.65	1	7.283203125
3299.57421875	0.00833333333333333	0	-30	-6.65	2	0.5908203125
3302.3486328125	0.00833333333333333	0	30	1.55625	2	0.728515625
3305.3154296875	0.00833333333333333	0	30	1.55625	2	0.841796875
3308.5654296875	0.00833333333333333	0	30	1.55625	2	0.7998046875
3311.9560546875	0.00833333333333333	0	30	1.55625	2	0.9697265625
3315.189453125	0.00833333333333333	0	-30	-6.65	2	1.103515625
3318.40625	0.00833333333333333	0	-30	-6.65	2	0.7275390625
3321.6904296875	0.00833333333333333	0	-30	-6.65	2	0.875
3325.0478515625	0.00833333333333333	0	30	1.55625	2	1.013671875
3328.439453125	0.00833333333333333	0	-30	-6.65	1	1.0859375
3332.0390625	0.00833333333333333	0	-30	-6.65	1	0.9990234375
3335.439453125	0.00833333333333333	0	30	1.43125	2	0.638671875
3338.5732421875	0.00833333333333333	0	-30	-6.65	2	0.8408203125
3342.0234375	0.00833333333333333	0	-30	-6.65	2	0.71875
3345.1474609375	0.00833333333333333	0	-30	-6.65	2	0.611328125
3347.955078125	0.00833333333333333	0	-30	-6.65	2	0.634765625
3388.4462890625	0.00833333333333333	0	-30	-6.65	1	1.2978515625
3392.2060546875	0.00833333333333333	0	-30	-6.65	1	1.4736328125
3396.1142578125	0.00833333333333333	0	30	1.43125	2	1.2216796875
3399.638671875	0.00833333333333333	0	-30	-6.65	1	0.8017578125
3403.0224609375	0.00833333333333333	0	30	1.43125	1	0.75390625
3406.2470703125	0.00833333333333333	0	-30	-6.65	2	0.720703125
3409.2724609375	0.00833333333333333	0	-30	-6.65	2	0.744140625
3412.2294921875	0.00833333333333333	0	30	1.43125	2	0.8671875
3415.255859375	0.00833333333333333	0	30	1.43125	1	1.3125
3418.7216796875	0.00833333333333333	0	-30	-6.65	2	1.0791015625
3422.2724609375	0.00833333333333333	0	-30	-6.65	1	0.81640625
3425.6220703125	0.00833333333333333	0	-30	-6.65	2	0.626953125
3428.4873046875	0.00833333333333333	0	30	1.43125	1	0.8974609375
3431.6298828125	0.00833333333333333	0	30	1.43125	2	0.9951171875
3434.970703125	0.00833333333333333	0	30	1.43125	2	1.1669921875
3438.61328125	0.00833333333333333	0	-30	-6.65	1	0.7236328125
3441.654296875	0.00833333333333333	0	30	1.43125	2	0.931640625
3444.771484375	0.00833333333333333	0	-30	-6.65	1	0.677734375
3447.9794921875	0.00833333333333333	0	30	1.43125	1	0.7099609375
3450.8798828125	0.00833333333333333	0	30	1.43125	1	0.7138671875
3453.7958984375	0.00833333333333333	0	30	1.43125	1	0.7900390625
3456.853515625	0.00833333333333333	0	30	1.43125	1	0.748046875
3459.853515625	0.00833333333333333	0	-30	-6.65	1	0.6279296875
3462.9619140625	0.00833333333333333	0	-30	-6.65	1	0.919921875
3466.1708984375	0.00833333333333333	0	30	1.43125	1	0.6708984375
3469.12109375	0.00833333333333333	0	30	1.55625	1	0.552734375
3471.9208984375	0.00833333333333333	0	30	1.55625	1	0.705078125
3475.0712890625	0.00833333333333333	0	-30	-6.65	1	0.66796875
3478.2041015625	0.00833333333333333	0	-30	-6.525	1	0.6943359375
3481.271484375	0.00833333333333333	0	30	1.55625	2	0.5869140625
3484.13671875	0.00833333333333333	0	30	1.55625	1	0.689453125
3486.9951171875	0.00833333333333333	0	-30	-6.525	2	0.83984375
3490.1875	0.00833333333333333	0	-30	-6.525	2	0.8232421875
3493.1376953125	0.00833333333333333	0	-30	-6.525	2	0.5615234375
3495.962890625	0.00833333333333333	0	-30	-6.525	2	0.583984375
3498.9111328125	0.00833333333333333	0	30	1.55625	1	0.8525390625
3501.8544921875	0.00833333333333333	0	-30	-6.525	2	0.6044921875
3504.9208984375	0.00833333333333333	0	-30	-6.65	2	0.6181640625
3508.0615234375	0.00833333333333333	0	30	1.55625	2	0.6064453125
3511.1376953125	0.00833333333333333	0	30	1.55625	2	0.5859375
3513.828125	0.00833333333333333	0	-30	-6.65	2	0.5517578125
3516.912109375	0.00833333333333333	0	-30	-6.65	2	0.5634765625
3520.0625	0.00833333333333333	0	30	1.55625	2	0.5654296875
3522.912109375	0.00833333333333333	0	-30	-6.65	2	0.564453125
3525.87109375	0.00833333333333333	0	-30	-6.65	2	0.8447265625
3529.0869140625	0.00833333333333333	0	30	1.55625	2	1.4375
3532.75390625	0.00833333333333333	0	-30	-6.775	2	0.5068359375
3535.5615234375	0.00833333333333333	0	-30	-6.775	2	0.5146484375
3538.5869140625	0.00833333333333333	0	30	1.55625	2	0.666015625
3541.5537109375	0.00833333333333333	0	30	1.43125	2	0.6513671875
3544.470703125	0.00833333333333333	0	-30	-6.775	1	0.8623046875
3547.611328125	0.00833333333333333	0	30	1.43125	1	1.78515625
3551.5947265625	0.00833333333333333	0	30	1.43125	1	1.5302734375
3555.5283203125	0.00833333333333333	0	30	1.43125	1	1.044921875
3559.044921875	0.00833333333333333	0	30	1.43125	1	1.0087890625
3562.4619140625	0.00833333333333333	0	-30	-6.775	2	0.767578125
3565.4365234375	0.00833333333333333	0	30	1.43125	2	0.625
3568.2783203125	0.00833333333333333	0	-30	-6.775	2	0.8798828125
3571.6611328125	0.00833333333333333	0	30	1.43125	2	0.9765625
3574.7451171875	0.00833333333333333	0	30	1.43125	2	0.8759765625
3577.9443359375	0.00833333333333333	0	30	1.43125	1	0.9814453125
3581.0693359375	0.00833333333333333	0	30	1.43125	1	0.9521484375
3584.5947265625	0.00833333333333333	0	-30	-6.775	1	1.099609375
3587.9609375	0.00833333333333333	0	30	1.43125	1	0.6533203125
3590.8525390625	0.00833333333333333	0	-30	-6.775	1	0.7294921875
3593.744140625	0.00833333333333333	0	-30	-6.775	1	0.23046875
3596.1357421875	0.00833333333333333	0	-30	-6.775	2	0.470703125
3598.8115234375	0.00833333333333333	0	-30	-6.775	1	0.7548828125
3602.052734375	0.00833333333333333	0	-30	-6.775	1	0.4501953125
3604.8017578125	0.00833333333333333	0	30	1.43125	1	0.4931640625
3607.7197265625	0.00833333333333333	0	-30	-6.775	1	0.1748046875
3610.2109375	0.00833333333333333	0	30	1.43125	1	0.5322265625
3613.076171875	0.00833333333333333	0	30	1.55625	1	0.2666015625
3615.6025390625	0.00833333333333333	0	30	1.55625	1	3.388671875
3621.302734375	0.00833333333333333	0	30	1.55625	2	1.76171875
3625.2939453125	0.00833333333333333	0	-30	-6.775	1	1.7216796875
3629.3271484375	0.00833333333333333	0	30	1.55625	2	0.9599609375
3632.77734375	0.00833333333333333	0	30	1.55625	1	1.005859375
3636.15234375	0.00833333333333333	0	-30	-6.775	2	1.0078125
3639.2021484375	0.00833333333333333	0	30	1.55625	2	1.0693359375
3676.2431640625	0.00833333333333333	0	-30	-6.775	2	1.326171875
3679.7265625	0.00833333333333333	0	-30	-6.775	2	0.802734375
3682.8935546875	0.00833333333333333	0	-30	-6.775	2	1.01953125
3686.384765625	0.00833333333333333	0	-30	-6.775	2	0.712890625
3689.28515625	0.00833333333333333	0	-30	-6.9	2	0.65234375
3692.1435546875	0.00833333333333333	0	-30	-6.9	2	0.74609375
3695.0263671875	0.00833333333333333	0	-30	-6.9	2	0.6396484375
3698.0849609375	0.00833333333333333	0	-30	-6.9	2	0.701171875
3701.234375	0.00833333333333333	0	30	1.55625	2	0.9755859375
3704.66796875	0.00833333333333333	0	-30	-6.9	2	0.5498046875
3707.384765625	0.00833333333333333	0	30	1.55625	2	0.712890625
3710.2509765625	0.00833333333333333	0	30	1.55625	2	0.5908203125
3713.3173828125	0.00833333333333333	0	-30	-7.025	2	0.9970703125
3716.6923828125	0.00833333333333333	0	-30	-7.025	2	1.0380859375
3720.1181640625	0.00833333333333333	0	30	1.55625	2	0.884765625
3723.5087890625	0.00833333333333333	0	30	1.43125	2	0.7021484375
3726.6171875	0.00833333333333333	0	30	1.43125	2	0.953125
3729.67578125	0.00833333333333333	0	30	1.43125	2	0.8232421875
3732.8759765625	0.00833333333333333	0	30	1.43125	2	0.798828125
3735.7509765625	0.00833333333333333	0	-30	-7.025	2	0.8681640625
3738.8671875	0.00833333333333333	0	-30	-7.025	2	0.65625
3742.05078125	0.00833333333333333	0	30	1.43125	2	0.7685546875
3745.1171875	0.00833333333333333	0	30	1.30625	2	0.669921875
3748.1328125	0.00833333333333333	0	30	1.30625	2	1.2548828125
3751.8505859375	0.00833333333333333	0	-30	-7.025	2	0.79296875
3754.9248046875	0.00833333333333333	0	-30	-7.15	1	0.7265625
3758.150390625	0.00833333333333333	0	-30	-7.15	2	0.9736328125
3761.42578125	0.00833333333333333	0	-30	-7.15	1	0.76171875
3764.5166015625	0.00833333333333333	0	-30	-7.15	1	0.607421875
3767.6494140625	0.00833333333333333	0	30	1.30625	1	0.6826171875
3770.43359375	0.00833333333333333	0	-30	-7.15	1	1.41015625
3773.958984375	0.00833333333333333	0	-30	-7.15	1	0.62109375
3776.7744140625	0.00833333333333333	0	30	1.30625	1	0.525390625
3779.75	0.00833333333333333	0	-30	-7.15	1	0.55078125
3782.8671875	0.00833333333333333	0	-30	-7.025	1	0.552734375
3785.974609375	0.00833333333333333	0	30	1.30625	1	0.7578125
3789.1171875	0.00833333333333333	0	30	1.30625	1	0.0712890625
3791.3837890625	0.00833333333333333	0	30	1.30625	1	1.4453125
3795.048828125	0.00833333333333333	0	-30	-7.025	1	0.5400390625
3798.158203125	0.00833333333333333	0	-30	-7.025	1	0.5830078125
3800.875	0.00833333333333333	0	30	1.43125	1	0.578125
3803.7744140625	0.00833333333333333	0	-30	-7.025	1	0.974609375
3807.06640625	0.00833333333333333	0	30	1.43125	2	0.810546875
3810.0078125	0.00833333333333333	0	-30	-7.025	2	0.6689453125
3813.166015625	0.00833333333333333	0	30	1.43125	1	0.958984375
3816.31640625	0.00833333333333333	0	-30	-7.025	1	0.6171875
3819.224609375	0.00833333333333333	0	30	1.43125	1	0.4765625
3821.81640625	0.00833333333333333	0	30	1.43125	1	0.5654296875
3824.56640625	0.00833333333333333	0	-30	-7.025	1	0.759765625
3827.5166015625	0.00833333333333333	0	-30	-7.025	1	1.6015625
3831.6748046875	0.00833333333333333	0	-30	-7.025	2	0.787109375
3834.6484375	0.00833333333333333	0	-30	-7.025	1	0.357421875
3837.349609375	0.00833333333333333	0	30	1.43125	1	0.2646484375
3839.791015625	0.00833333333333333	0	30	1.43125	1	1.34375
3843.5830078125	0.00833333333333333	0	30	1.55625	1	0.935546875
3846.5654296875	0.00833333333333333	0	30	1.55625	1	0.7451171875
3849.5986328125	0.00833333333333333	0	30	1.55625	1	0.4482421875
3852.6162109375	0.00833333333333333	0	30	1.55625	2	0.23828125
3855.140625	0.00833333333333333	0	-30	-7.025	1	1.6181640625
3858.9990234375	0.00833333333333333	0	30	1.55625	1	1.4716796875
3863.041015625	0.00833333333333333	0	30	1.55625	1	0.3095703125
3865.923828125	0.00833333333333333	0	30	1.55625	1	0.443359375
3868.9658203125	0.00833333333333333	0	-30	-7.025	1	0.2978515625
3871.7822265625	0.00833333333333333	0	-30	-7.025	1	0.0654296875
3874.2236328125	0.00833333333333333	0	30	1.55625	2	2.759765625
3879.08203125	0.00833333333333333	0	-30	-7.025	1	1.25390625
3882.8642578125	0.00833333333333333	0	30	1.55625	1	0.51953125
3885.615234375	0.00833333333333333	0	-30	-6.9	2	0.888671875
3888.8984375	0.00833333333333333	0	30	1.55625	1	1.357421875
3892.681640625	0.00833333333333333	0	-30	-6.9	1	0.7822265625
3895.890625	0.00833333333333333	0	30	1.55625	1	1.2138671875
3899.5068359375	0.00833333333333333	0	30	1.55625	1	0.869140625
3902.4404296875	0.00833333333333333	0	30	1.55625	2	0.775390625
3905.70703125	0.00833333333333333	0	-30	-6.9	2	0.78125
3908.7734375	0.00833333333333333	0	-30	-6.9	1	0.626953125
3911.6318359375	0.00833333333333333	0	-30	-6.9	2	0.5283203125
3914.48046875	0.00833333333333333	0	30	1.55625	2	0.6083984375
3917.6142578125	0.00833333333333333	0	-30	-6.9	1	0.650390625
3920.65625	0.00833333333333333	0	-30	-6.9	1	0.6005859375
3923.439453125	0.00833333333333333	0	-30	-6.9	1	0.5458984375
3958.322265625	0.00833333333333333	0	30	1.55625	1	0.52734375
3961.0390625	0.00833333333333333	0	30	1.55625	2	0.7548828125
3964.23046875	0.00833333333333333	0	30	1.55625	2	0.939453125
3967.5390625	0.00833333333333333	0	-30	-6.9	2	0.8955078125
3970.5810546875	0.00833333333333333	0	-30	-6.9	1	0.8779296875
3973.7724609375	0.00833333333333333	0	-30	-6.9	1	0.6376953125
3976.8798828125	0.00833333333333333	0	30	1.55625	2	0.634765625
3979.947265625	0.00833333333333333	0	-30	-6.9	1	0.439453125
3982.85546875	0.00833333333333333	0	-30	-6.9	1	1.0673828125
3986.0634765625	0.00833333333333333	0	30	1.55625	2	0.8271484375
3989.4306640625	0.00833333333333333	0	-30	-6.9	1	0.564453125
3992.2392578125	0.00833333333333333	0	30	1.55625	2	0.6201171875
3995.080078125	0.00833333333333333	0	30	1.43125	1	0.6357421875
3997.9306640625	0.00833333333333333	0	-30	-6.775	2	0.552734375
4000.73828125	0.00833333333333333	0	30	1.43125	1	0.681640625
4003.513671875	0.00833333333333333	0	30	1.43125	2	0.9697265625
4006.6220703125	0.00833333333333333	0	-30	-6.775	1	0.5498046875
4009.296875	0.00833333333333333	0	30	1.43125	1	1.0185546875
4012.8388671875	0.00833333333333333	0	-30	-6.775	2	0.61328125
4015.8798828125	0.00833333333333333	0	-30	-6.775	2	0.8681640625
4018.8212890625	0.00833333333333333	0	30	1.43125	1	1.310546875
4022.5634765625	0.00833333333333333	0	30	1.43125	1	0.81640625
4025.896484375	0.00833333333333333	0	-30	-6.775	1	1.2119140625
4029.3544921875	0.00833333333333333	0	-30	-6.775	1	1.009765625
4032.4384765625	0.00833333333333333	0	30	1.43125	1	0.93359375
4035.705078125	0.00833333333333333	0	-30	-6.775	1	0.6201171875
4038.462890625	0.00833333333333333	0	-30	-6.775	1	0.5654296875
4041.462890625	0.00833333333333333	0	-30	-6.775	1	0.57421875
4044.1865234375	0.00833333333333333	0	30	1.43125	1	0.970703125
4047.3125	0.00833333333333333	0	30	1.55625	1	1.4365234375
4051.2373046875	0.00833333333333333	0	30	1.55625	1	8.6640625
4062.1044921875	0.00833333333333333	0	30	1.55625	1	1.4052734375
4065.7880859375	0.00833333333333333	0	-30	-6.65	2	2.3134765625
4070.3291015625	0.00833333333333333	0	-30	-6.65	1	0.7568359375
4073.4462890625	0.00833333333333333	0	-30	-6.65	1	0.009765625
4075.5625	0.00833333333333333	0	-30	-6.65	1	1.67578125
4079.74609375	0.00833333333333333	0	-30	-6.65	1	0.8759765625
4082.8125	0.00833333333333333	0	-30	-6.65	1	1.0810546875
4085.927734375	0.00833333333333333	0	30	1.55625	1	0.830078125
4089.0029296875	0.00833333333333333	0	30	1.55625	2	0.69921875
4092.24609375	0.00833333333333333	0	-30	-6.525	1	1.0400390625
4095.728515625	0.00833333333333333	0	-30	-6.525	1	0.6220703125
4098.662109375	0.00833333333333333	0	30	1.55625	1	0.80078125
4101.9287109375	0.00833333333333333	0	30	1.55625	1	0.6142578125
4104.8701171875	0.00833333333333333	0	30	1.55625	1	1.033203125
4108.1357421875	0.00833333333333333	0	30	1.55625	1	0.6875
4111.2783203125	0.00833333333333333	0	-30	-6.525	2	1.064453125
4114.662109375	0.00833333333333333	0	-30	-6.525	2	1.1689453125
4118.0537109375	0.00833333333333333	0	-30	-6.525	2	0.6572265625
4121.0283203125	0.00833333333333333	0	30	1.55625	1	1.1552734375
4124.7197265625	0.00833333333333333	0	30	1.68125	1	0.6640625
4127.7197265625	0.00833333333333333	0	30	1.68125	1	0.8076171875
4130.7353515625	0.00833333333333333	0	-30	-6.525	1	0.6962890625
4133.9697265625	0.00833333333333333	0	30	1.68125	2	0.8935546875
4137.3037109375	0.00833333333333333	0	30	1.68125	2	1.392578125
4140.828125	0.00833333333333333	0	-30	-6.525	2	0.66015625
4143.802734375	0.00833333333333333	0	-30	-6.525	2	0.845703125
4146.9697265625	0.00833333333333333	0	30	1.68125	2	1.111328125
4150.63671875	0.00833333333333333	0	-30	-6.525	2	0.67578125
4153.6767578125	0.00833333333333333	0	-30	-6.525	2	0.6279296875
4156.51953125	0.00833333333333333	0	-30	-6.525	2	0.640625
4159.369140625	0.00833333333333333	0	30	1.68125	2	0.9033203125
4162.453125	0.00833333333333333	0	30	1.68125	2	0.587890625
4165.369140625	0.00833333333333333	0	30	1.55625	2	0.935546875
4168.744140625	0.00833333333333333	0	30	1.55625	1	1.1845703125
4172.3857421875	0.00833333333333333	0	30	1.55625	2	1.263671875
4175.9189453125	0.00833333333333333	0	-30	-6.65	2	0.818359375
4179.0107421875	0.00833333333333333	0	-30	-6.65	2	0.6298828125
4181.7861328125	0.00833333333333333	0	30	1.55625	2	0.3271484375
4184.177734375	0.00833333333333333	0	30	1.55625	2	0.53515625
4187.1767578125	0.00833333333333333	0	-30	-6.65	2	0.3369140625
4189.8857421875	0.00833333333333333	0	-30	-6.65	2	0.33203125
4192.6943359375	0.00833333333333333	0	-30	-6.65	1	0.4189453125
4195.427734375	0.00833333333333333	0	30	1.55625	2	0.3583984375
4198.14453125	0.00833333333333333	0	30	1.55625	2	0.4814453125
4200.951171875	0.00833333333333333	0	30	1.43125	1	1.2666015625
4204.4521484375	0.00833333333333333	0	30	1.43125	2	0.7578125
4207.7939453125	0.00833333333333333	0	30	1.43125	1	0.671875
4210.91015625	0.00833333333333333	0	-30	-6.65	1	0.6689453125
4213.80078125	0.00833333333333333	0	30	1.43125	1	0.6494140625
4251.8935546875	0.00833333333333333	0	30	1.43125	2	1.0380859375
4255.2763671875	0.00833333333333333	0	30	1.43125	1	0.703125
4258.251953125	0.00833333333333333	0	30	1.43125	1	0.80859375
4261.3349609375	0.00833333333333333	0	30	1.43125	1	0.7568359375
4264.28515625	0.00833333333333333	0	30	1.43125	1	0.630859375
4267.0263671875	0.00833333333333333	0	30	1.43125	2	0.75390625
4270.16796875	0.00833333333333333	0	-30	-6.65	1	0.2998046875
4272.943359375	0.00833333333333333	0	30	1.43125	2	0.892578125
4275.9931640625	0.00833333333333333	0	-30	-6.65	2	0.5947265625
4278.8681640625	0.00833333333333333	0	-30	-6.65	1	0.640625
4281.701171875	0.00833333333333333	0	-30	-6.65	2	0.5595703125
4284.759765625	0.00833333333333333	0	-30	-6.65	2	0.525390625
4287.4345703125	0.00833333333333333	0	-30	-6.65	2	0.6015625
4290.1923828125	0.00833333333333333	0	-30	-6.65	2	0.63671875
4293.1171875	0.00833333333333333	0	30	1.43125	1	0.759765625
4296.091796875	0.00833333333333333	0	-30	-6.65	2	0.59375
4299.1259765625	0.00833333333333333	0	30	1.43125	2	0.5673828125
4301.9345703125	0.00833333333333333	0	-30	-6.775	2	0.455078125
4304.525390625	0.00833333333333333	0	-30	-6.775	2	0.9599609375
4307.8671875	0.00833333333333333	0	-30	-6.775	2	0.9140625
4311.17578125	0.00833333333333333	0	-30	-6.775	2	0.509765625
4314.0927734375	0.00833333333333333	0	-30	-6.775	2	0.3212890625
4316.69140625	0.00833333333333333	0	-30	-6.9	2	0.826171875
4319.6337890625	0.00833333333333333	0	30	1.43125	2	0.5556640625
4322.7001953125	0.00833333333333333	0	30	1.43125	2	0.162109375
4325.400390625	0.00833333333333333	0	30	1.43125	2	0.3974609375
4328.392578125	0.00833333333333333	0	-30	-6.9	2	0.6142578125
4331.216796875	0.00833333333333333	0	30	1.43125	2	0.365234375
4333.93359375	0.00833333333333333	0	-30	-6.9	1	1.0009765625
4337.1669921875	0.00833333333333333	0	-30	-6.9	2	0.7509765625
4340.3916015625	0.00833333333333333	0	30	1.30625	1	0.7265625
4343.6416015625	0.00833333333333333	0	30	1.30625	2	0.708984375
4346.7333984375	0.00833333333333333	0	-30	-6.9	2	1.3134765625
4350.341796875	0.00833333333333333	0	30	1.30625	2	0.8486328125
4353.2744140625	0.00833333333333333	0	30	1.30625	2	0.8125
4356.6162109375	0.00833333333333333	0	30	1.30625	2	0.6708984375
4359.5	0.00833333333333333	0	30	1.30625	1	0.970703125
4362.5751953125	0.00833333333333333	0	30	1.30625	2	0.7041015625
4365.8330078125	0.00833333333333333	0	30	1.30625	2	0.6865234375
4368.6669921875	0.00833333333333333	0	-30	-6.9	2	0.5322265625
4371.4833984375	0.00833333333333333	0	-30	-6.9	2	0.63671875
4374.4248046875	0.00833333333333333	0	-30	-6.9	2	0.71875
4377.6494140625	0.00833333333333333	0	-30	-7.025	2	0.7265625
4380.6748046875	0.00833333333333333	0	30	1.30625	2	0.693359375
4383.7080078125	0.00833333333333333	0	30	1.30625	1	0.755859375
4386.7666015625	0.00833333333333333	0	30	1.30625	1	0.681640625
4389.673828125	0.00833333333333333	0	30	1.30625	1	0.9580078125
4393.19921875	0.00833333333333333	0	30	1.30625	2	0.880859375
4396.541015625	0.00833333333333333	0	-30	-7.025	1	0.931640625
4399.599609375	0.00833333333333333	0	30	1.30625	2	0.9208984375
4402.8408203125	0.00833333333333333	0	30	1.30625	1	0.9912109375
4406.123046875	0.00833333333333333	0	-30	-7.025	1	0.6376953125
4408.8994140625	0.00833333333333333	0	-30	-7.025	1	0.4296875
4411.6494140625	0.00833333333333333	0	-30	-7.025	1	0.607421875
4414.4990234375	0.00833333333333333	0	30	1.30625	1	0.5498046875
4417.2822265625	0.00833333333333333	0	-30	-7.025	2	0.3662109375
4420.1162109375	0.00833333333333333	0	30	1.30625	1	0.4130859375
4423.0244140625	0.00833333333333333	0	30	1.30625	2	0.5283203125
4426.140625	0.00833333333333333	0	30	1.30625	2	0.6689453125
4429.0732421875	0.00833333333333333	0	30	1.30625	2	0.7041015625
4432.107421875	0.00833333333333333	0	-30	-7.025	2	0.5654296875
4434.806640625	0.00833333333333333	0	30	1.30625	2	0.5791015625
4437.9326171875	0.00833333333333333	0	30	1.30625	1	1.4130859375
4441.7900390625	0.00833333333333333	0	30	1.30625	2	0.66796875
4445.0068359375	0.00833333333333333	0	-30	-7.025	2	1.5869140625
4449.1572265625	0.00833333333333333	0	-30	-7.025	1	0.556640625
4451.9150390625	0.00833333333333333	0	30	1.30625	2	1.0224609375
4455.2822265625	0.00833333333333333	0	-30	-7.025	1	0.6240234375
4458.0732421875	0.00833333333333333	0	30	1.30625	2	1.0087890625
4461.240234375	0.00833333333333333	0	30	1.30625	1	0.59375
4464.21484375	0.00833333333333333	0	-30	-7.025	2	0.4677734375
4467.1904296875	0.00833333333333333	0	30	1.30625	1	0.68359375
4470.2392578125	0.00833333333333333	0	-30	-7.025	1	1.01953125
4473.806640625	0.00833333333333333	0	-30	-7.025	2	0.68359375
4476.78125	0.00833333333333333	0	30	1.30625	1	0.845703125
4479.96484375	0.00833333333333333	0	-30	-7.025	2	0.57421875
4483.08984375	0.00833333333333333	0	30	1.30625	1	0.6015625
4486.15625	0.00833333333333333	0	-30	-7.025	2	0.5029296875
4489.1484375	0.00833333333333333	0	-30	-7.025	1	0.6064453125
4491.8974609375	0.00833333333333333	0	30	1.30625	1	0.986328125
