onset	duration	titr	surround	centre	response	rt
33.470703125	0.00833333333333333	1	-30	15	2	38.0478515625
73.75390625	0.00833333333333333	1	30	15	2	17.8603515625
94.0869140625	0.00833333333333333	1	30	14	2	4.2236328125
100.3955078125	0.00833333333333333	1	30	13	1	2.38671875
104.837890625	0.00833333333333333	1	30	14	2	1.0166015625
108.0361328125	0.00833333333333333	1	-30	-15	2	15.427734375
125.9609375	0.00833333333333333	1	-30	-16	1	1.5107421875
129.703125	0.00833333333333333	1	NaN	15	1	4.296875
136.40234375	0.00833333333333333	1	30	-15	2	0.990234375
139.77734375	0.00833333333333333	1	30	13	1	13.966796875
156.060546875	0.00833333333333333	1	30	14	1	2.1162109375
160.51953125	0.00833333333333333	1	NaN	16	1	1.4013671875
164.4111328125	0.00833333333333333	1	-30	14	2	13.3095703125
179.91015625	0.00833333333333333	1	-30	13	1	8.763671875
190.9853515625	0.00833333333333333	1	NaN	-15	2	1.0478515625
194.2021484375	0.00833333333333333	1	30	-16	2	4.8876953125
201.484375	0.00833333333333333	1	NaN	17	1	1.0380859375
204.7763671875	0.00833333333333333	1	NaN	-16	2	0.8818359375
207.8505859375	0.00833333333333333	1	NaN	-17	2	1.2314453125
211.3427734375	0.00833333333333333	1	-30	-15	1	1.8115234375
215.501953125	0.00833333333333333	1	-30	14	1	1.4365234375
219.04296875	0.00833333333333333	1	NaN	18	2	69.705078125
290.8251953125	0.00833333333333333	1	NaN	17	2	1.0595703125
294.3505859375	0.00833333333333333	1	NaN	-18	1	0.55859375
297.1669921875	0.00833333333333333	1	-30	15	2	0.517578125
299.8671875	0.00833333333333333	1	NaN	16	2	0.6103515625
302.7998046875	0.00833333333333333	1	30	-17	1	0.884765625
305.94140625	0.00833333333333333	1	30	15	2	3.255859375
311.341796875	0.00833333333333333	1	NaN	-17	1	0.607421875
314.5087890625	0.00833333333333333	1	NaN	15	2	0.5927734375
317.4248046875	0.00833333333333333	1	NaN	14	2	0.5966796875
320.224609375	0.00833333333333333	1	NaN	-16	1	0.548828125
322.966796875	0.00833333333333333	1	-30	14	2	0.599609375
325.966796875	0.00833333333333333	1	NaN	-15	1	0.5673828125
328.9326171875	0.00833333333333333	1	NaN	13	2	0.5927734375
331.7080078125	0.00833333333333333	1	30	-16	1	0.505859375
345.2333984375	0.00833333333333333	1	-30	13	2	0.7724609375
348.541015625	0.00833333333333333	1	30	-15	1	0.666015625
351.2744140625	0.00833333333333333	1	NaN	-14	1	0.6044921875
354.224609375	0.00833333333333333	1	30	-14	1	0.5419921875
357.283203125	0.00833333333333333	1	NaN	12	2	0.53125
360.0234375	0.00833333333333333	1	30	14	2	0.8876953125
363.08203125	0.00833333333333333	1	-30	12	2	0.6845703125
366.2578125	0.00833333333333333	1	30	13	2	0.8369140625
369.607421875	0.00833333333333333	1	NaN	11	2	0.6318359375
372.6240234375	0.00833333333333333	1	NaN	10	2	0.6875
375.8076171875	0.00833333333333333	1	30	-13	1	0.6396484375
378.482421875	0.00833333333333333	1	30	-12	1	0.5810546875
381.2412109375	0.00833333333333333	1	NaN	9	2	0.6298828125
384.3828125	0.00833333333333333	1	30	-11	1	0.369140625
387.1064453125	0.00833333333333333	1	30	12	2	0.548828125
389.9658203125	0.00833333333333333	1	30	11	2	0.75390625
393.232421875	0.00833333333333333	1	30	10	2	0.6318359375
396.3642578125	0.00833333333333333	1	30	-10	1	0.5078125
399.416015625	0.00833333333333333	1	-30	11	2	0.5595703125
402.2158203125	0.00833333333333333	1	-30	-14	1	0.8798828125
405.45703125	0.00833333333333333	1	30	9	2	0.615234375
408.265625	0.00833333333333333	1	30	-9	1	0.5185546875
411.08203125	0.00833333333333333	1	-30	10	2	0.5986328125
413.8408203125	0.00833333333333333	1	NaN	-13	1	0.48828125
416.640625	0.00833333333333333	1	-30	9	2	0.5205078125
419.689453125	0.00833333333333333	1	NaN	8	2	0.8232421875
422.9736328125	0.00833333333333333	1	NaN	-12	1	0.603515625
425.8486328125	0.00833333333333333	1	30	8	2	0.7685546875
428.7314453125	0.00833333333333333	1	30	-8	1	0.5576171875
431.3896484375	0.00833333333333333	1	NaN	7	2	0.6279296875
434.20703125	0.00833333333333333	1	NaN	-11	1	0.6826171875
437.0732421875	0.00833333333333333	1	-30	8	2	0.6484375
440.1064453125	0.00833333333333333	1	NaN	-10	1	0.53515625
442.6650390625	0.00833333333333333	1	NaN	-9	1	0.5361328125
445.5234375	0.00833333333333333	1	30	-7	1	0.4384765625
448.2646484375	0.00833333333333333	1	-30	7	1	0.4013671875
450.998046875	0.00833333333333333	1	NaN	-8	1	0.763671875
454.03125	0.00833333333333333	1	NaN	6	2	0.7548828125
457.2314453125	0.00833333333333333	1	-30	-13	1	0.810546875
460.056640625	0.00833333333333333	1	30	7	2	1.208984375
463.4482421875	0.00833333333333333	1	-30	8	2	0.6982421875
466.689453125	0.00833333333333333	1	NaN	5	2	0.5927734375
469.498046875	0.00833333333333333	1	30	6	2	0.9287109375
472.83984375	0.00833333333333333	1	-30	-12	1	0.73828125
475.8564453125	0.00833333333333333	1	30	5	2	1.2265625
479.5224609375	0.00833333333333333	1	30	-6	1	0.5517578125
482.380859375	0.00833333333333333	1	30	-5	1	0.6142578125
485.3056640625	0.00833333333333333	1	NaN	4	2	0.857421875
488.2548828125	0.00833333333333333	1	-30	7	2	0.7001953125
491.4560546875	0.00833333333333333	1	NaN	-7	1	0.84375
494.7978515625	0.00833333333333333	1	30	-4	1	0.6455078125
497.646484375	0.00833333333333333	1	NaN	3	2	1.2763671875
501.380859375	0.00833333333333333	1	30	4	2	1.89453125
505.7060546875	0.00833333333333333	1	30	3	1	0.8017578125
508.638671875	0.00833333333333333	1	NaN	-6	1	0.6611328125
511.6474609375	0.00833333333333333	1	30	4	1	1.46875
515.23046875	0.00833333333333333	1	30	-3	1	0.6455078125
518.046875	0.00833333333333333	1	NaN	-5	1	0.6533203125
521.0634765625	0.00833333333333333	1	-30	6	2	0.724609375
523.921875	0.00833333333333333	1	30	-2	1	0.6904296875
527.10546875	0.00833333333333333	1	NaN	2	2	0.73046875
530.2470703125	0.00833333333333333	1	NaN	-4	1	0.677734375
533.2880859375	0.00833333333333333	1	30	-1	1	1.8203125
537.6044921875	0.00833333333333333	1	NaN	-3	1	0.7763671875
540.5888671875	0.00833333333333333	1	NaN	-2	1	0.7919921875
543.5966796875	0.00833333333333333	1	NaN	-1	1	0.84765625
546.5546875	0.00833333333333333	1	-30	5	2	1.138671875
550.24609375	0.00833333333333333	1	NaN	0	1	2.6953125
555.205078125	0.00833333333333333	1	-30	-11	1	0.82421875
558.4130859375	0.00833333333333333	1	NaN	1	1	1.671875
562.4794921875	0.00833333333333333	1	-30	-10	1	1.662109375
566.3544921875	0.00833333333333333	1	30	5	1	3.9306640625
572.3212890625	0.00833333333333333	1	30	6	2	1.5400390625
575.9716796875	0.00833333333333333	1	30	0	1	0.76171875
578.8798828125	0.00833333333333333	1	-30	4	2	0.7099609375
581.99609375	0.00833333333333333	1	-30	-9	1	0.9384765625
585.337890625	0.00833333333333333	1	NaN	1	1	1.3720703125
589.220703125	0.00833333333333333	1	30	5	2	0.8740234375
592.24609375	0.00833333333333333	1	NaN	2	2	1.7919921875
596.1875	0.00833333333333333	1	NaN	1	2	1.0830078125
599.5712890625	0.00833333333333333	1	NaN	2	2	0.9873046875
603.0625	0.00833333333333333	1	NaN	0	2	0.80859375
606.1787109375	0.00833333333333333	1	30	4	2	0.892578125
609.3203125	0.00833333333333333	1	NaN	1	2	1.5185546875
613.3544921875	0.00833333333333333	1	-30	3	2	0.9970703125
616.4375	0.00833333333333333	1	NaN	-1	2	2.2255859375
621.1708984375	0.00833333333333333	1	30	3	2	3.908203125
627.294921875	0.00833333333333333	1	NaN	-2	1	0.6328125
630.279296875	0.00833333333333333	1	-30	2	2	0.7119140625
633.1875	0.00833333333333333	1	30	1	1	0.595703125
636.3203125	0.00833333333333333	1	NaN	-1	1	0.6240234375
639.3701171875	0.00833333333333333	1	NaN	0	2	2.109375
643.8291015625	0.00833333333333333	1	30	2	1	0.7392578125
687.71875	0.00833333333333333	1	30	2	1	1.146484375
691.2939453125	0.00833333333333333	1	NaN	-1	1	0.69921875
694.427734375	0.00833333333333333	1	NaN	0	1	2.4697265625
699.0859375	0.00833333333333333	1	-30	-8	1	0.7001953125
701.986328125	0.00833333333333333	1	30	3	1	1.6318359375
706.009765625	0.00833333333333333	1	30	3	1	1.1123046875
709.2607421875	0.00833333333333333	1	30	4	2	1.4931640625
713.1025390625	0.00833333333333333	1	30	4	2	0.6513671875
716.185546875	0.00833333333333333	1	NaN	0	2	1.7529296875
720.501953125	0.00833333333333333	1	NaN	1	2	0.732421875
723.685546875	0.00833333333333333	1	NaN	-1	2	1.869140625
727.9609375	0.00833333333333333	1	-30	1	2	0.6181640625
730.7763671875	0.00833333333333333	1	30	3	2	1.3623046875
734.3427734375	0.00833333333333333	1	-30	-7	1	1.2451171875
737.78515625	0.00833333333333333	1	30	3	2	0.7060546875
740.5927734375	0.00833333333333333	1	NaN	0	2	2.5703125
745.6015625	0.00833333333333333	1	30	2	2	2.09765625
749.8759765625	0.00833333333333333	1	NaN	-1	2	2.6484375
754.693359375	0.00833333333333333	1	NaN	-2	1	0.734375
757.8525390625	0.00833333333333333	1	30	2	1	0.6474609375
760.751953125	0.00833333333333333	1	-30	-6	2	2.5078125
765.6435546875	0.00833333333333333	1	NaN	-1	1	0.7685546875
768.826171875	0.00833333333333333	1	NaN	0	1	2.4501953125
773.560546875	0.00833333333333333	1	-30	0	2	0.6513671875
776.28515625	0.00833333333333333	1	30	3	1	2.751953125
781.2431640625	0.00833333333333333	1	NaN	1	2	0.7529296875
784.41015625	0.00833333333333333	1	NaN	-2	1	0.72265625
787.2509765625	0.00833333333333333	1	NaN	-1	1	1.2421875
790.6181640625	0.00833333333333333	1	30	4	2	1.0908203125
794.251953125	0.00833333333333333	1	NaN	0	1	1.4892578125
797.8349609375	0.00833333333333333	1	30	3	1	0.75390625
801.04296875	0.00833333333333333	1	-30	-1	2	3.40234375
806.8173828125	0.00833333333333333	1	NaN	1	2	1.8125
810.884765625	0.00833333333333333	1	NaN	0	2	1.1767578125
814.2431640625	0.00833333333333333	1	30	4	2	1.154296875
817.5	0.00833333333333333	1	NaN	-1	2	0.8740234375
820.634765625	0.00833333333333333	1	NaN	-2	1	0.71484375
823.4423828125	0.00833333333333333	1	-30	-7	1	1.4599609375
827.1513671875	0.00833333333333333	1	30	3	1	1.88671875
831.29296875	0.00833333333333333	1	-30	-2	2	0.7451171875
834.30078125	0.00833333333333333	1	NaN	-1	2	1.4169921875
837.8583984375	0.00833333333333333	1	-30	-3	2	0.7080078125
840.775390625	0.00833333333333333	1	30	4	2	1.5830078125
844.80859375	0.00833333333333333	1	30	3	2	1.7666015625
848.7177734375	0.00833333333333333	1	30	2	1	1.2490234375
852.1923828125	0.00833333333333333	1	NaN	0	2	3.119140625
857.841796875	0.00833333333333333	1	NaN	-2	1	0.6767578125
860.5419921875	0.00833333333333333	1	30	1	1	0.7607421875
863.767578125	0.00833333333333333	1	30	2	1	0.943359375
866.9091796875	0.00833333333333333	1	30	3	1	2.8818359375
872	0.00833333333333333	1	NaN	-1	1	0.6474609375
875.1005859375	0.00833333333333333	1	-30	-6	1	0.787109375
878.341796875	0.00833333333333333	1	30	3	1	0.72265625
881.533203125	0.00833333333333333	1	-30	-5	1	0.9228515625
885	0.00833333333333333	1	-30	-4	1	1.0166015625
888.1240234375	0.00833333333333333	1	NaN	0	1	0.66796875
891.1748046875	0.00833333333333333	1	-30	-4	1	2.625
895.8251953125	0.00833333333333333	1	30	4	2	0.599609375
898.75	0.00833333333333333	1	-30	-3	2	0.73046875
901.55859375	0.00833333333333333	1	-30	-4	2	0.7216796875
904.43359375	0.00833333333333333	1	-30	-3	2	1.294921875
907.9580078125	0.00833333333333333	1	-30	-5	2	0.9140625
911.033203125	0.00833333333333333	1	30	4	2	1.7841796875
915.2822265625	0.00833333333333333	1	NaN	1	2	0.798828125
918.1083984375	0.00833333333333333	1	-30	-6	1	0.732421875
920.9833984375	0.00833333333333333	1	NaN	0	1	1.5458984375
924.7333984375	0.00833333333333333	1	-30	-4	1	1.275390625
928.3994140625	0.00833333333333333	1	-30	-3	1	1.7861328125
932.2578125	0.00833333333333333	1	-30	-5	1	1.1513671875
935.6826171875	0.00833333333333333	1	NaN	1	1	3.3193359375
941.541015625	0.00833333333333333	1	-30	-4	1	1.9970703125
945.69140625	0.00833333333333333	1	-30	-2	1	1.3583984375
949.1328125	0.00833333333333333	1	-30	-1	1	1.1650390625
952.4912109375	0.00833333333333333	1	-30	0	2	0.8544921875
955.765625	0.00833333333333333	1	-30	-1	2	0.63671875
958.5986328125	0.00833333333333333	1	-30	-2	2	0.611328125
961.7314453125	0.00833333333333333	1	-30	-3	2	3.046875
967.2744140625	0.00833333333333333	1	-30	-3	2	0.7998046875
970.423828125	0.00833333333333333	1	-30	-4	2	0.71484375
973.5576171875	0.00833333333333333	1	-30	-5	2	0.94921875
976.8408203125	0.00833333333333333	1	NaN	2	2	1.8984375
980.94921875	0.00833333333333333	1	-30	-4	2	1.3818359375
984.7900390625	0.00833333333333333	1	-30	-6	2	3.365234375
1025.10546875	0.00833333333333333	1	-30	-5	2	1.7470703125
1029.0810546875	0.00833333333333333	1	-30	-7	2	1.37109375
1032.681640625	0.00833333333333333	1	-30	-8	2	12.8271484375
1047.681640625	0.00833333333333333	1	-30	-9	1	0.8994140625
1050.8720703125	0.00833333333333333	1	-30	-8	1	0.796875
1053.8642578125	0.00833333333333333	1	-30	-6	1	0.7255859375
1056.7890625	0.00833333333333333	1	-30	-7	1	0.7529296875
1059.689453125	0.00833333333333333	1	-30	-6	1	0.572265625
1062.3642578125	0.00833333333333333	1	-30	-5	1	0.9375
1065.5390625	0.00833333333333333	1	-30	-5	1	0.73046875
1068.521484375	0.00833333333333333	1	-30	-4	1	1.1962890625
1072.130859375	0.00833333333333333	1	-30	-3	2	0.890625
1075.1220703125	0.00833333333333333	1	-30	-4	2	0.755859375
1078.2470703125	0.00833333333333333	1	-30	-5	1	1.359375
1081.6884765625	0.00833333333333333	1	-30	-4	2	0.7421875
1084.86328125	0.00833333333333333	1	-30	-3.75	2	0.8232421875
1087.939453125	0.00833333333333333	1	-30	-4.75	2	0.8115234375
1091.0556640625	0.00833333333333333	1	30	3.83333333333333	2	0.6708984375
1094.1796875	0.00833333333333333	1	30	3.70833333333333	1	1.38671875
1097.931640625	0.00833333333333333	1	30	2.83333333333333	1	0.859375
1101.0302734375	0.00833333333333333	1	30	3.83333333333333	1	0.712890625
1104.2890625	0.00833333333333333	1	-30	-3.875	2	0.5419921875
1106.9638671875	0.00833333333333333	1	30	3.95833333333333	2	2.2353515625
1111.3046875	0.00833333333333333	1	-30	-4.875	1	0.7744140625
1114.4052734375	0.00833333333333333	1	-30	-4.75	1	2.0419921875
1118.6298828125	0.00833333333333333	1	NaN	0.166666666666667	2	2.361328125
1123.1884765625	0.00833333333333333	1	-30	-4	2	0.970703125
1126.5634765625	0.00833333333333333	1	-30	-4.125	2	1.64453125
1130.296875	0.00833333333333333	1	NaN	0.0416666666666666	1	3.134765625
1135.712890625	0.00833333333333333	1	NaN	0.166666666666667	2	0.775390625
1138.6875	0.00833333333333333	1	NaN	0.0416666666666666	2	0.6962890625
1141.6796875	0.00833333333333333	1	30	2.95833333333333	2	1.048828125
1144.837890625	0.00833333333333333	1	NaN	-0.833333333333333	2	0.7626953125
1147.796875	0.00833333333333333	1	30	2.83333333333333	1	0.8359375
1150.6630859375	0.00833333333333333	1	NaN	-0.0833333333333334	2	0.7451171875
1153.794921875	0.00833333333333333	1	-30	-4.25	2	1.1572265625
1157.4296875	0.00833333333333333	1	30	2.95833333333333	1	0.7548828125
1160.3125	0.00833333333333333	1	-30	-4.375	2	2.072265625
1164.8125	0.00833333333333333	1	NaN	-0.208333333333333	1	0.7412109375
1167.9873046875	0.00833333333333333	1	NaN	-0.958333333333333	1	0.830078125
1171.220703125	0.00833333333333333	1	30	3.83333333333333	1	0.66015625
1174.12109375	0.00833333333333333	1	-30	-4.625	1	0.8642578125
1177.521484375	0.00833333333333333	1	-30	-4.5	2	0.82421875
1180.8955078125	0.00833333333333333	1	-30	-4.625	1	0.9619140625
1184.337890625	0.00833333333333333	1	NaN	-0.833333333333333	1	0.6474609375
1187.12109375	0.00833333333333333	1	-30	-4.5	2	0.7607421875
1190.2041015625	0.00833333333333333	1	-30	-4.625	2	0.7333984375
1193.287109375	0.00833333333333333	1	30	3.08333333333333	1	0.7783203125
1196.5869140625	0.00833333333333333	1	30	3.20833333333333	1	1.5107421875
1200.1953125	0.00833333333333333	1	30	3.33333333333333	1	0.8544921875
1203.51953125	0.00833333333333333	1	30	3.95833333333333	1	1.05859375
1206.662109375	0.00833333333333333	1	30	4.08333333333333	1	0.66015625
1209.6455078125	0.00833333333333333	1	NaN	-0.708333333333333	1	3.365234375
1215.0703125	0.00833333333333333	1	NaN	-0.583333333333333	1	0.908203125
1218.287109375	0.00833333333333333	1	NaN	-0.458333333333333	2	2.01953125
1222.486328125	0.00833333333333333	1	NaN	-0.583333333333333	1	1.8447265625
1226.8369140625	0.00833333333333333	1	-30	-4.5	1	2.0537109375
1231.3623046875	0.00833333333333333	1	NaN	-0.0833333333333334	1	1.2890625
1234.794921875	0.00833333333333333	1	-30	-4.375	1	0.82421875
1238.09375	0.00833333333333333	1	-30	-4.75	1	3.357421875
1243.5703125	0.00833333333333333	1	30	4.20833333333333	1	0.8486328125
1246.8037109375	0.00833333333333333	1	NaN	-0.458333333333333	1	1.103515625
1250.0703125	0.00833333333333333	1	NaN	-0.333333333333333	1	1.205078125
1253.486328125	0.00833333333333333	1	NaN	0.0416666666666666	2	0.93359375
1256.76171875	0.00833333333333333	1	-30	-4.25	2	1.298828125
1260.478515625	0.00833333333333333	1	-30	-4.625	2	1.6298828125
1264.244140625	0.00833333333333333	1	30	3.45833333333333	1	4.240234375
1270.794921875	0.00833333333333333	1	30	4.33333333333333	1	1.9853515625
1275.01171875	0.00833333333333333	1	-30	-4.75	1	1.640625
1279.1611328125	0.00833333333333333	1	-30	-4.375	1	4.7314453125
1286.236328125	0.00833333333333333	1	30	3.58333333333333	1	4.953125
1293.4365234375	0.00833333333333333	1	NaN	-0.0833333333333334	1	0.912109375
1296.39453125	0.00833333333333333	1	NaN	0.0416666666666666	2	1.21875
1299.89453125	0.00833333333333333	1	30	4.45833333333333	1	3.6474609375
1305.677734375	0.00833333333333333	1	30	4.58333333333333	1	0.84765625
1308.7275390625	0.00833333333333333	1	30	4.70833333333333	2	3.0458984375
1314.21875	0.00833333333333333	1	-30	-4.625	2	0.962890625
1317.310546875	0.00833333333333333	1	30	4.58333333333333	2	0.6552734375
1320.244140625	0.00833333333333333	1	-30	-4.75	2	0.6826171875
1323.1181640625	0.00833333333333333	1	30	4.45833333333333	2	0.6162109375
1351.7099609375	0.00833333333333333	1	30	3.70833333333333	2	60.794921875
1414.6005859375	0.00833333333333333	1	30	4.33333333333333	1	0.9921875
1417.900390625	0.00833333333333333	1	30	3.58333333333333	1	0.708984375
1420.93359375	0.00833333333333333	1	NaN	-0.208333333333333	1	0.763671875
1424.017578125	0.00833333333333333	1	-30	-4.25	1	2.19140625
1428.7509765625	0.00833333333333333	1	-30	-4.125	1	1.8505859375
1432.8759765625	0.00833333333333333	1	-30	-4	1	1.3662109375
1436.5341796875	0.00833333333333333	1	NaN	-0.0833333333333334	1	3.076171875
1442.0751953125	0.00833333333333333	1	30	4.45833333333333	1	0.6708984375
1445.07421875	0.00833333333333333	1	NaN	-0.0833333333333334	1	0.912109375
1448.1171875	0.00833333333333333	1	30	3.70833333333333	1	0.64453125
1451.2666015625	0.00833333333333333	1	30	4.58333333333333	1	0.783203125
1454.216796875	0.00833333333333333	1	-30	-3.875	1	0.697265625
1457.1171875	0.00833333333333333	1	30	4.70833333333333	2	0.8134765625
1460.05859375	0.00833333333333333	1	30	4.58333333333333	2	2.080078125
1464.2744140625	0.00833333333333333	1	NaN	0.0416666666666666	2	0.65625
1467.216796875	0.00833333333333333	1	30	4.45833333333333	2	0.681640625
1470.0419921875	0.00833333333333333	1	NaN	0.0416666666666666	1	2.7763671875
1475.341796875	0.00833333333333333	1	NaN	-0.0833333333333334	1	0.9892578125
1478.6416015625	0.00833333333333333	1	-30	-4.875	1	0.7294921875
1481.6748046875	0.00833333333333333	1	-30	-3.75	1	0.751953125
1484.533203125	0.00833333333333333	1	-30	-3.625	1	0.5986328125
1487.2578125	0.00833333333333333	1	30	3.83333333333333	1	0.7294921875
1490.43359375	0.00833333333333333	1	NaN	0.0416666666666666	1	0.9775390625
1493.791015625	0.00833333333333333	1	30	4.33333333333333	1	1.0048828125
1496.9248046875	0.00833333333333333	1	NaN	0.166666666666667	1	0.7431640625
1499.75	0.00833333333333333	1	NaN	0.291666666666667	2	0.9736328125
1503.2568359375	0.00833333333333333	1	-30	-4.75	1	1.443359375
1507.07421875	0.00833333333333333	1	NaN	0.166666666666667	1	1.169921875
1510.658203125	0.00833333333333333	1	NaN	0.291666666666667	2	0.5859375
1513.4814453125	0.00833333333333333	1	30	3.95833333333333	1	0.978515625
1516.9072265625	0.00833333333333333	1	-30	-4.625	1	1.017578125
1520.4248046875	0.00833333333333333	1	30	4.08333333333333	1	2.435546875
1525.224609375	0.00833333333333333	1	30	4.45833333333333	2	1.34765625
1528.732421875	0.00833333333333333	1	-30	-4.5	2	0.7197265625
1531.7412109375	0.00833333333333333	1	-30	-4.625	2	0.896484375
1535.0068359375	0.00833333333333333	1	-30	-4.75	1	0.814453125
1538.298828125	0.00833333333333333	1	30	4.20833333333333	1	3.1142578125
1543.732421875	0.00833333333333333	1	-30	-4.625	2	0.8642578125
1546.7490234375	0.00833333333333333	1	30	4.33333333333333	1	1.232421875
1550.3408203125	0.00833333333333333	1	30	4.33333333333333	1	0.728515625
1553.5908203125	0.00833333333333333	1	30	4.45833333333333	2	0.6865234375
1556.416015625	0.00833333333333333	1	NaN	0.166666666666667	2	7.7021484375
1566.732421875	0.00833333333333333	1	NaN	0.166666666666667	2	0.6416015625
1569.6650390625	0.00833333333333333	1	-30	-3.5	2	0.8046875
1572.732421875	0.00833333333333333	1	-30	-3.625	2	2.1455078125
1576.9736328125	0.00833333333333333	1	30	4.33333333333333	2	1.2646484375
1580.556640625	0.00833333333333333	1	-30	-4.75	2	1.7373046875
1584.8232421875	0.00833333333333333	1	-30	-4.875	1	1.7431640625
1588.83203125	0.00833333333333333	1	-30	-4.75	2	1.158203125
1592.5400390625	0.00833333333333333	1	30	4.45833333333333	1	2.314453125
1597.0478515625	0.00833333333333333	1	NaN	0.0416666666666666	1	0.71875
1600.123046875	0.00833333333333333	1	NaN	0.166666666666667	2	0.828125
1603.4736328125	0.00833333333333333	1	-30	-3.75	2	0.5810546875
1606.6064453125	0.00833333333333333	1	NaN	0.0416666666666666	2	0.560546875
1609.4306640625	0.00833333333333333	1	30	4.20833333333333	1	0.82421875
1612.6396484375	0.00833333333333333	1	30	4.33333333333333	1	0.919921875
1615.806640625	0.00833333333333333	1	30	4.58333333333333	2	1.296875
1619.498046875	0.00833333333333333	1	-30	-3.875	2	2.1171875
1624.1298828125	0.00833333333333333	1	NaN	-0.0833333333333334	2	0.7177734375
1627.08984375	0.00833333333333333	1	-30	-4	2	0.669921875
1630.03125	0.00833333333333333	1	30	4.45833333333333	1	1.400390625
1633.6728515625	0.00833333333333333	1	NaN	0.0416666666666666	2	1.18359375
1637.1474609375	0.00833333333333333	1	30	4.45833333333333	2	0.7490234375
1640.2890625	0.00833333333333333	1	30	4.58333333333333	2	2.103515625
1644.888671875	0.00833333333333333	1	-30	-4.875	1	0.6796875
1647.8564453125	0.00833333333333333	1	NaN	-0.208333333333333	2	1.2412109375
1651.40625	0.00833333333333333	1	-30	-4.75	1	0.6826171875
1686.5048828125	0.00833333333333333	1	30	4.45833333333333	1	2.11328125
1690.9638671875	0.00833333333333333	1	30	4.58333333333333	1	0.7744140625
1693.8212890625	0.00833333333333333	1	30	4.70833333333333	1	0.8046875
1696.8056640625	0.00833333333333333	1	-30	-4.125	1	0.9970703125
1700.3798828125	0.00833333333333333	1	NaN	-0.333333333333333	1	0.669921875
1703.404296875	0.00833333333333333	1	30	4.83333333333333	1	0.7978515625
1706.388671875	0.00833333333333333	1	30	4.33333333333333	1	0.8134765625
1709.3720703125	0.00833333333333333	1	NaN	-0.0833333333333334	1	0.6142578125
1712.4462890625	0.00833333333333333	1	30	4.45833333333333	1	0.6767578125
1715.1796875	0.00833333333333333	1	-30	-4	1	3.51953125
1720.921875	0.00833333333333333	1	NaN	0.0416666666666666	2	1.552734375
1724.6298828125	0.00833333333333333	1	30	4.58333333333333	1	3.021484375
1730.021484375	0.00833333333333333	1	NaN	-0.0833333333333334	2	1.005859375
1733.4296875	0.00833333333333333	1	-30	-3.875	2	1.2861328125
1737.2958984375	0.00833333333333333	1	-30	-4.625	2	0.84375
1740.470703125	0.00833333333333333	1	30	4.95833333333333	2	0.9169921875
1743.7626953125	0.00833333333333333	1	-30	-4.75	2	0.77734375
1746.8876953125	0.00833333333333333	1	NaN	-0.208333333333333	2	2.8046875
1751.9462890625	0.00833333333333333	1	-30	-4.875	2	2.6416015625
1756.99609375	0.00833333333333333	1	NaN	-0.333333333333333	1	0.5361328125
1759.8955078125	0.00833333333333333	1	30	4.83333333333333	1	1.1884765625
1763.1865234375	0.00833333333333333	1	-30	-5	1	0.7373046875
1766.37109375	0.00833333333333333	1	30	4.95833333333333	2	0.849609375
1769.7041015625	0.00833333333333333	1	NaN	-0.208333333333333	1	0.9638671875
1772.75390625	0.00833333333333333	1	30	4.70833333333333	1	1.4111328125
1776.4375	0.00833333333333333	1	NaN	-0.208333333333333	1	0.6474609375
1779.6044921875	0.00833333333333333	1	30	4.83333333333333	2	0.7041015625
1782.8203125	0.00833333333333333	1	NaN	-0.0833333333333334	1	0.720703125
1785.853515625	0.00833333333333333	1	NaN	0.0416666666666666	1	1.4638671875
1789.62890625	0.00833333333333333	1	NaN	-0.0833333333333334	1	0.81640625
1792.861328125	0.00833333333333333	1	30	4.83333333333333	1	0.671875
1795.7705078125	0.00833333333333333	1	NaN	0.166666666666667	2	1.36328125
1799.75390625	0.00833333333333333	1	-30	-4	2	0.7158203125
1802.787109375	0.00833333333333333	1	NaN	0.0416666666666666	1	0.7060546875
1805.720703125	0.00833333333333333	1	NaN	0.166666666666667	1	0.96484375
1809.0869140625	0.00833333333333333	1	30	4.95833333333333	1	0.5830078125
1811.9033203125	0.00833333333333333	1	30	5.08333333333333	1	1.1669921875
1815.544921875	0.00833333333333333	1	30	5.20833333333333	1	0.6611328125
1818.4453125	0.00833333333333333	1	30	5.33333333333333	1	0.720703125
1821.6455078125	0.00833333333333333	1	NaN	0.291666666666667	1	1.033203125
1825.2119140625	0.00833333333333333	1	30	5.45833333333333	1	0.37890625
1827.76953125	0.00833333333333333	1	-30	-4.125	1	0.6845703125
1830.828125	0.00833333333333333	1	30	5.58333333333333	2	0.9462890625
1834.228515625	0.00833333333333333	1	NaN	0.0416666666666666	2	0.90625
1837.453125	0.00833333333333333	1	-30	-4	1	0.8896484375
1840.63671875	0.00833333333333333	1	30	4.70833333333333	1	1.7060546875
1844.6279296875	0.00833333333333333	1	30	5.45833333333333	2	1.107421875
1848.236328125	0.00833333333333333	1	-30	-3.875	1	1.6025390625
1852.2861328125	0.00833333333333333	1	30	5.33333333333333	1	0.80078125
1855.4853515625	0.00833333333333333	1	NaN	0.416666666666667	1	0.8017578125
1858.302734375	0.00833333333333333	1	NaN	0.541666666666667	2	1.224609375
1862.0693359375	0.00833333333333333	1	-30	-3.75	1	0.841796875
1865.3193359375	0.00833333333333333	1	NaN	0.416666666666667	1	0.7685546875
1868.51953125	0.00833333333333333	1	-30	-3.625	1	0.9677734375
1871.736328125	0.00833333333333333	1	-30	-3.5	2	1.447265625
1875.3857421875	0.00833333333333333	1	-30	-3.625	2	0.56640625
1878.1181640625	0.00833333333333333	1	NaN	-0.0833333333333334	1	0.833984375
1881.501953125	0.00833333333333333	1	-30	-3.75	1	0.9306640625
1884.810546875	0.00833333333333333	1	30	5.45833333333333	1	2.4619140625
1889.8525390625	0.00833333333333333	1	30	5.58333333333333	2	1.35546875
1893.77734375	0.00833333333333333	1	NaN	0.0416666666666666	1	0.7431640625
1896.89453125	0.00833333333333333	1	NaN	0.166666666666667	1	0.6259765625
1899.6767578125	0.00833333333333333	1	-30	-3.625	2	0.8115234375
1902.6025390625	0.00833333333333333	1	NaN	0.291666666666667	1	0.7421875
1905.7021484375	0.00833333333333333	1	-30	-3.75	1	0.6904296875
1908.6025390625	0.00833333333333333	1	-30	-3.625	1	0.6552734375
1911.46875	0.00833333333333333	1	-30	-3.5	1	0.5888671875
1914.2021484375	0.00833333333333333	1	NaN	0.416666666666667	2	1.6552734375
1918.126953125	0.00833333333333333	1	-30	-3.375	1	0.666015625
1920.943359375	0.00833333333333333	1	-30	-3.25	1	1.6416015625
1924.8271484375	0.00833333333333333	1	-30	-3.125	2	0.7978515625
1928.03515625	0.00833333333333333	1	-30	-3.25	2	0.630859375
1930.96875	0.00833333333333333	1	-30	-3.375	2	1.80078125
1935.2421875	0.00833333333333333	1	-30	-3.5	2	3.935546875
1941.3935546875	0.00833333333333333	1	-30	-3.625	2	1.208984375
1944.8017578125	0.00833333333333333	1	NaN	0.291666666666667	2	0.8408203125
1947.818359375	0.00833333333333333	1	NaN	0.166666666666667	2	1.1201171875
1951.1181640625	0.00833333333333333	1	NaN	0.0416666666666666	2	4.3564453125
1958.083984375	0.00833333333333333	1	NaN	-0.0833333333333334	1	0.798828125
1961.29296875	0.00833333333333333	1	NaN	0.0416666666666666	1	1.1181640625
1964.6005859375	0.00833333333333333	1	-30	-3.75	2	2.8583984375
1969.79296875	0.00833333333333333	1	NaN	0.166666666666667	1	0.9384765625
1972.8837890625	0.00833333333333333	1	NaN	0.291666666666667	1	0.775390625
1976.076171875	0.00833333333333333	1	NaN	0.416666666666667	1	4.6708984375
1983.1845703125	0.00833333333333333	1	NaN	0.541666666666667	1	1.970703125
2028.908203125	0.00833333333333333	1	-30	-3.875	1	1.232421875
2032.3662109375	0.00833333333333333	1	NaN	0.666666666666667	2	0.53515625
2035.2666015625	0.00833333333333333	1	NaN	0.541666666666667	2	0.7705078125
2038.333984375	0.00833333333333333	1	-30	-3.75	2	0.8232421875
2041.583984375	0.00833333333333333	1	NaN	0.416666666666667	1	0.765625
2044.650390625	0.00833333333333333	1	-30	-3.875	2	0.779296875
2047.6240234375	0.00833333333333333	1	-30	-4	2	0.6533203125
2050.5654296875	0.00833333333333333	1	-30	-4.125	2	0.9443359375
2053.783203125	0.00833333333333333	1	-30	-4.25	1	2.7900390625
2058.80859375	0.00833333333333333	0	30	4.72083333333333	2	0.7734375
2062.18359375	0.00833333333333333	0	30	4.72083333333333	2	1.5107421875
2066.232421875	0.00833333333333333	0	30	4.72083333333333	2	2.2138671875
2070.791015625	0.00833333333333333	0	30	4.72083333333333	2	0.6552734375
2073.9755859375	0.00833333333333333	0	30	4.72083333333333	1	0.638671875
2076.8330078125	0.00833333333333333	0	30	4.72083333333333	1	0.7890625
2079.716796875	0.00833333333333333	0	-30	-4.25625	1	0.658203125
2082.81640625	0.00833333333333333	0	30	4.72083333333333	1	1.7822265625
2087.07421875	0.00833333333333333	0	-30	-4.25625	1	0.7890625
2090.0732421875	0.00833333333333333	0	30	4.72083333333333	1	1.3017578125
2093.46484375	0.00833333333333333	0	-30	-4.25625	2	1.005859375
2096.9990234375	0.00833333333333333	0	30	4.72083333333333	1	0.9921875
2100.1982421875	0.00833333333333333	0	-30	-4.25625	2	1.193359375
2103.5830078125	0.00833333333333333	0	-30	-4.25625	2	0.80078125
2106.9248046875	0.00833333333333333	0	-30	-4.25625	1	0.8662109375
2109.94921875	0.00833333333333333	0	-30	-4.25625	1	1.0341796875
2113.2158203125	0.00833333333333333	0	30	4.84583333333333	1	0.9599609375
2116.6240234375	0.00833333333333333	0	-30	-4.25625	2	0.6953125
2119.423828125	0.00833333333333333	0	-30	-4.25625	2	0.8798828125
2122.4326171875	0.00833333333333333	0	-30	-4.25625	2	0.6640625
2125.5576171875	0.00833333333333333	0	-30	-4.25625	2	0.5703125
2128.556640625	0.00833333333333333	0	30	4.84583333333333	2	1.203125
2132.1572265625	0.00833333333333333	0	-30	-4.25625	1	0.7470703125
2135.048828125	0.00833333333333333	0	30	4.84583333333333	2	0.9033203125
2138.45703125	0.00833333333333333	0	30	4.84583333333333	1	0.767578125
2141.33984375	0.00833333333333333	0	30	4.84583333333333	2	0.64453125
2144.3232421875	0.00833333333333333	0	-30	-4.25625	2	0.94921875
2147.814453125	0.00833333333333333	0	30	4.84583333333333	1	0.6982421875
2150.982421875	0.00833333333333333	0	30	4.84583333333333	1	0.73828125
2153.8232421875	0.00833333333333333	0	-30	-4.25625	1	0.673828125
2156.7822265625	0.00833333333333333	0	-30	-4.25625	2	0.642578125
2159.7900390625	0.00833333333333333	0	-30	-4.25625	1	0.8037109375
2163.0146484375	0.00833333333333333	0	-30	-4.25625	1	0.9150390625
2166.3974609375	0.00833333333333333	0	-30	-4.25625	1	0.8759765625
2169.78125	0.00833333333333333	0	-30	-4.25625	1	0.84375
2172.998046875	0.00833333333333333	0	-30	-4.25625	1	0.755859375
2175.96484375	0.00833333333333333	0	30	4.84583333333333	1	0.693359375
2179.1982421875	0.00833333333333333	0	-30	-4.13125	2	0.7236328125
2182.2978515625	0.00833333333333333	0	30	4.84583333333333	2	0.8154296875
2185.34765625	0.00833333333333333	0	30	4.84583333333333	2	1.0458984375
2188.84765625	0.00833333333333333	0	30	4.84583333333333	2	0.7060546875
2192.09765625	0.00833333333333333	0	30	4.84583333333333	2	0.80078125
2195.0478515625	0.00833333333333333	0	-30	-4.13125	1	0.642578125
2198.1982421875	0.00833333333333333	0	30	4.84583333333333	1	0.67578125
2200.97265625	0.00833333333333333	0	30	4.84583333333333	1	0.7099609375
2203.8896484375	0.00833333333333333	0	30	4.84583333333333	1	0.728515625
2206.8642578125	0.00833333333333333	0	30	4.84583333333333	1	1.4501953125
2210.7060546875	0.00833333333333333	0	30	4.84583333333333	1	0.65625
2213.748046875	0.00833333333333333	0	-30	-4.13125	2	2.87890625
2218.7724609375	0.00833333333333333	0	-30	-4.13125	1	2.3271484375
2223.6142578125	0.00833333333333333	0	30	4.97083333333333	1	1.8447265625
2227.5810546875	0.00833333333333333	0	30	4.97083333333333	1	0.7265625
2230.521484375	0.00833333333333333	0	-30	-4.13125	1	0.8095703125
2233.4560546875	0.00833333333333333	0	-30	-4.13125	1	3.0751953125
2238.830078125	0.00833333333333333	0	30	4.97083333333333	2	0.61328125
2241.5966796875	0.00833333333333333	0	30	4.97083333333333	2	0.6953125
2244.5546875	0.00833333333333333	0	-30	-4.13125	2	0.8974609375
2247.6806640625	0.00833333333333333	0	-30	-4.13125	2	0.619140625
2250.388671875	0.00833333333333333	0	30	4.97083333333333	2	1.087890625
2253.8798828125	0.00833333333333333	0	30	4.97083333333333	1	1.97265625
2258.35546875	0.00833333333333333	0	30	4.97083333333333	2	0.865234375
2261.7802734375	0.00833333333333333	0	-30	-4.13125	2	1.7685546875
2265.7880859375	0.00833333333333333	0	30	4.97083333333333	1	0.720703125
2268.697265625	0.00833333333333333	0	30	4.97083333333333	2	0.5712890625
2271.455078125	0.00833333333333333	0	-30	-4.13125	2	1.58984375
2275.1708984375	0.00833333333333333	0	-30	-4.13125	2	0.6982421875
2278.080078125	0.00833333333333333	0	-30	-4.25625	2	0.533203125
2280.9462890625	0.00833333333333333	0	-30	-4.25625	2	0.6748046875
2284.1123046875	0.00833333333333333	0	30	4.97083333333333	2	1.0283203125
2287.6962890625	0.00833333333333333	0	30	4.97083333333333	1	1.365234375
2291.587890625	0.00833333333333333	0	30	4.97083333333333	2	0.865234375
2295.0048828125	0.00833333333333333	0	-30	-4.25625	1	1.9365234375
2299.412109375	0.00833333333333333	0	30	4.97083333333333	2	1.953125
2303.6044921875	0.00833333333333333	0	-30	-4.25625	1	1.353515625
2307.2294921875	0.00833333333333333	0	30	4.97083333333333	1	0.80859375
2310.5126953125	0.00833333333333333	0	30	4.97083333333333	1	0.78125
2313.6708984375	0.00833333333333333	0	-30	-4.25625	1	0.966796875
2317.0458984375	0.00833333333333333	0	30	4.97083333333333	1	0.9521484375
2320.521484375	0.00833333333333333	0	30	4.97083333333333	1	0.8525390625
2323.6298828125	0.00833333333333333	0	-30	-4.25625	2	0.7041015625
2404.5615234375	0.00833333333333333	0	30	4.97083333333333	1	1.7119140625
2408.6279296875	0.00833333333333333	0	30	5.09583333333333	2	1.044921875
2412.01171875	0.00833333333333333	0	-30	-4.25625	1	0.60546875
2414.8701171875	0.00833333333333333	0	-30	-4.25625	1	0.6669921875
2418.0029296875	0.00833333333333333	0	30	5.09583333333333	1	0.654296875
2420.7783203125	0.00833333333333333	0	30	5.09583333333333	1	0.5751953125
2423.7529296875	0.00833333333333333	0	-30	-4.25625	1	0.5849609375
2426.6943359375	0.00833333333333333	0	30	5.09583333333333	1	1.69921875
2430.453125	0.00833333333333333	0	-30	-4.25625	1	0.6044921875
2433.1279296875	0.00833333333333333	0	30	5.09583333333333	1	0.6982421875
2436.0693359375	0.00833333333333333	0	-30	-4.25625	1	0.8525390625
2439.1015625	0.00833333333333333	0	30	5.09583333333333	1	1.404296875
2442.9033203125	0.00833333333333333	0	30	5.22083333333333	2	0.69921875
2445.6611328125	0.00833333333333333	0	-30	-4.13125	1	1.125
2449.310546875	0.00833333333333333	0	30	5.22083333333333	2	2.6123046875
2454.236328125	0.00833333333333333	0	30	5.22083333333333	2	1.2939453125
2457.810546875	0.00833333333333333	0	30	5.22083333333333	1	2
2462.3525390625	0.00833333333333333	0	-30	-4.13125	1	2.474609375
2467.3857421875	0.00833333333333333	0	30	5.22083333333333	1	2.0810546875
2471.943359375	0.00833333333333333	0	-30	-4.13125	1	1.4921875
2475.802734375	0.00833333333333333	0	-30	-4.13125	1	1.1123046875
2479.46875	0.00833333333333333	0	-30	-4.13125	1	0.798828125
2482.501953125	0.00833333333333333	0	-30	-4.00625	1	3.3095703125
2488.1767578125	0.00833333333333333	0	30	5.22083333333333	1	0.6826171875
2491.244140625	0.00833333333333333	0	-30	-4.00625	1	1.3525390625
2494.9853515625	0.00833333333333333	0	-30	-4.00625	1	1.578125
2498.892578125	0.00833333333333333	0	-30	-4.00625	2	1.4150390625
2502.59375	0.00833333333333333	0	30	5.22083333333333	2	2.4423828125
2507.59375	0.00833333333333333	0	-30	-4.00625	2	0.962890625
2510.7265625	0.00833333333333333	0	30	5.22083333333333	2	1.2138671875
2514.5517578125	0.00833333333333333	0	30	5.22083333333333	1	1.6611328125
2518.41015625	0.00833333333333333	0	30	5.22083333333333	2	0.74609375
2521.5751953125	0.00833333333333333	0	30	5.22083333333333	2	1.3330078125
2525.451171875	0.00833333333333333	0	30	5.22083333333333	2	0.8974609375
2528.7177734375	0.00833333333333333	0	30	5.22083333333333	1	0.6787109375
2531.91796875	0.00833333333333333	0	-30	-4.00625	1	0.7509765625
2534.9345703125	0.00833333333333333	0	-30	-4.00625	2	0.623046875
2537.7763671875	0.00833333333333333	0	30	5.22083333333333	1	0.892578125
2540.984375	0.00833333333333333	0	30	5.22083333333333	2	2.2529296875
2545.509765625	0.00833333333333333	0	-30	-4.00625	1	0.759765625
2548.67578125	0.00833333333333333	0	30	5.22083333333333	2	2.162109375
2553.2265625	0.00833333333333333	0	-30	-4.00625	1	0.9873046875
2556.68359375	0.00833333333333333	0	-30	-4.00625	1	0.986328125
2559.9755859375	0.00833333333333333	0	30	5.22083333333333	2	0.9501953125
2563.333984375	0.00833333333333333	0	30	5.22083333333333	2	0.7119140625
2566.5087890625	0.00833333333333333	0	30	5.22083333333333	1	0.8095703125
2569.833984375	0.00833333333333333	0	-30	-4.00625	1	0.6279296875
2572.5087890625	0.00833333333333333	0	-30	-4.00625	1	0.8740234375
2575.8095703125	0.00833333333333333	0	30	5.22083333333333	1	1.021484375
2579.17578125	0.00833333333333333	0	-30	-3.88125	1	0.6708984375
2582.275390625	0.00833333333333333	0	-30	-3.88125	1	0.6435546875
2585.099609375	0.00833333333333333	0	-30	-3.88125	1	0.634765625
2587.9921875	0.00833333333333333	0	30	5.22083333333333	1	0.5263671875
2590.7578125	0.00833333333333333	0	-30	-3.88125	1	0.7529296875
2593.9501953125	0.00833333333333333	0	30	5.22083333333333	1	0.849609375
2597.091796875	0.00833333333333333	0	-30	-3.88125	1	1.01953125
2600.2919921875	0.00833333333333333	0	30	5.22083333333333	1	0.603515625
2603.3828125	0.00833333333333333	0	-30	-3.75625	2	0.78515625
2606.591796875	0.00833333333333333	0	-30	-3.75625	1	0.919921875
2610.0087890625	0.00833333333333333	0	-30	-3.75625	1	0.8466796875
2613.2587890625	0.00833333333333333	0	30	5.34583333333333	1	1.548828125
2617.1416015625	0.00833333333333333	0	30	5.34583333333333	1	0.658203125
2620.1748046875	0.00833333333333333	0	-30	-3.75625	1	3.3857421875
2626.0078125	0.00833333333333333	0	-30	-3.75625	1	0.6796875
2629.0419921875	0.00833333333333333	0	30	5.34583333333333	1	1.2138671875
2632.7001953125	0.00833333333333333	0	-30	-3.75625	2	1.7724609375
2636.68359375	0.00833333333333333	0	-30	-3.75625	2	1.212890625
2640.1669921875	0.00833333333333333	0	30	5.34583333333333	1	0.5771484375
2642.8583984375	0.00833333333333333	0	-30	-3.75625	2	0.89453125
2646	0.00833333333333333	0	-30	-3.75625	1	0.640625
2649.0751953125	0.00833333333333333	0	30	5.34583333333333	1	0.7255859375
2652.1083984375	0.00833333333333333	0	-30	-3.75625	1	0.7490234375
2655.125	0.00833333333333333	0	30	5.47083333333333	1	0.7646484375
2658.0908203125	0.00833333333333333	0	-30	-3.75625	1	1.1982421875
2661.732421875	0.00833333333333333	0	-30	-3.75625	1	0.9248046875
2664.8828125	0.00833333333333333	0	-30	-3.75625	1	0.7431640625
2668.0576171875	0.00833333333333333	0	30	5.47083333333333	1	0.65625
2670.83984375	0.00833333333333333	0	30	5.47083333333333	1	0.697265625
2673.5908203125	0.00833333333333333	0	30	5.47083333333333	1	0.802734375
2676.4580078125	0.00833333333333333	0	-30	-3.63125	1	1.6240234375
2729.45703125	0.00833333333333333	0	-30	-3.63125	1	2.3466796875
2733.9482421875	0.00833333333333333	0	30	5.47083333333333	2	1.54296875
2737.623046875	0.00833333333333333	0	-30	-3.63125	1	1.7568359375
2741.6982421875	0.00833333333333333	0	-30	-3.63125	2	0.833984375
2744.7890625	0.00833333333333333	0	-30	-3.63125	2	1.4951171875
2748.8896484375	0.00833333333333333	0	-30	-3.63125	2	0.6826171875
2751.71484375	0.00833333333333333	0	30	5.47083333333333	2	0.712890625
2754.880859375	0.00833333333333333	0	-30	-3.63125	2	0.947265625
2757.998046875	0.00833333333333333	0	-30	-3.63125	2	0.56640625
2760.6650390625	0.00833333333333333	0	-30	-3.75625	2	0.779296875
2763.498046875	0.00833333333333333	0	30	5.47083333333333	1	0.970703125
2766.5732421875	0.00833333333333333	0	30	5.47083333333333	1	0.623046875
2769.755859375	0.00833333333333333	0	-30	-3.75625	2	0.6171875
2772.7314453125	0.00833333333333333	0	-30	-3.75625	2	0.8173828125
2775.931640625	0.00833333333333333	0	-30	-3.75625	2	0.666015625
2779.1142578125	0.00833333333333333	0	30	5.47083333333333	1	1.1142578125
2782.59765625	0.00833333333333333	0	-30	-3.75625	2	0.9912109375
2786.0146484375	0.00833333333333333	0	-30	-3.88125	2	0.638671875
2789.189453125	0.00833333333333333	0	30	5.47083333333333	1	0.8154296875
2792.330078125	0.00833333333333333	0	-30	-3.88125	1	0.8193359375
2795.4306640625	0.00833333333333333	0	-30	-3.88125	1	0.9267578125
2798.5390625	0.00833333333333333	0	30	5.47083333333333	1	0.6181640625
2801.5390625	0.00833333333333333	0	30	5.59583333333333	2	2.39453125
2806.1728515625	0.00833333333333333	0	-30	-3.88125	1	2.353515625
2810.7392578125	0.00833333333333333	0	30	5.59583333333333	1	0.8505859375
2814.0888671875	0.00833333333333333	0	30	5.59583333333333	2	0.853515625
2817.330078125	0.00833333333333333	0	30	5.59583333333333	2	0.6123046875
2820.4306640625	0.00833333333333333	0	30	5.59583333333333	2	0.5517578125
2823.1806640625	0.00833333333333333	0	-30	-3.88125	2	0.650390625
2826.2802734375	0.00833333333333333	0	30	5.59583333333333	1	1.8623046875
2830.421875	0.00833333333333333	0	-30	-3.88125	2	1.3291015625
2833.85546875	0.00833333333333333	0	-30	-3.88125	2	0.912109375
2836.8974609375	0.00833333333333333	0	30	5.59583333333333	2	1.125
2840.171875	0.00833333333333333	0	30	5.59583333333333	2	1.03515625
2843.572265625	0.00833333333333333	0	-30	-3.88125	2	0.6025390625
2846.4306640625	0.00833333333333333	0	30	5.59583333333333	2	0.9443359375
2849.8134765625	0.00833333333333333	0	-30	-3.88125	2	0.921875
2853.10546875	0.00833333333333333	0	30	5.59583333333333	2	0.91015625
2856.513671875	0.00833333333333333	0	-30	-4.00625	2	0.853515625
2859.5302734375	0.00833333333333333	0	30	5.59583333333333	1	0.6376953125
2862.7294921875	0.00833333333333333	0	-30	-4.00625	1	0.734375
2865.9873046875	0.00833333333333333	0	30	5.59583333333333	1	0.708984375
2868.8037109375	0.00833333333333333	0	-30	-4.00625	1	0.84375
2871.921875	0.00833333333333333	0	-30	-4.00625	2	0.677734375
2874.9130859375	0.00833333333333333	0	30	5.59583333333333	1	0.7109375
2877.896484375	0.00833333333333333	0	-30	-4.00625	2	1.6474609375
2882.046875	0.00833333333333333	0	30	5.59583333333333	2	1.3857421875
2885.712890625	0.00833333333333333	0	-30	-4.00625	2	1.3681640625
2889.1630859375	0.00833333333333333	0	30	5.59583333333333	2	1.3896484375
2893.1044921875	0.00833333333333333	0	-30	-4.00625	1	0.744140625
2896.0703125	0.00833333333333333	0	30	5.59583333333333	1	0.6826171875
2898.9287109375	0.00833333333333333	0	-30	-4.00625	1	3
2904.0625	0.00833333333333333	0	30	5.59583333333333	1	0.802734375
2907.1875	0.00833333333333333	0	30	5.59583333333333	1	0.7177734375
2910.0205078125	0.00833333333333333	0	-30	-4.00625	2	0.724609375
2913.12109375	0.00833333333333333	0	30	5.59583333333333	1	0.640625
2916.1279296875	0.00833333333333333	0	30	5.59583333333333	1	1.2177734375
2919.603515625	0.00833333333333333	0	-30	-4.00625	2	0.654296875
2922.595703125	0.00833333333333333	0	-30	-4.00625	2	0.6865234375
2925.6708984375	0.00833333333333333	0	30	5.72083333333333	1	0.7783203125
2928.6943359375	0.00833333333333333	0	30	5.72083333333333	1	0.859375
2932.0126953125	0.00833333333333333	0	30	5.72083333333333	1	0.62890625
2934.8291015625	0.00833333333333333	0	30	5.72083333333333	1	0.6767578125
2937.5791015625	0.00833333333333333	0	30	5.72083333333333	1	0.623046875
2940.603515625	0.00833333333333333	0	-30	-4.00625	2	0.8388671875
2943.7119140625	0.00833333333333333	0	30	5.84583333333333	1	0.71484375
2946.5126953125	0.00833333333333333	0	30	5.84583333333333	2	2.1376953125
2951.13671875	0.00833333333333333	0	30	5.84583333333333	2	0.9697265625
2954.2705078125	0.00833333333333333	0	-30	-4.00625	1	4.2763671875
2960.6953125	0.00833333333333333	0	30	5.84583333333333	2	9.8515625
2972.9697265625	0.00833333333333333	0	30	5.84583333333333	2	1.44921875
2976.736328125	0.00833333333333333	0	-30	-4.00625	2	0.70703125
2979.7451171875	0.00833333333333333	0	30	5.84583333333333	2	0.7392578125
2982.9453125	0.00833333333333333	0	-30	-4.00625	2	0.6181640625
2985.828125	0.00833333333333333	0	30	5.72083333333333	1	0.736328125
2989.111328125	0.00833333333333333	0	-30	-4.00625	1	0.892578125
2992.328125	0.00833333333333333	0	30	5.72083333333333	1	0.68359375
2995.2861328125	0.00833333333333333	0	30	5.72083333333333	1	0.654296875
2998.3701171875	0.00833333333333333	0	30	5.72083333333333	1	0.59375
3001.193359375	0.00833333333333333	0	-30	-4.00625	1	0.779296875
3042.552734375	0.00833333333333333	0	30	5.72083333333333	2	26.0693359375
3070.826171875	0.00833333333333333	0	-30	-4.00625	2	32.853515625
3105.9345703125	0.00833333333333333	0	-30	-4.00625	2	1.193359375
3109.576171875	0.00833333333333333	0	-30	-4.00625	2	0.6796875
3112.7099609375	0.00833333333333333	0	30	5.72083333333333	1	0.666015625
3115.716796875	0.00833333333333333	0	30	5.72083333333333	2	0.603515625
3118.818359375	0.00833333333333333	0	-30	-4.00625	1	0.7900390625
3121.8671875	0.00833333333333333	0	-30	-4.00625	1	1.1572265625
3125.3759765625	0.00833333333333333	0	-30	-4.00625	1	1.224609375
3129.134765625	0.00833333333333333	0	30	5.72083333333333	2	0.6572265625
3132.17578125	0.00833333333333333	0	30	5.72083333333333	2	0.640625
3134.8759765625	0.00833333333333333	0	30	5.72083333333333	2	0.6845703125
3137.6259765625	0.00833333333333333	0	-30	-4.00625	2	0.6708984375
3140.4345703125	0.00833333333333333	0	30	5.72083333333333	2	0.6943359375
3143.66796875	0.00833333333333333	0	30	5.59583333333333	2	0.6044921875
3146.576171875	0.00833333333333333	0	30	5.59583333333333	2	0.7607421875
3149.6845703125	0.00833333333333333	0	30	5.59583333333333	2	0.796875
3152.734375	0.00833333333333333	0	-30	-4.00625	2	0.5869140625
3155.6259765625	0.00833333333333333	0	30	5.59583333333333	2	0.5908203125
3158.5087890625	0.00833333333333333	0	-30	-4.00625	2	1.2041015625
3162.3251953125	0.00833333333333333	0	30	5.59583333333333	1	0.7080078125
3165.091796875	0.00833333333333333	0	30	5.59583333333333	1	0.669921875
3167.9501953125	0.00833333333333333	0	-30	-4.00625	1	0.8671875
3171.30078125	0.00833333333333333	0	-30	-4.00625	2	0.65234375
3174.2587890625	0.00833333333333333	0	-30	-4.00625	2	1.5107421875
3178.30859375	0.00833333333333333	0	-30	-4.00625	1	2.166015625
3182.55859375	0.00833333333333333	0	30	5.59583333333333	1	5.0517578125
3189.6923828125	0.00833333333333333	0	30	5.59583333333333	2	0.654296875
3192.4501953125	0.00833333333333333	0	30	5.59583333333333	2	1.919921875
3196.5419921875	0.00833333333333333	0	-30	-4.00625	2	1.0126953125
3199.8330078125	0.00833333333333333	0	-30	-4.00625	1	0.6982421875
3202.8671875	0.00833333333333333	0	30	5.59583333333333	1	1.3837890625
3206.4833984375	0.00833333333333333	0	30	5.59583333333333	1	3.615234375
3212.5830078125	0.00833333333333333	0	-30	-4.00625	2	0.7880859375
3215.55859375	0.00833333333333333	0	-30	-4.00625	2	0.6845703125
3218.5166015625	0.00833333333333333	0	30	5.59583333333333	1	0.8388671875
3221.5576171875	0.00833333333333333	0	30	5.59583333333333	1	0.685546875
3224.7578125	0.00833333333333333	0	-30	-4.00625	2	5.3974609375
3232.4580078125	0.00833333333333333	0	30	5.59583333333333	1	2.673828125
3237.482421875	0.00833333333333333	0	30	5.72083333333333	1	0.76171875
3240.7822265625	0.00833333333333333	0	30	5.72083333333333	1	0.94140625
3244.07421875	0.00833333333333333	0	30	5.72083333333333	2	0.75390625
3247.1240234375	0.00833333333333333	0	-30	-4.00625	1	0.919921875
3250.474609375	0.00833333333333333	0	-30	-4.00625	2	0.681640625
3253.6494140625	0.00833333333333333	0	-30	-4.00625	1	1.2666015625
3257.349609375	0.00833333333333333	0	-30	-4.00625	1	0.5986328125
3260.390625	0.00833333333333333	0	30	5.72083333333333	1	2.09375
3264.5732421875	0.00833333333333333	0	30	5.72083333333333	2	1.7197265625
3268.5986328125	0.00833333333333333	0	-30	-4.00625	1	0.7421875
3271.791015625	0.00833333333333333	0	-30	-4.00625	1	2.669921875
3276.7900390625	0.00833333333333333	0	-30	-4.00625	1	0.791015625
3280.1484375	0.00833333333333333	0	-30	-3.88125	1	0.6484375
3283.115234375	0.00833333333333333	0	-30	-3.88125	1	0.9619140625
3286.4658203125	0.00833333333333333	0	-30	-3.88125	1	0.6435546875
3289.47265625	0.00833333333333333	0	-30	-3.88125	1	0.7890625
3292.5400390625	0.00833333333333333	0	30	5.72083333333333	1	1.2734375
3296.1728515625	0.00833333333333333	0	30	5.72083333333333	1	0.865234375
3299.3232421875	0.00833333333333333	0	30	5.72083333333333	1	0.802734375
3302.33984375	0.00833333333333333	0	30	5.72083333333333	1	2.5458984375
3307.048828125	0.00833333333333333	0	30	5.72083333333333	2	0.548828125
3310.1484375	0.00833333333333333	0	30	5.72083333333333	2	0.8251953125
3313.3232421875	0.00833333333333333	0	30	5.72083333333333	2	1.05078125
3316.5400390625	0.00833333333333333	0	-30	-3.88125	1	0.826171875
3319.7236328125	0.00833333333333333	0	-30	-3.75625	1	1.0263671875
3322.8564453125	0.00833333333333333	0	-30	-3.75625	1	0.837890625
3325.931640625	0.00833333333333333	0	30	5.72083333333333	1	0.6669921875
3328.998046875	0.00833333333333333	0	30	5.72083333333333	1	0.78515625
3332.0234375	0.00833333333333333	0	-30	-3.75625	1	0.6630859375
3334.7802734375	0.00833333333333333	0	30	5.72083333333333	1	0.626953125
3337.6484375	0.00833333333333333	0	-30	-3.75625	1	0.6708984375
3340.7060546875	0.00833333333333333	0	30	5.72083333333333	2	5.62890625
3348.630859375	0.00833333333333333	0	-30	-3.75625	1	0.880859375
3351.65625	0.00833333333333333	0	30	5.72083333333333	1	0.943359375
3355.1142578125	0.00833333333333333	0	30	5.72083333333333	1	4.8779296875
3362.271484375	0.00833333333333333	0	-30	-3.63125	1	0.888671875
3365.34765625	0.00833333333333333	0	-30	-3.63125	1	0.7958984375
3368.646484375	0.00833333333333333	0	30	5.72083333333333	1	0.689453125
3371.7138671875	0.00833333333333333	0	-30	-3.63125	1	1.0625
3375.005859375	0.00833333333333333	0	30	5.72083333333333	1	1.1220703125
3378.5556640625	0.00833333333333333	0	-30	-3.63125	1	1.037109375
3401.630859375	0.00833333333333333	0	-30	-3.63125	2	0.7705078125
3404.6474609375	0.00833333333333333	0	30	5.72083333333333	2	0.9375
3407.8544921875	0.00833333333333333	0	30	5.72083333333333	2	0.546875
3410.9375	0.00833333333333333	0	-30	-3.63125	2	1
3414.3623046875	0.00833333333333333	0	30	5.72083333333333	2	0.7041015625
3417.1552734375	0.00833333333333333	0	30	5.72083333333333	2	0.57421875
3419.8798828125	0.00833333333333333	0	30	5.72083333333333	2	0.5625
3422.5634765625	0.00833333333333333	0	30	5.59583333333333	1	0.6064453125
3425.5546875	0.00833333333333333	0	30	5.59583333333333	2	0.7353515625
3428.5546875	0.00833333333333333	0	30	5.59583333333333	1	3.4150390625
3434.337890625	0.00833333333333333	0	-30	-3.63125	2	1.4326171875
3437.955078125	0.00833333333333333	0	-30	-3.63125	2	0.775390625
3441.171875	0.00833333333333333	0	30	5.59583333333333	1	0.8623046875
3444.4794921875	0.00833333333333333	0	30	5.59583333333333	1	0.5146484375
3447.3466796875	0.00833333333333333	0	30	5.59583333333333	1	0.65625
3450.2802734375	0.00833333333333333	0	30	5.59583333333333	1	0.8427734375
3453.36328125	0.00833333333333333	0	30	5.72083333333333	1	1.6552734375
3457.3623046875	0.00833333333333333	0	-30	-3.63125	2	2.0166015625
3461.9541015625	0.00833333333333333	0	-30	-3.75625	2	0.9208984375
3465.404296875	0.00833333333333333	0	30	5.72083333333333	2	2.3193359375
3469.9716796875	0.00833333333333333	0	30	5.72083333333333	2	2.0478515625
3474.294921875	0.00833333333333333	0	30	5.72083333333333	1	0.716796875
3477.1044921875	0.00833333333333333	0	-30	-3.75625	1	0.955078125
3480.37109375	0.00833333333333333	0	-30	-3.75625	1	0.65625
3483.1787109375	0.00833333333333333	0	-30	-3.75625	1	0.6328125
3486.1376953125	0.00833333333333333	0	-30	-3.75625	1	1.154296875
3489.462890625	0.00833333333333333	0	-30	-3.75625	1	0.9248046875
3492.4794921875	0.00833333333333333	0	30	5.72083333333333	1	1.30859375
3496.1044921875	0.00833333333333333	0	-30	-3.63125	1	0.66796875
3499.177734375	0.00833333333333333	0	-30	-3.63125	1	0.7060546875
3502.3623046875	0.00833333333333333	0	-30	-3.63125	2	0.681640625
3505.1875	0.00833333333333333	0	-30	-3.63125	2	1.11328125
3508.453125	0.00833333333333333	0	-30	-3.63125	1	0.6552734375
3511.3203125	0.00833333333333333	0	-30	-3.63125	2	1.8125
3515.51171875	0.00833333333333333	0	-30	-3.63125	1	0.7333984375
3518.3203125	0.00833333333333333	0	-30	-3.63125	1	0.7001953125
3521.162109375	0.00833333333333333	0	30	5.72083333333333	1	0.8427734375
3524.38671875	0.00833333333333333	0	30	5.72083333333333	2	2.1630859375
3529.0703125	0.00833333333333333	0	-30	-3.63125	2	0.7744140625
3532.052734375	0.00833333333333333	0	30	5.72083333333333	2	0.9443359375
3535.1533203125	0.00833333333333333	0	-30	-3.63125	2	1.1796875
3538.412109375	0.00833333333333333	0	-30	-3.63125	2	1.10546875
3541.736328125	0.00833333333333333	0	30	5.72083333333333	2	1.0537109375
3545.2119140625	0.00833333333333333	0	30	5.72083333333333	1	3.6103515625
3551.2353515625	0.00833333333333333	0	30	5.72083333333333	1	0.994140625
3554.4619140625	0.00833333333333333	0	30	5.72083333333333	1	1.3037109375
3557.88671875	0.00833333333333333	0	30	5.72083333333333	1	1.271484375
3561.26171875	0.00833333333333333	0	-30	-3.63125	1	0.8720703125
3564.5859375	0.00833333333333333	0	30	5.72083333333333	1	0.724609375
3567.5361328125	0.00833333333333333	0	30	5.84583333333333	2	0.9423828125
3570.9111328125	0.00833333333333333	0	30	5.84583333333333	2	0.7109375
3574.1943359375	0.00833333333333333	0	30	5.84583333333333	1	2.30078125
3578.677734375	0.00833333333333333	0	-30	-3.63125	1	0.6494140625
3581.6279296875	0.00833333333333333	0	-30	-3.63125	1	0.72265625
3584.7109375	0.00833333333333333	0	30	5.84583333333333	1	0.9521484375
3588.14453125	0.00833333333333333	0	-30	-3.63125	2	0.6943359375
3591.2275390625	0.00833333333333333	0	-30	-3.63125	2	0.779296875
3594.4189453125	0.00833333333333333	0	-30	-3.63125	2	4.8759765625
3601.869140625	0.00833333333333333	0	-30	-3.63125	1	1.4189453125
3605.7939453125	0.00833333333333333	0	30	5.84583333333333	2	1.3896484375
3609.685546875	0.00833333333333333	0	30	5.84583333333333	2	0.6982421875
3612.6357421875	0.00833333333333333	0	30	5.84583333333333	2	1.404296875
3616.3525390625	0.00833333333333333	0	-30	-3.63125	2	0.775390625
3619.6435546875	0.00833333333333333	0	30	5.84583333333333	2	1.044921875
3623.1435546875	0.00833333333333333	0	-30	-3.63125	1	0.6328125
3625.8759765625	0.00833333333333333	0	-30	-3.63125	1	0.7646484375
3628.744140625	0.00833333333333333	0	-30	-3.63125	1	0.6640625
3631.7353515625	0.00833333333333333	0	-30	-3.63125	1	0.6572265625
3634.876953125	0.00833333333333333	0	-30	-3.63125	1	0.9560546875
3638.21875	0.00833333333333333	0	30	5.84583333333333	1	1.013671875
3641.4189453125	0.00833333333333333	0	-30	-3.50625	1	0.7099609375
3644.41015625	0.00833333333333333	0	30	5.84583333333333	1	2.0390625
3648.8935546875	0.00833333333333333	0	30	5.84583333333333	1	0.8916015625
3652.060546875	0.00833333333333333	0	30	5.84583333333333	2	0.7802734375
3655.060546875	0.00833333333333333	0	30	5.84583333333333	1	0.708984375
3658.03515625	0.00833333333333333	0	-30	-3.50625	1	1.1181640625
3661.576171875	0.00833333333333333	0	-30	-3.50625	1	0.8486328125
3664.67578125	0.00833333333333333	0	30	5.84583333333333	2	0.58984375
3667.3603515625	0.00833333333333333	0	-30	-3.50625	1	0.7294921875
3670.326171875	0.00833333333333333	0	30	5.84583333333333	1	0.7470703125
3736.892578125	0.00833333333333333	0	-30	-3.50625	2	1.19921875
3740.5087890625	0.00833333333333333	0	30	5.84583333333333	2	0.630859375
3743.533203125	0.00833333333333333	0	-30	-3.50625	1	1.71875
3747.4091796875	0.00833333333333333	0	-30	-3.50625	2	0.619140625
3750.1591796875	0.00833333333333333	0	-30	-3.50625	1	0.796875
3753.4423828125	0.00833333333333333	0	30	5.84583333333333	1	1.3857421875
3757.107421875	0.00833333333333333	0	30	5.84583333333333	1	0.5693359375
3759.7744140625	0.00833333333333333	0	-30	-3.50625	1	0.646484375
3762.7744140625	0.00833333333333333	0	-30	-3.50625	1	0.669921875
3765.5419921875	0.00833333333333333	0	-30	-3.50625	1	0.9423828125
3768.732421875	0.00833333333333333	0	30	5.84583333333333	1	0.5439453125
3771.3505859375	0.00833333333333333	0	-30	-3.50625	1	0.6220703125
3774.232421875	0.00833333333333333	0	30	5.84583333333333	1	0.5009765625
3776.8251953125	0.00833333333333333	0	30	5.84583333333333	1	0.5634765625
3779.5	0.00833333333333333	0	30	5.97083333333333	1	0.5126953125
3782.4248046875	0.00833333333333333	0	-30	-3.38125	1	0.5966796875
3785.3662109375	0.00833333333333333	0	-30	-3.38125	1	0.5107421875
3788.2080078125	0.00833333333333333	0	-30	-3.38125	1	0.765625
3791.4736328125	0.00833333333333333	0	30	5.97083333333333	1	0.6201171875
3794.2744140625	0.00833333333333333	0	30	5.97083333333333	1	0.70703125
3797.3984375	0.00833333333333333	0	-30	-3.38125	1	0.912109375
3800.6494140625	0.00833333333333333	0	-30	-3.38125	1	0.5966796875
3803.783203125	0.00833333333333333	0	-30	-3.25625	1	0.55078125
3806.7734375	0.00833333333333333	0	30	5.97083333333333	1	0.384765625
3809.4150390625	0.00833333333333333	0	30	5.97083333333333	1	0.5029296875
3812.2744140625	0.00833333333333333	0	-30	-3.25625	1	0.67578125
3815.2158203125	0.00833333333333333	0	30	6.09583333333333	2	0.5419921875
3817.9326171875	0.00833333333333333	0	30	6.09583333333333	2	0.8427734375
3821.099609375	0.00833333333333333	0	-30	-3.25625	1	0.6357421875
3823.8828125	0.00833333333333333	0	-30	-3.25625	1	0.7802734375
3826.9658203125	0.00833333333333333	0	30	6.09583333333333	2	0.609375
3829.791015625	0.00833333333333333	0	30	6.09583333333333	2	0.8154296875
3833.1162109375	0.00833333333333333	0	30	6.09583333333333	2	0.71484375
3836.2412109375	0.00833333333333333	0	30	5.97083333333333	2	1.349609375
3840.015625	0.00833333333333333	0	-30	-3.25625	2	0.607421875
3842.982421875	0.00833333333333333	0	30	5.97083333333333	2	1.4169921875
3846.666015625	0.00833333333333333	0	30	5.97083333333333	1	1.4052734375
3850.1982421875	0.00833333333333333	0	30	5.97083333333333	2	0.6015625
3853.0986328125	0.00833333333333333	0	30	5.97083333333333	1	0.94921875
3856.3984375	0.00833333333333333	0	30	5.97083333333333	2	1.7294921875
3860.4658203125	0.00833333333333333	0	30	5.97083333333333	1	0.75
3863.607421875	0.00833333333333333	0	30	5.97083333333333	2	0.7529296875
3866.740234375	0.00833333333333333	0	30	5.97083333333333	1	1.1396484375
3870.015625	0.00833333333333333	0	30	5.97083333333333	2	1.392578125
3873.740234375	0.00833333333333333	0	30	5.97083333333333	1	0.6923828125
3876.673828125	0.00833333333333333	0	30	5.97083333333333	1	2.2783203125
3881.1982421875	0.00833333333333333	0	-30	-3.25625	2	1.0419921875
3884.2890625	0.00833333333333333	0	-30	-3.25625	2	0.8798828125
3887.615234375	0.00833333333333333	0	30	5.97083333333333	2	1.841796875
3891.9404296875	0.00833333333333333	0	30	5.97083333333333	2	1.0927734375
3895.5146484375	0.00833333333333333	0	-30	-3.25625	2	1.0380859375
3898.98046875	0.00833333333333333	0	-30	-3.25625	2	0.8046875
3902.2734375	0.00833333333333333	0	30	5.97083333333333	2	0.6396484375
3905.2060546875	0.00833333333333333	0	-30	-3.38125	1	1.435546875
3908.78125	0.00833333333333333	0	-30	-3.38125	1	0.7802734375
3911.8310546875	0.00833333333333333	0	-30	-3.38125	1	0.6181640625
3914.78125	0.00833333333333333	0	-30	-3.38125	1	0.6201171875
3917.8310546875	0.00833333333333333	0	30	5.97083333333333	2	1.38671875
3921.3232421875	0.00833333333333333	0	-30	-3.38125	1	0.478515625
3924.0888671875	0.00833333333333333	0	30	5.97083333333333	1	0.552734375
3926.8564453125	0.00833333333333333	0	-30	-3.25625	1	0.5771484375
3929.646484375	0.00833333333333333	0	-30	-3.25625	1	0.572265625
3932.5390625	0.00833333333333333	0	-30	-3.25625	2	0.615234375
3935.4296875	0.00833333333333333	0	-30	-3.25625	1	0.6767578125
3938.447265625	0.00833333333333333	0	-30	-3.25625	1	0.7236328125
3941.380859375	0.00833333333333333	0	-30	-3.25625	1	0.853515625
3944.7138671875	0.00833333333333333	0	30	5.97083333333333	1	0.5927734375
3947.48046875	0.00833333333333333	0	30	5.97083333333333	1	5.8662109375
3955.5634765625	0.00833333333333333	0	30	5.97083333333333	2	1.03125
3958.896484375	0.00833333333333333	0	-30	-3.25625	1	0.71484375
3961.7470703125	0.00833333333333333	0	-30	-3.25625	1	0.9755859375
3964.9638671875	0.00833333333333333	0	-30	-3.13125	2	0.6630859375
3967.671875	0.00833333333333333	0	-30	-3.13125	2	1.53125
3971.6376953125	0.00833333333333333	0	30	5.97083333333333	2	1.4453125
3975.3544921875	0.00833333333333333	0	-30	-3.13125	2	1.4248046875
3979.3125	0.00833333333333333	0	-30	-3.13125	1	0.8916015625
3982.5712890625	0.00833333333333333	0	-30	-3.13125	2	0.7041015625
3985.5888671875	0.00833333333333333	0	30	5.97083333333333	1	0.5751953125
3988.3212890625	0.00833333333333333	0	30	5.97083333333333	2	0.73046875
3991.462890625	0.00833333333333333	0	30	5.97083333333333	1	0.6767578125
4030.12109375	0.00833333333333333	0	-30	-3.13125	1	1.259765625
4033.712890625	0.00833333333333333	0	-30	-3.13125	2	0.892578125
4037.0546875	0.00833333333333333	0	30	5.97083333333333	2	0.791015625
4040.154296875	0.00833333333333333	0	30	5.97083333333333	2	0.69140625
4043.3623046875	0.00833333333333333	0	30	5.97083333333333	2	0.69140625
4046.4697265625	0.00833333333333333	0	30	5.97083333333333	1	0.82421875
4049.6787109375	0.00833333333333333	0	-30	-3.13125	2	0.615234375
4052.4541015625	0.00833333333333333	0	30	5.97083333333333	1	0.6796875
4055.6533203125	0.00833333333333333	0	-30	-3.13125	2	0.6171875
4058.5537109375	0.00833333333333333	0	-30	-3.13125	2	0.876953125
4061.9287109375	0.00833333333333333	0	-30	-3.13125	2	0.669921875
4065.0537109375	0.00833333333333333	0	-30	-3.25625	2	0.728515625
4068.1044921875	0.00833333333333333	0	30	5.97083333333333	2	0.6376953125
4071.029296875	0.00833333333333333	0	-30	-3.25625	2	1.041015625
4074.1455078125	0.00833333333333333	0	30	5.97083333333333	2	0.9091796875
4077.3447265625	0.00833333333333333	0	-30	-3.25625	1	0.806640625
4080.5869140625	0.00833333333333333	0	-30	-3.25625	2	1.076171875
4083.8779296875	0.00833333333333333	0	-30	-3.25625	2	1.1455078125
4087.1953125	0.00833333333333333	0	30	5.97083333333333	1	0.7158203125
4090.162109375	0.00833333333333333	0	-30	-3.25625	1	0.685546875
4093.419921875	0.00833333333333333	0	30	5.97083333333333	1	0.626953125
4096.25390625	0.00833333333333333	0	-30	-3.25625	1	4.7939453125
4103.4697265625	0.00833333333333333	0	30	5.97083333333333	1	1.177734375
4106.9365234375	0.00833333333333333	0	30	5.97083333333333	2	0.7353515625
4110.1611328125	0.00833333333333333	0	-30	-3.25625	1	0.5830078125
4112.978515625	0.00833333333333333	0	-30	-3.25625	1	0.5732421875
4115.89453125	0.00833333333333333	0	30	5.97083333333333	1	0.73828125
4118.89453125	0.00833333333333333	0	30	5.97083333333333	1	0.59375
4121.619140625	0.00833333333333333	0	-30	-3.25625	2	1.4287109375
4125.39453125	0.00833333333333333	0	30	5.97083333333333	1	0.7099609375
4128.40234375	0.00833333333333333	0	-30	-3.25625	1	0.998046875
4131.5947265625	0.00833333333333333	0	30	5.97083333333333	1	0.6455078125
4134.8115234375	0.00833333333333333	0	30	5.97083333333333	1	0.7568359375
4137.9365234375	0.00833333333333333	0	-30	-3.25625	1	0.6083984375
4140.7109375	0.00833333333333333	0	30	6.09583333333333	1	0.818359375
4144.01953125	0.00833333333333333	0	-30	-3.25625	1	0.6689453125
4147.1611328125	0.00833333333333333	0	-30	-3.25625	1	0.607421875
4150.2197265625	0.00833333333333333	0	-30	-3.25625	1	0.8212890625
4153.5185546875	0.00833333333333333	0	-30	-3.13125	1	0.7705078125
4156.8447265625	0.00833333333333333	0	-30	-3.13125	1	0.5166015625
4159.7607421875	0.00833333333333333	0	30	6.09583333333333	1	0.6083984375
4162.6513671875	0.00833333333333333	0	-30	-3.13125	1	0.7265625
4165.8447265625	0.00833333333333333	0	-30	-3.13125	1	0.6845703125
4169.1279296875	0.00833333333333333	0	30	6.09583333333333	2	0.5859375
4171.9189453125	0.00833333333333333	0	-30	-3.13125	2	0.53125
4175.0029296875	0.00833333333333333	0	30	6.09583333333333	1	0.7353515625
4178.2109375	0.00833333333333333	0	30	6.09583333333333	2	0.6708984375
4181.1103515625	0.00833333333333333	0	-30	-3.13125	1	0.69140625
4184.02734375	0.00833333333333333	0	30	6.09583333333333	2	0.615234375
4187.1689453125	0.00833333333333333	0	-30	-3.13125	2	0.8408203125
4190.1435546875	0.00833333333333333	0	-30	-3.13125	2	0.978515625
4193.576171875	0.00833333333333333	0	30	6.09583333333333	1	0.5859375
4196.626953125	0.00833333333333333	0	-30	-3.13125	1	0.583984375
4199.443359375	0.00833333333333333	0	-30	-3.13125	1	0.462890625
4202.21875	0.00833333333333333	0	30	6.09583333333333	1	0.49609375
4204.8349609375	0.00833333333333333	0	30	6.09583333333333	1	0.599609375
4207.9765625	0.00833333333333333	0	30	6.09583333333333	1	0.5625
4210.9599609375	0.00833333333333333	0	-30	-3.13125	1	0.771484375
4214.2431640625	0.00833333333333333	0	-30	-3.13125	1	0.6005859375
4217.4013671875	0.00833333333333333	0	-30	-3.13125	1	8.1298828125
4227.642578125	0.00833333333333333	0	30	6.09583333333333	1	0.77734375
4230.7431640625	0.00833333333333333	0	30	6.22083333333333	2	0.6845703125
4234.0185546875	0.00833333333333333	0	30	6.22083333333333	2	0.529296875
4237.068359375	0.00833333333333333	0	-30	-3.00625	2	1.095703125
4240.5927734375	0.00833333333333333	0	-30	-3.00625	1	0.6435546875
4243.4931640625	0.00833333333333333	0	30	6.22083333333333	1	0.5107421875
4246.1181640625	0.00833333333333333	0	30	6.22083333333333	1	0.486328125
4248.9345703125	0.00833333333333333	0	30	6.22083333333333	2	0.7900390625
4251.8671875	0.00833333333333333	0	-30	-3.00625	2	1.1689453125
4255.4501953125	0.00833333333333333	0	-30	-3.00625	2	0.650390625
4258.2509765625	0.00833333333333333	0	30	6.22083333333333	2	1.08203125
4261.576171875	0.00833333333333333	0	-30	-3.00625	2	1.1005859375
4265.2431640625	0.00833333333333333	0	30	6.22083333333333	2	0.5615234375
4268.1015625	0.00833333333333333	0	30	6.22083333333333	2	0.607421875
4270.826171875	0.00833333333333333	0	-30	-3.00625	1	0.7548828125
4273.767578125	0.00833333333333333	0	-30	-3.00625	2	3.9658203125
4280.1005859375	0.00833333333333333	0	-30	-3.00625	2	0.8486328125
4283.4921875	0.00833333333333333	0	-30	-3.00625	1	0.6806640625
4286.583984375	0.00833333333333333	0	-30	-3.00625	1	0.8779296875
4289.6337890625	0.00833333333333333	0	30	6.22083333333333	2	0.580078125
4345.140625	0.00833333333333333	0	-30	-3.00625	1	1.6669921875
4348.9912109375	0.00833333333333333	0	-30	-3.00625	1	1.392578125
4352.6748046875	0.00833333333333333	0	30	6.09583333333333	1	0.701171875
4355.625	0.00833333333333333	0	-30	-3.00625	1	0.630859375
4358.8251953125	0.00833333333333333	0	-30	-2.88125	1	0.7822265625
4361.849609375	0.00833333333333333	0	30	6.09583333333333	1	0.75
4365.033203125	0.00833333333333333	0	30	6.09583333333333	2	0.7265625
4368.0908203125	0.00833333333333333	0	30	6.09583333333333	2	0.8056640625
4371.32421875	0.00833333333333333	0	-30	-2.88125	1	1.1240234375
4374.6416015625	0.00833333333333333	0	-30	-2.88125	1	0.9267578125
4378.0576171875	0.00833333333333333	0	-30	-2.88125	1	0.623046875
4380.982421875	0.00833333333333333	0	30	6.09583333333333	1	0.5380859375
4383.890625	0.00833333333333333	0	-30	-2.88125	1	0.734375
4386.791015625	0.00833333333333333	0	30	6.09583333333333	1	0.521484375
4389.5078125	0.00833333333333333	0	30	6.09583333333333	1	0.60546875
4392.548828125	0.00833333333333333	0	30	6.09583333333333	1	0.564453125
4395.357421875	0.00833333333333333	0	30	6.09583333333333	1	0.4755859375
4398.048828125	0.00833333333333333	0	-30	-2.75625	1	0.6806640625
4400.8984375	0.00833333333333333	0	-30	-2.75625	1	1.51953125
4404.4814453125	0.00833333333333333	0	-30	-2.75625	1	0.5517578125
4407.58203125	0.00833333333333333	0	30	6.22083333333333	1	0.5390625
4410.615234375	0.00833333333333333	0	-30	-2.75625	1	0.6181640625
4413.666015625	0.00833333333333333	0	-30	-2.75625	1	1.9677734375
4418.115234375	0.00833333333333333	0	30	6.22083333333333	1	2.4794921875
4423.048828125	0.00833333333333333	0	-30	-2.63125	1	1.7373046875
4427.048828125	0.00833333333333333	0	30	6.22083333333333	1	0.6728515625
4430.1240234375	0.00833333333333333	0	-30	-2.63125	1	0.6220703125
4433.08203125	0.00833333333333333	0	-30	-2.63125	1	0.640625
4435.9990234375	0.00833333333333333	0	-30	-2.63125	1	0.6279296875
4438.8232421875	0.00833333333333333	0	-30	-2.63125	2	0.595703125
4441.7646484375	0.00833333333333333	0	30	6.22083333333333	1	0.998046875
4445.1572265625	0.00833333333333333	0	-30	-2.63125	1	0.6376953125
4448.123046875	0.00833333333333333	0	30	6.22083333333333	1	0.6396484375
4450.8818359375	0.00833333333333333	0	30	6.34583333333333	1	0.537109375
4453.6064453125	0.00833333333333333	0	30	6.34583333333333	1	0.6533203125
4456.4150390625	0.00833333333333333	0	30	6.34583333333333	1	1.0361328125
4460.0146484375	0.00833333333333333	0	30	6.34583333333333	1	0.7880859375
4462.990234375	0.00833333333333333	0	30	6.34583333333333	1	3.1328125
4468.373046875	0.00833333333333333	0	30	6.47083333333333	1	1.005859375
4471.5400390625	0.00833333333333333	0	30	6.47083333333333	1	0.5517578125
4474.6064453125	0.00833333333333333	0	30	6.47083333333333	2	0.7568359375
4477.4736328125	0.00833333333333333	0	-30	-2.63125	2	0.59375
4480.53125	0.00833333333333333	0	30	6.47083333333333	1	0.80859375
4483.6650390625	0.00833333333333333	0	-30	-2.63125	1	0.6025390625
4486.4228515625	0.00833333333333333	0	-30	-2.63125	1	1.28515625
4490.189453125	0.00833333333333333	0	30	6.47083333333333	1	0.990234375
4493.447265625	0.00833333333333333	0	-30	-2.63125	1	1.5654296875
4497.4560546875	0.00833333333333333	0	30	6.47083333333333	2	0.4677734375
4500.380859375	0.00833333333333333	0	30	6.47083333333333	2	0.87109375
4503.4140625	0.00833333333333333	0	30	6.47083333333333	1	0.6064453125
4506.4560546875	0.00833333333333333	0	30	6.47083333333333	1	0.8681640625
4509.6474609375	0.00833333333333333	0	-30	-2.63125	1	0.533203125
4512.5712890625	0.00833333333333333	0	-30	-2.63125	1	0.79296875
4515.4638671875	0.00833333333333333	0	-30	-2.50625	1	1.662109375
4519.2138671875	0.00833333333333333	0	-30	-2.50625	1	0.7666015625
4522.513671875	0.00833333333333333	0	-30	-2.50625	1	0.6669921875
4525.380859375	0.00833333333333333	0	-30	-2.50625	2	1.0322265625
4528.9560546875	0.00833333333333333	0	-30	-2.50625	1	0.4248046875
4531.6142578125	0.00833333333333333	0	30	6.47083333333333	2	1.015625
4534.9384765625	0.00833333333333333	0	-30	-2.50625	2	0.546875
4537.61328125	0.00833333333333333	0	-30	-2.50625	2	2.2958984375
4542.1875	0.00833333333333333	0	-30	-2.50625	2	0.72265625
4545.138671875	0.00833333333333333	0	-30	-2.50625	1	0.4990234375
4547.87109375	0.00833333333333333	0	-30	-2.50625	2	0.7109375
4550.7216796875	0.00833333333333333	0	-30	-2.50625	1	0.4443359375
4553.5712890625	0.00833333333333333	0	-30	-2.50625	2	0.466796875
4556.197265625	0.00833333333333333	0	-30	-2.50625	2	0.361328125
4558.7138671875	0.00833333333333333	0	-30	-2.50625	2	1.7958984375
4562.7705078125	0.00833333333333333	0	-30	-2.50625	1	0.443359375
4565.2470703125	0.00833333333333333	0	-30	-2.50625	1	0.8388671875
4568.646484375	0.00833333333333333	0	30	6.47083333333333	1	1.48828125
4572.5712890625	0.00833333333333333	0	30	6.47083333333333	1	0.69921875
4575.6298828125	0.00833333333333333	0	30	6.47083333333333	2	0.6484375
4578.73828125	0.00833333333333333	0	-30	-2.50625	1	0.5888671875
4581.4794921875	0.00833333333333333	0	30	6.47083333333333	1	0.5673828125
4584.5712890625	0.00833333333333333	0	-30	-2.50625	1	0.427734375
4587.1630859375	0.00833333333333333	0	30	6.47083333333333	2	2.1240234375
4591.3876953125	0.00833333333333333	0	30	6.47083333333333	1	1.2998046875
4595.1298828125	0.00833333333333333	0	30	6.47083333333333	2	1.4609375
4599.0126953125	0.00833333333333333	0	30	6.47083333333333	2	0.978515625
4619.7529296875	0.00833333333333333	0	30	6.47083333333333	2	1.103515625
4622.962890625	0.00833333333333333	0	-30	-2.50625	2	0.853515625
4625.8623046875	0.00833333333333333	0	-30	-2.50625	2	0.5859375
4628.5791015625	0.00833333333333333	0	-30	-2.50625	2	0.5498046875
4631.3125	0.00833333333333333	0	30	6.47083333333333	2	0.3603515625
4633.7626953125	0.00833333333333333	0	30	6.47083333333333	1	0.6142578125
4636.6533203125	0.00833333333333333	0	-30	-2.50625	1	0.923828125
4639.9453125	0.00833333333333333	0	30	6.47083333333333	1	0.583984375
4642.912109375	0.00833333333333333	0	30	6.47083333333333	1	0.5849609375
4645.7529296875	0.00833333333333333	0	-30	-2.50625	1	0.5361328125
4648.779296875	0.00833333333333333	0	-30	-2.50625	1	0.4853515625
4651.5458984375	0.00833333333333333	0	-30	-2.50625	1	1.0390625
4654.720703125	0.00833333333333333	0	30	6.47083333333333	1	0.4326171875
4657.287109375	0.00833333333333333	0	30	6.47083333333333	2	0.6982421875
4660.345703125	0.00833333333333333	0	-30	-2.50625	2	0.7041015625
4663.4453125	0.00833333333333333	0	30	6.47083333333333	2	3.548828125
4669.060546875	0.00833333333333333	0	30	6.47083333333333	2	1.181640625
4672.6025390625	0.00833333333333333	0	30	6.47083333333333	2	0.9990234375
4675.7119140625	0.00833333333333333	0	-30	-2.50625	1	0.6181640625
4678.611328125	0.00833333333333333	0	-30	-2.50625	2	0.703125
4681.8447265625	0.00833333333333333	0	-30	-2.50625	1	0.7255859375
4685.1533203125	0.00833333333333333	0	-30	-2.50625	1	0.6171875
4688.2119140625	0.00833333333333333	0	-30	-2.50625	2	0.7099609375
4691.01171875	0.00833333333333333	0	30	6.47083333333333	1	0.55078125
4694.111328125	0.00833333333333333	0	-30	-2.50625	2	1.466796875
4697.861328125	0.00833333333333333	0	30	6.47083333333333	2	4.9736328125
4705.0947265625	0.00833333333333333	0	30	6.47083333333333	2	0.6201171875
4707.9443359375	0.00833333333333333	0	30	6.47083333333333	2	0.7626953125
4710.9697265625	0.00833333333333333	0	30	6.47083333333333	2	0.7373046875
4713.76953125	0.00833333333333333	0	30	6.47083333333333	2	1.681640625
4717.8779296875	0.00833333333333333	0	30	6.34583333333333	2	0.62109375
4720.5859375	0.00833333333333333	0	-30	-2.50625	2	0.849609375
4723.869140625	0.00833333333333333	0	30	6.34583333333333	2	1.1025390625
4727.501953125	0.00833333333333333	0	-30	-2.50625	2	0.9814453125
4730.7275390625	0.00833333333333333	0	30	6.34583333333333	2	0.412109375
4733.21875	0.00833333333333333	0	30	6.34583333333333	2	0.865234375
4736.39453125	0.00833333333333333	0	30	6.34583333333333	1	0.6494140625
4739.4697265625	0.00833333333333333	0	30	6.34583333333333	2	0.7822265625
4742.318359375	0.00833333333333333	0	-30	-2.50625	1	0.5576171875
4745.27734375	0.00833333333333333	0	30	6.34583333333333	1	0.798828125
4748.4267578125	0.00833333333333333	0	-30	-2.50625	1	0.673828125
4751.2607421875	0.00833333333333333	0	30	6.34583333333333	1	0.6162109375
4754.02734375	0.00833333333333333	0	30	6.34583333333333	1	0.47265625
4756.935546875	0.00833333333333333	0	30	6.34583333333333	1	0.5009765625
4759.8515625	0.00833333333333333	0	-30	-2.50625	1	0.544921875
4762.5439453125	0.00833333333333333	0	-30	-2.50625	1	0.716796875
4765.4765625	0.00833333333333333	0	-30	-2.50625	2	0.4326171875
4768.40234375	0.00833333333333333	0	30	6.34583333333333	1	0.5791015625
4771.3525390625	0.00833333333333333	0	30	6.47083333333333	1	0.732421875
4774.3017578125	0.00833333333333333	0	-30	-2.50625	1	1.1435546875
4777.66015625	0.00833333333333333	0	30	6.47083333333333	2	0.9296875
4780.9521484375	0.00833333333333333	0	-30	-2.50625	2	0.861328125
4784.1015625	0.00833333333333333	0	30	6.47083333333333	2	0.6640625
4786.8349609375	0.00833333333333333	0	30	6.47083333333333	2	0.6826171875
4789.751953125	0.00833333333333333	0	30	6.47083333333333	2	2.4853515625
4794.79296875	0.00833333333333333	0	30	6.47083333333333	2	0.884765625
4798.009765625	0.00833333333333333	0	-30	-2.50625	1	0.251953125
4800.568359375	0.00833333333333333	0	-30	-2.50625	2	0.693359375
4803.78515625	0.00833333333333333	0	-30	-2.50625	2	0.5244140625
4806.3681640625	0.00833333333333333	0	30	6.34583333333333	2	0.638671875
4809.443359375	0.00833333333333333	0	30	6.34583333333333	2	0.69921875
4812.4169921875	0.00833333333333333	0	-30	-2.50625	2	1.197265625
4815.80078125	0.00833333333333333	0	30	6.34583333333333	2	1.4453125
4819.642578125	0.00833333333333333	0	30	6.34583333333333	2	0.515625
4822.6669921875	0.00833333333333333	0	30	6.34583333333333	2	0.587890625
4825.7763671875	0.00833333333333333	0	30	6.22083333333333	1	0.814453125
4828.9931640625	0.00833333333333333	0	-30	-2.50625	1	0.6376953125
4831.708984375	0.00833333333333333	0	30	6.22083333333333	1	0.578125
4834.4013671875	0.00833333333333333	0	-30	-2.50625	1	0.4140625
4837.3515625	0.00833333333333333	0	30	6.22083333333333	1	0.3115234375
4839.951171875	0.00833333333333333	0	30	6.22083333333333	1	0.560546875
4843.0009765625	0.00833333333333333	0	-30	-2.50625	1	0.91796875
4846.3671875	0.00833333333333333	0	-30	-2.50625	1	0.6806640625
4849.2001953125	0.00833333333333333	0	-30	-2.50625	2	0.54296875
4851.951171875	0.00833333333333333	0	30	6.22083333333333	1	0.46484375
4854.8837890625	0.00833333333333333	0	-30	-2.50625	1	0.923828125
4858.2421875	0.00833333333333333	0	30	6.34583333333333	1	0.7578125
4861.2255859375	0.00833333333333333	0	30	6.34583333333333	1	0.7421875
4864.5009765625	0.00833333333333333	0	-30	-2.50625	1	0.451171875
4867.1923828125	0.00833333333333333	0	30	6.34583333333333	1	0.8720703125
4890.93359375	0.00833333333333333	0	-30	-2.50625	2	0.69921875
4894.158203125	0.00833333333333333	0	-30	-2.50625	2	0.619140625
4896.908203125	0.00833333333333333	0	30	6.34583333333333	2	0.5888671875
4899.6416015625	0.00833333333333333	0	-30	-2.50625	1	0.5517578125
4902.5830078125	0.00833333333333333	0	30	6.34583333333333	2	0.5224609375
4905.599609375	0.00833333333333333	0	-30	-2.50625	1	0.3935546875
4908.4921875	0.00833333333333333	0	-30	-2.50625	1	0.7177734375
4911.6669921875	0.00833333333333333	0	30	6.34583333333333	2	0.5341796875
4914.2666015625	0.00833333333333333	0	30	6.34583333333333	2	1.791015625
4918.349609375	0.00833333333333333	0	30	6.34583333333333	2	0.6123046875
4921.4912109375	0.00833333333333333	0	-30	-2.50625	1	0.6787109375
4924.3662109375	0.00833333333333333	0	-30	-2.50625	2	0.5322265625
4927.2080078125	0.00833333333333333	0	30	6.22083333333333	1	1.2021484375
4930.7333984375	0.00833333333333333	0	-30	-2.50625	2	0.7890625
4933.791015625	0.00833333333333333	0	30	6.22083333333333	2	0.5556640625
4936.4658203125	0.00833333333333333	0	30	6.22083333333333	2	0.873046875
4939.8994140625	0.00833333333333333	0	30	6.22083333333333	1	0.607421875
4943.056640625	0.00833333333333333	0	30	6.22083333333333	2	0.849609375
4946.0576171875	0.00833333333333333	0	-30	-2.50625	2	0.7294921875
4949.0830078125	0.00833333333333333	0	-30	-2.50625	2	0.6240234375
4952.0830078125	0.00833333333333333	0	-30	-2.50625	2	0.6396484375
4954.916015625	0.00833333333333333	0	-30	-2.63125	2	0.5185546875
4957.865234375	0.00833333333333333	0	-30	-2.63125	2	0.5703125
4960.57421875	0.00833333333333333	0	-30	-2.63125	2	0.5888671875
4963.357421875	0.00833333333333333	0	-30	-2.63125	2	0.4140625
4965.9990234375	0.00833333333333333	0	-30	-2.63125	2	0.7080078125
4969.291015625	0.00833333333333333	0	30	6.22083333333333	2	0.544921875
4971.9736328125	0.00833333333333333	0	30	6.22083333333333	2	0.765625
4975.2744140625	0.00833333333333333	0	-30	-2.75625	2	0.521484375
4978.0078125	0.00833333333333333	0	-30	-2.75625	2	0.5166015625
4980.798828125	0.00833333333333333	0	-30	-2.75625	2	2.4130859375
4985.33203125	0.00833333333333333	0	-30	-2.75625	2	0.6318359375
4988.298828125	0.00833333333333333	0	30	6.22083333333333	1	0.4892578125
4991.0986328125	0.00833333333333333	0	-30	-2.75625	1	0.4169921875
4993.7978515625	0.00833333333333333	0	-30	-2.75625	1	3.341796875
4999.1982421875	0.00833333333333333	0	30	6.22083333333333	1	1.1904296875
5002.6318359375	0.00833333333333333	0	-30	-2.75625	1	0.5966796875
5005.3564453125	0.00833333333333333	0	-30	-2.75625	1	0.7041015625
5008.20703125	0.00833333333333333	0	30	6.22083333333333	2	4.8779296875
5015.572265625	0.00833333333333333	0	-30	-2.75625	1	0.560546875
5018.373046875	0.00833333333333333	0	30	6.22083333333333	1	0.6162109375
5021.15625	0.00833333333333333	0	-30	-2.63125	1	0.529296875
5023.9814453125	0.00833333333333333	0	-30	-2.63125	1	0.607421875
5026.71484375	0.00833333333333333	0	-30	-2.63125	1	0.5859375
5029.564453125	0.00833333333333333	0	30	6.22083333333333	2	1.0166015625
5032.671875	0.00833333333333333	0	30	6.22083333333333	1	0.4130859375
5035.3984375	0.00833333333333333	0	30	6.22083333333333	2	0.6787109375
5038.1982421875	0.00833333333333333	0	30	6.22083333333333	2	0.7275390625
5041.0478515625	0.00833333333333333	0	30	6.22083333333333	2	0.509765625
5043.72265625	0.00833333333333333	0	30	6.22083333333333	1	0.6591796875
5046.556640625	0.00833333333333333	0	-30	-2.63125	1	0.8173828125
5049.85546875	0.00833333333333333	0	-30	-2.63125	1	0.57421875
5052.9814453125	0.00833333333333333	0	-30	-2.50625	1	1.0087890625
5056.09765625	0.00833333333333333	0	30	6.22083333333333	2	0.9482421875
5059.3232421875	0.00833333333333333	0	-30	-2.50625	1	0.69140625
5062.3896484375	0.00833333333333333	0	-30	-2.50625	2	0.6572265625
5065.40625	0.00833333333333333	0	-30	-2.50625	2	2.9521484375
5070.5888671875	0.00833333333333333	0	-30	-2.50625	2	4.009765625
5076.755859375	0.00833333333333333	0	30	6.22083333333333	2	0.9873046875
5080.2060546875	0.00833333333333333	0	30	6.22083333333333	1	0.7685546875
5083.3388671875	0.00833333333333333	0	-30	-2.50625	1	0.8525390625
5086.447265625	0.00833333333333333	0	-30	-2.50625	1	0.5595703125
5089.3056640625	0.00833333333333333	0	30	6.22083333333333	1	0.7255859375
5092.4892578125	0.00833333333333333	0	-30	-2.50625	1	0.6787109375
5095.4130859375	0.00833333333333333	0	-30	-2.50625	1	0.6826171875
5098.255859375	0.00833333333333333	0	30	6.22083333333333	2	1.0234375
5101.638671875	0.00833333333333333	0	30	6.22083333333333	2	0.6005859375
5104.7392578125	0.00833333333333333	0	30	6.22083333333333	2	0.404296875
5107.34765625	0.00833333333333333	0	-30	-2.50625	1	0.64453125
5110.35546875	0.00833333333333333	0	-30	-2.38125	1	0.62890625
5113.1552734375	0.00833333333333333	0	30	6.22083333333333	1	0.7890625
5116.1474609375	0.00833333333333333	0	30	6.22083333333333	2	0.5810546875
5119.072265625	0.00833333333333333	0	-30	-2.38125	1	0.7041015625
5122.080078125	0.00833333333333333	0	30	6.22083333333333	1	0.6396484375
5125.3134765625	0.00833333333333333	0	30	6.22083333333333	1	0.5908203125
5128.421875	0.00833333333333333	0	-30	-2.38125	1	0.970703125
5131.5888671875	0.00833333333333333	0	30	6.22083333333333	2	0.740234375
5134.4384765625	0.00833333333333333	0	-30	-2.38125	2	1.0341796875
5137.6630859375	0.00833333333333333	0	30	6.22083333333333	2	1.28125
5141.271484375	0.00833333333333333	0	-30	-2.38125	2	0.712890625
