onset	duration	titr	surround	centre	response	rt
1.83984375	0.00833333333333333	1	-30	-10	1	0.8564453125
4.96484375	0.00833333333333333	1	30	12	2	0.5234375
7.806640625	0.00833333333333333	1	-30	-9	1	0.513671875
10.3232421875	0.00833333333333333	1	-30	14	2	0.5732421875
13.255859375	0.00833333333333333	1	-30	-8	1	0.697265625
16.314453125	0.00833333333333333	1	NaN	12	2	0.4619140625
19.123046875	0.00833333333333333	1	NaN	-11	1	0.5576171875
21.8896484375	0.00833333333333333	1	NaN	11	2	0.447265625
24.6806640625	0.00833333333333333	1	30	-15	1	0.4560546875
27.2890625	0.00833333333333333	1	30	-14	1	0.5517578125
29.8564453125	0.00833333333333333	1	NaN	10	2	0.5126953125
32.587890625	0.00833333333333333	1	-30	-7	1	0.6298828125
35.505859375	0.00833333333333333	1	NaN	9	2	0.4638671875
38.4892578125	0.00833333333333333	1	-30	-6	1	0.4716796875
41.380859375	0.00833333333333333	1	-30	13	2	0.4130859375
44.005859375	0.00833333333333333	1	-30	12	2	0.443359375
46.8134765625	0.00833333333333333	1	-30	-5	1	0.4921875
49.7724609375	0.00833333333333333	1	-30	11	2	0.4453125
52.330078125	0.00833333333333333	1	-30	10	2	0.5517578125
55.263671875	0.00833333333333333	1	NaN	8	2	0.4345703125
58.072265625	0.00833333333333333	1	30	11	2	0.4814453125
60.9970703125	0.00833333333333333	1	30	-13	1	0.3974609375
63.7626953125	0.00833333333333333	1	30	-12	1	0.4716796875
66.2724609375	0.00833333333333333	1	NaN	7	2	0.4658203125
69.146484375	0.00833333333333333	1	-30	9	2	0.431640625
72.0966796875	0.00833333333333333	1	NaN	-10	1	0.3857421875
74.7548828125	0.00833333333333333	1	-30	-4	1	0.50390625
77.23046875	0.00833333333333333	1	NaN	6	2	0.404296875
80.095703125	0.00833333333333333	1	-30	-3	2	0.5068359375
82.796875	0.00833333333333333	1	30	-11	1	0.4296875
85.4970703125	0.00833333333333333	1	NaN	-9	1	0.3623046875
87.9296875	0.00833333333333333	1	-30	8	2	0.45703125
90.8466796875	0.00833333333333333	1	NaN	-8	1	0.388671875
93.3466796875	0.00833333333333333	1	30	10	2	0.48828125
96.330078125	0.00833333333333333	1	30	9	2	0.4892578125
99.1552734375	0.00833333333333333	1	30	8	2	0.416015625
101.9052734375	0.00833333333333333	1	NaN	-7	1	0.466796875
104.388671875	0.00833333333333333	1	30	7	2	0.54296875
107.279296875	0.00833333333333333	1	-30	-4	1	0.6201171875
109.9716796875	0.00833333333333333	1	-30	-3	1	0.6240234375
112.6708984375	0.00833333333333333	1	-30	7	2	0.5009765625
115.4462890625	0.00833333333333333	1	30	-10	1	0.421875
118.1298828125	0.00833333333333333	1	-30	-2	2	0.498046875
120.99609375	0.00833333333333333	1	30	6	2	0.4560546875
123.9208984375	0.00833333333333333	1	NaN	5	2	0.4833984375
126.5625	0.00833333333333333	1	30	5	2	0.5302734375
129.169921875	0.00833333333333333	1	30	-9	1	0.4423828125
131.8291015625	0.00833333333333333	1	30	4	2	1.103515625
135.3212890625	0.00833333333333333	1	NaN	-6	1	0.4111328125
137.904296875	0.00833333333333333	1	-30	-3	1	1.2041015625
141.154296875	0.00833333333333333	1	NaN	4	2	0.6669921875
143.986328125	0.00833333333333333	1	NaN	-5	1	0.482421875
146.5537109375	0.00833333333333333	1	30	-8	1	0.443359375
149.3125	0.00833333333333333	1	-30	-2	2	0.7001953125
152.2041015625	0.00833333333333333	1	NaN	-4	1	0.5693359375
154.927734375	0.00833333333333333	1	-30	6	2	0.4609375
157.736328125	0.00833333333333333	1	30	-7	1	0.4609375
160.2119140625	0.00833333333333333	1	NaN	3	2	0.4814453125
163.228515625	0.00833333333333333	1	30	-6	1	0.4814453125
165.828125	0.00833333333333333	1	-30	-3	2	0.4892578125
168.8037109375	0.00833333333333333	1	-30	-4	1	0.9775390625
172.3125	0.00833333333333333	1	30	3	2	0.517578125
175.0791015625	0.00833333333333333	1	NaN	-3	1	0.3271484375
177.802734375	0.00833333333333333	1	30	-5	1	0.451171875
180.6875	0.00833333333333333	1	30	2	1	0.783203125
183.75390625	0.00833333333333333	1	NaN	2	2	0.9404296875
186.87890625	0.00833333333333333	1	-30	-3	2	0.943359375
190.2783203125	0.00833333333333333	1	NaN	-2	2	1.087890625
193.8115234375	0.00833333333333333	1	NaN	-3	1	1.3076171875
197.2197265625	0.00833333333333333	1	-30	-4	1	1.6591796875
200.9453125	0.00833333333333333	1	-30	5	2	0.78125
203.828125	0.00833333333333333	1	NaN	-2	1	0.611328125
206.76953125	0.00833333333333333	1	NaN	1	2	0.9658203125
209.978515625	0.00833333333333333	1	-30	-3	2	1.541015625
213.685546875	0.00833333333333333	1	-30	-4	2	0.673828125
216.8203125	0.00833333333333333	1	-30	4	2	0.6669921875
220.0283203125	0.00833333333333333	1	30	3	2	1.203125
223.7197265625	0.00833333333333333	1	NaN	-1	2	1.103515625
227.052734375	0.00833333333333333	1	30	2	2	0.8671875
230.2109375	0.00833333333333333	1	-30	3	2	0.59765625
233.2783203125	0.00833333333333333	1	NaN	0	1	1.3212890625
236.89453125	0.00833333333333333	1	-30	-5	1	1.0732421875
240.2861328125	0.00833333333333333	1	30	-4	1	0.7783203125
243.369140625	0.00833333333333333	1	30	1	1	0.6552734375
246.3115234375	0.00833333333333333	1	NaN	-2	1	0.5849609375
249.4443359375	0.00833333333333333	1	-30	2	2	0.755859375
252.4521484375	0.00833333333333333	1	30	2	1	0.7880859375
288.78515625	0.00833333333333333	1	NaN	-1	1	0.560546875
291.744140625	0.00833333333333333	1	30	-3	1	0.5859375
294.6689453125	0.00833333333333333	1	NaN	0	1	0.7646484375
297.8515625	0.00833333333333333	1	-30	1	2	0.5185546875
300.4189453125	0.00833333333333333	1	30	3	1	0.5751953125
303.3017578125	0.00833333333333333	1	-30	0	2	0.5009765625
306.251953125	0.00833333333333333	1	NaN	1	2	0.646484375
308.9599609375	0.00833333333333333	1	NaN	1	2	0.6826171875
311.8515625	0.00833333333333333	1	-30	-1	2	0.646484375
314.8515625	0.00833333333333333	1	NaN	0	1	0.638671875
317.6015625	0.00833333333333333	1	30	-2	1	0.609375
320.634765625	0.00833333333333333	1	30	4	2	1.1123046875
323.826171875	0.00833333333333333	1	30	3	2	0.6650390625
327.0185546875	0.00833333333333333	1	30	-1	1	0.6240234375
329.7265625	0.00833333333333333	1	NaN	1	2	0.5087890625
332.41015625	0.00833333333333333	1	30	0	1	0.6328125
335.326171875	0.00833333333333333	1	30	2	1	0.6689453125
338.4013671875	0.00833333333333333	1	NaN	0	1	0.681640625
341.41796875	0.00833333333333333	1	-30	-2	2	0.6416015625
344.30859375	0.00833333333333333	1	NaN	1	2	0.5830078125
347.0595703125	0.00833333333333333	1	-30	-3	2	0.6640625
350.091796875	0.00833333333333333	1	30	3	2	0.591796875
352.8759765625	0.00833333333333333	1	30	1	1	0.7275390625
355.7265625	0.00833333333333333	1	-30	-4	1	0.60546875
358.576171875	0.00833333333333333	1	30	2	1	0.68359375
361.4833984375	0.00833333333333333	1	30	2	1	0.6005859375
364.1845703125	0.00833333333333333	1	-30	-3	1	0.6279296875
366.9013671875	0.00833333333333333	1	30	3	1	0.5751953125
369.892578125	0.00833333333333333	1	NaN	0	1	0.4794921875
372.875	0.00833333333333333	1	NaN	0	1	0.6572265625
375.91796875	0.00833333333333333	1	-30	-2	1	0.89453125
379.3173828125	0.00833333333333333	1	30	3	1	1.2548828125
383.0751953125	0.00833333333333333	1	NaN	1	1	0.681640625
386.1923828125	0.00833333333333333	1	-30	-1	1	0.5009765625
388.81640625	0.00833333333333333	1	30	4	1	0.5087890625
391.576171875	0.00833333333333333	1	30	4	2	0.900390625
394.9423828125	0.00833333333333333	1	-30	0	2	0.599609375
397.724609375	0.00833333333333333	1	-30	-1	2	0.5927734375
400.6337890625	0.00833333333333333	1	30	3	2	0.68359375
403.8671875	0.00833333333333333	1	30	2	2	1.2822265625
407.466796875	0.00833333333333333	1	30	5	2	0.9306640625
410.55859375	0.00833333333333333	1	30	4	2	0.783203125
413.875	0.00833333333333333	1	NaN	2	2	0.9072265625
416.9423828125	0.00833333333333333	1	NaN	1	2	0.583984375
419.7421875	0.00833333333333333	1	30	3	2	0.51953125
422.5419921875	0.00833333333333333	1	30	2	2	0.6318359375
425.7001953125	0.00833333333333333	1	-30	-2	2	0.578125
428.7421875	0.00833333333333333	1	30	1	1	0.8076171875
431.9833984375	0.00833333333333333	1	30	1	1	0.9033203125
435.1083984375	0.00833333333333333	1	NaN	0	1	0.650390625
437.9833984375	0.00833333333333333	1	30	2	1	0.8310546875
440.8740234375	0.00833333333333333	1	30	3	2	0.716796875
443.916015625	0.00833333333333333	1	-30	-3	2	0.619140625
446.6494140625	0.00833333333333333	1	30	2	1	0.701171875
449.5419921875	0.00833333333333333	1	30	2	2	1.056640625
453.125	0.00833333333333333	1	-30	-4	1	0.7216796875
456.341796875	0.00833333333333333	1	-30	-3	2	0.8173828125
459.30859375	0.00833333333333333	1	-30	-4	1	1.39453125
462.9248046875	0.00833333333333333	1	30	1	2	1.234375
466.5166015625	0.00833333333333333	1	30	3	2	1.123046875
469.8662109375	0.00833333333333333	1	30	0	1	0.7734375
472.8232421875	0.00833333333333333	1	NaN	1	1	1.9365234375
477.2080078125	0.00833333333333333	1	NaN	2	2	0.6875
480.416015625	0.00833333333333333	1	30	1	1	0.744140625
483.32421875	0.00833333333333333	1	-30	-3	2	0.7236328125
486.482421875	0.00833333333333333	1	-30	-4	1	0.8134765625
489.6328125	0.00833333333333333	1	30	2	2	0.8154296875
492.8076171875	0.00833333333333333	1	30	1	1	0.7529296875
495.9658203125	0.00833333333333333	1	30	2	1	0.6904296875
498.916015625	0.00833333333333333	1	NaN	1	1	0.5400390625
501.482421875	0.00833333333333333	1	30	3	2	0.90234375
504.4658203125	0.00833333333333333	1	-30	-3	1	0.71875
507.4326171875	0.00833333333333333	1	NaN	2	2	0.6796875
510.5908203125	0.00833333333333333	1	NaN	1	2	0.833984375
513.8818359375	0.00833333333333333	1	-30	-2	1	0.783203125
516.740234375	0.00833333333333333	1	NaN	0	1	0.876953125
519.7568359375	0.00833333333333333	1	NaN	1	2	0.9169921875
523.0576171875	0.00833333333333333	1	30	2	1	0.744140625
526.0234375	0.00833333333333333	1	-30	-1	2	0.6259765625
529.048828125	0.00833333333333333	1	30	3	2	0.9130859375
532.181640625	0.00833333333333333	1	30	2	2	0.9560546875
535.33984375	0.00833333333333333	1	30	1	2	0.8779296875
538.6806640625	0.00833333333333333	1	30	0	1	0.7451171875
541.7822265625	0.00833333333333333	1	-30	-2	1	0.7724609375
544.673828125	0.00833333333333333	1	-30	-1	2	0.7763671875
547.7900390625	0.00833333333333333	1	NaN	1.25	2	0.7802734375
551.08203125	0.00833333333333333	1	30	2.66666666666667	2	0.6328125
554.0400390625	0.00833333333333333	1	NaN	0.25	2	0.73828125
557.0146484375	0.00833333333333333	1	-30	-3.5	2	0.7001953125
559.94140625	0.00833333333333333	1	30	2.54166666666667	2	0.75
563.1318359375	0.00833333333333333	1	-30	-3.625	2	0.8310546875
566.1552734375	0.00833333333333333	1	NaN	1.125	2	0.615234375
568.9228515625	0.00833333333333333	1	-30	-2.5	1	0.759765625
572.0068359375	0.00833333333333333	1	NaN	0.125	1	0.556640625
574.9140625	0.00833333333333333	1	30	2.41666666666667	1	0.6416015625
577.8642578125	0.00833333333333333	1	30	1.66666666666667	1	0.619140625
580.53125	0.00833333333333333	1	30	1.79166666666667	1	0.5283203125
583.455078125	0.00833333333333333	1	30	2.54166666666667	1	0.556640625
586.33984375	0.00833333333333333	1	-30	-2.375	1	0.5439453125
637.5888671875	0.00833333333333333	1	30	1.91666666666667	2	0.80859375
640.546875	0.00833333333333333	1	30	2.66666666666667	2	1.130859375
643.763671875	0.00833333333333333	1	30	1.79166666666667	1	0.6181640625
646.86328125	0.00833333333333333	1	-30	-3.75	1	0.7744140625
649.98046875	0.00833333333333333	1	NaN	1	2	0.5693359375
652.6806640625	0.00833333333333333	1	NaN	0.25	2	0.62890625
655.5458984375	0.00833333333333333	1	30	2.54166666666667	2	0.8681640625
658.447265625	0.00833333333333333	1	NaN	0.125	2	0.5830078125
661.2724609375	0.00833333333333333	1	30	2.41666666666667	1	0.60546875
664.0048828125	0.00833333333333333	1	-30	-2.25	2	0.625
666.7802734375	0.00833333333333333	1	NaN	0	1	0.74609375
669.796875	0.00833333333333333	1	NaN	0.875	2	0.5615234375
672.6220703125	0.00833333333333333	1	-30	-3.625	2	0.6806640625
675.763671875	0.00833333333333333	1	-30	-3.75	2	0.73828125
678.962890625	0.00833333333333333	1	-30	-2.375	2	0.908203125
682.1884765625	0.00833333333333333	1	-30	-3.875	2	0.826171875
685.3466796875	0.00833333333333333	1	-30	-2.5	2	0.67578125
688.1962890625	0.00833333333333333	1	NaN	0.125	2	0.474609375
691.1630859375	0.00833333333333333	1	30	1.91666666666667	2	0.572265625
693.8212890625	0.00833333333333333	1	-30	-4	2	0.5458984375
696.48828125	0.00833333333333333	1	-30	-4.125	2	0.470703125
699.021484375	0.00833333333333333	1	NaN	0	2	0.44140625
701.62109375	0.00833333333333333	1	30	2.54166666666667	2	0.4423828125
704.537109375	0.00833333333333333	1	NaN	0.75	2	0.3583984375
706.99609375	0.00833333333333333	1	NaN	0.625	2	0.515625
709.61328125	0.00833333333333333	1	-30	-4.25	2	0.5947265625
712.4365234375	0.00833333333333333	1	NaN	-0.125	2	0.5546875
715.0380859375	0.00833333333333333	1	30	2.41666666666667	2	1.0498046875
718.4208984375	0.00833333333333333	1	-30	-2.625	1	0.6357421875
721.271484375	0.00833333333333333	1	30	1.79166666666667	1	0.6083984375
724.087890625	0.00833333333333333	1	30	2.29166666666667	2	1.3369140625
727.8125	0.00833333333333333	1	-30	-4.375	1	0.5556640625
730.6123046875	0.00833333333333333	1	-30	-4.25	1	0.6201171875
733.62890625	0.00833333333333333	1	30	1.91666666666667	1	0.5390625
736.6123046875	0.00833333333333333	1	NaN	-0.25	1	0.7568359375
739.75390625	0.00833333333333333	1	NaN	0.5	1	0.54296875
742.595703125	0.00833333333333333	1	-30	-4.125	1	0.541015625
745.4453125	0.00833333333333333	1	30	2.04166666666667	1	0.5400390625
748.1123046875	0.00833333333333333	1	30	2.16666666666667	1	0.568359375
750.9873046875	0.00833333333333333	1	-30	-4	1	0.61328125
753.978515625	0.00833333333333333	1	30	2.16666666666667	1	0.5908203125
756.7958984375	0.00833333333333333	1	30	2.29166666666667	1	0.7255859375
759.8291015625	0.00833333333333333	1	-30	-2.5	1	0.595703125
762.9033203125	0.00833333333333333	1	30	2.29166666666667	1	0.6337890625
765.970703125	0.00833333333333333	1	NaN	0.625	1	0.623046875
768.787109375	0.00833333333333333	1	30	2.41666666666667	1	0.56640625
771.6875	0.00833333333333333	1	30	2.41666666666667	2	0.9541015625
775.078125	0.00833333333333333	1	30	2.54166666666667	2	0.8759765625
778.162109375	0.00833333333333333	1	NaN	0.75	2	0.767578125
781.1787109375	0.00833333333333333	1	30	2.41666666666667	1	0.8154296875
784.0703125	0.00833333333333333	1	30	2.29166666666667	1	0.67578125
787.12890625	0.00833333333333333	1	-30	-2.375	2	0.6572265625
789.9365234375	0.00833333333333333	1	30	2.54166666666667	2	1.2578125
793.7021484375	0.00833333333333333	1	NaN	-0.125	1	1.4443359375
797.4189453125	0.00833333333333333	1	30	2.41666666666667	1	0.7041015625
800.1533203125	0.00833333333333333	1	NaN	0	1	0.5849609375
803.251953125	0.00833333333333333	1	30	2.54166666666667	1	0.7587890625
806.361328125	0.00833333333333333	1	NaN	0.125	1	0.5615234375
809.41015625	0.00833333333333333	1	30	2.66666666666667	1	0.5849609375
812.052734375	0.00833333333333333	1	-30	-3.875	1	0.5498046875
814.7529296875	0.00833333333333333	1	NaN	0.25	1	0.43359375
817.4951171875	0.00833333333333333	1	NaN	0.375	2	1.2119140625
821.0859375	0.00833333333333333	1	-30	-3.75	1	0.95703125
824.544921875	0.00833333333333333	1	-30	-2.5	1	1.0419921875
828.0693359375	0.00833333333333333	1	30	2.41666666666667	2	0.8056640625
831.0771484375	0.00833333333333333	1	NaN	0.25	1	0.8623046875
834.02734375	0.00833333333333333	1	-30	-3.625	1	0.7529296875
837.119140625	0.00833333333333333	1	-30	-2.375	1	0.97265625
840.2275390625	0.00833333333333333	1	NaN	0.375	2	0.5439453125
843.1943359375	0.00833333333333333	1	NaN	0.25	2	0.6259765625
846.001953125	0.00833333333333333	1	NaN	0.125	1	0.8740234375
849.26953125	0.00833333333333333	1	NaN	0.25	2	0.54296875
852.34375	0.00833333333333333	1	30	2.29166666666667	2	0.748046875
855.427734375	0.00833333333333333	1	-30	-3.5	2	0.7529296875
858.302734375	0.00833333333333333	1	-30	-3.625	2	1.166015625
861.5693359375	0.00833333333333333	1	-30	-3.75	2	0.8427734375
864.9443359375	0.00833333333333333	1	-30	-3.875	1	0.7080078125
867.71875	0.00833333333333333	1	30	2.16666666666667	2	0.7255859375
870.8935546875	0.00833333333333333	1	30	2.04166666666667	1	0.703125
873.685546875	0.00833333333333333	1	NaN	0.125	2	0.51953125
876.5439453125	0.00833333333333333	1	-30	-3.75	1	1.021484375
879.560546875	0.00833333333333333	1	-30	-3.625	2	0.9169921875
882.8271484375	0.00833333333333333	1	NaN	0.625	2	0.5302734375
885.8017578125	0.00833333333333333	1	30	2.79166666666667	2	0.603515625
888.7353515625	0.00833333333333333	1	-30	-2.25	2	0.58203125
891.7021484375	0.00833333333333333	1	-30	-3.75	1	1.111328125
895.2255859375	0.00833333333333333	1	NaN	0.5	2	0.6201171875
898.068359375	0.00833333333333333	1	NaN	0	2	0.45703125
900.9755859375	0.00833333333333333	1	30	2.16666666666667	2	0.478515625
903.9267578125	0.00833333333333333	1	30	2.66666666666667	2	0.5751953125
906.96875	0.00833333333333333	1	NaN	0.375	2	0.6455078125
910.05078125	0.00833333333333333	1	NaN	-0.125	2	0.4033203125
912.759765625	0.00833333333333333	1	NaN	-0.25	2	0.5263671875
915.3935546875	0.00833333333333333	1	-30	-3.625	2	0.5244140625
918.259765625	0.00833333333333333	1	-30	-3.75	2	0.8583984375
921.1015625	0.00833333333333333	1	-30	-2.375	2	0.689453125
923.9677734375	0.00833333333333333	1	NaN	0.25	2	0.55859375
926.6767578125	0.00833333333333333	1	-30	-2.5	2	0.521484375
929.6337890625	0.00833333333333333	1	NaN	-0.375	2	0.6044921875
932.5849609375	0.00833333333333333	1	30	2.54166666666667	2	0.59765625
935.359375	0.00833333333333333	1	30	2.41666666666667	2	0.607421875
989.900390625	0.00833333333333333	1	-30	-2.625	1	0.748046875
993.0341796875	0.00833333333333333	1	-30	-3.875	2	0.53515625
995.775390625	0.00833333333333333	1	-30	-2.5	2	0.4814453125
998.400390625	0.00833333333333333	1	30	2.29166666666667	1	0.6005859375
1001.025390625	0.00833333333333333	1	NaN	0.125	2	0.6640625
1003.900390625	0.00833333333333333	1	NaN	0	1	0.7490234375
1007.1337890625	0.00833333333333333	1	NaN	-0.5	2	0.5712890625
1010.06640625	0.00833333333333333	1	30	2.41666666666667	1	0.5673828125
1013.033203125	0.00833333333333333	1	-30	-2.625	1	0.6796875
1015.93359375	0.00833333333333333	1	-30	-4	1	0.572265625
1018.666015625	0.00833333333333333	1	-30	-3.875	1	0.607421875
1021.6748046875	0.00833333333333333	1	-30	-3.75	1	0.630859375
1024.791015625	0.00833333333333333	1	30	2.54166666666667	1	0.6904296875
1027.9326171875	0.00833333333333333	1	30	2.66666666666667	1	0.533203125
1030.7236328125	0.00833333333333333	1	-30	-3.625	1	0.5986328125
1033.3740234375	0.00833333333333333	1	-30	-3.5	1	0.556640625
1036	0.00833333333333333	1	-30	-3.375	1	0.5224609375
1038.607421875	0.00833333333333333	1	-30	-3.25	1	0.5546875
1041.3662109375	0.00833333333333333	1	30	2.79166666666667	1	0.5322265625
1043.890625	0.00833333333333333	1	NaN	-0.625	1	0.7119140625
1046.6826171875	0.00833333333333333	1	-30	-3.125	1	0.423828125
1049.1904296875	0.00833333333333333	1	NaN	-0.5	1	0.5888671875
1051.9326171875	0.00833333333333333	1	NaN	0.125	1	0.677734375
1054.8154296875	0.00833333333333333	1	NaN	-0.375	1	0.5078125
1057.4404296875	0.00833333333333333	1	NaN	0.25	1	0.490234375
1060.2080078125	0.00833333333333333	1	30	2.04166666666667	1	0.4990234375
1062.81640625	0.00833333333333333	1	-30	-3	1	0.474609375
1065.783203125	0.00833333333333333	1	NaN	-0.25	1	0.435546875
1068.482421875	0.00833333333333333	1	30	2.16666666666667	1	0.5048828125
1071.349609375	0.00833333333333333	1	-30	-2.875	1	0.4619140625
1073.916015625	0.00833333333333333	1	NaN	-0.125	1	0.51953125
1076.681640625	0.00833333333333333	1	NaN	0.375	1	0.6982421875
1079.44921875	0.00833333333333333	1	NaN	0	1	0.5302734375
1082.4814453125	0.00833333333333333	1	-30	-2.75	1	0.578125
1085.06640625	0.00833333333333333	1	30	2.29166666666667	2	0.7451171875
1087.8740234375	0.00833333333333333	1	30	2.16666666666667	1	0.5458984375
1090.5986328125	0.00833333333333333	1	-30	-2.625	1	0.6455078125
1093.5322265625	0.00833333333333333	1	-30	-2.5	2	0.7275390625
1096.3994140625	0.00833333333333333	1	-30	-2.5	1	1.1328125
1099.57421875	0.00833333333333333	1	NaN	0.125	1	1.0380859375
1103.048828125	0.00833333333333333	1	-30	-2.375	1	0.763671875
1106.1826171875	0.00833333333333333	1	NaN	0.5	2	0.501953125
1108.8994140625	0.00833333333333333	1	NaN	0.375	2	1.43359375
1112.740234375	0.00833333333333333	1	NaN	0.25	2	0.712890625
1115.939453125	0.00833333333333333	1	30	2.29166666666667	2	0.8173828125
1119.306640625	0.00833333333333333	1	30	2.16666666666667	2	0.6181640625
1122.181640625	0.00833333333333333	1	30	2.91666666666667	2	0.958984375
1125.640625	0.00833333333333333	1	NaN	0.125	2	0.8447265625
1128.673828125	0.00833333333333333	1	NaN	0	2	0.595703125
1131.7236328125	0.00833333333333333	1	-30	-2.625	1	0.78515625
1134.7236328125	0.00833333333333333	1	NaN	0.25	2	0.986328125
1137.8310546875	0.00833333333333333	1	30	2.79166666666667	1	0.7353515625
1140.6064453125	0.00833333333333333	1	30	2.91666666666667	2	0.759765625
1143.4892578125	0.00833333333333333	1	-30	-2.5	2	0.740234375
1146.58984375	0.00833333333333333	1	NaN	0.125	1	0.51953125
1149.6318359375	0.00833333333333333	1	NaN	-0.125	1	0.55859375
1152.490234375	0.00833333333333333	1	30	2.79166666666667	1	0.908203125
1155.5400390625	0.00833333333333333	1	NaN	0	2	0.673828125
1158.6650390625	0.00833333333333333	1	-30	-2.625	2	2.1650390625
1163.123046875	0.00833333333333333	1	NaN	-0.125	2	0.931640625
1166.115234375	0.00833333333333333	1	NaN	-0.25	2	0.546875
1168.796875	0.00833333333333333	1	NaN	-0.375	1	0.7216796875
1171.96484375	0.00833333333333333	1	30	2.04166666666667	1	0.673828125
1174.9150390625	0.00833333333333333	1	-30	-2.25	1	0.7392578125
1177.796875	0.00833333333333333	1	-30	-2.125	2	0.90625
1180.7724609375	0.00833333333333333	1	-30	-2.25	2	0.6181640625
1183.8310546875	0.00833333333333333	1	NaN	0.25	2	0.5439453125
1186.921875	0.00833333333333333	1	-30	-2.375	1	0.60546875
1189.58984375	0.00833333333333333	1	-30	-2.75	1	0.6259765625
1192.4140625	0.00833333333333333	1	NaN	0.125	2	1.0732421875
1195.58984375	0.00833333333333333	1	NaN	0	2	0.5537109375
1198.7060546875	0.00833333333333333	1	-30	-2.625	2	0.693359375
1201.755859375	0.00833333333333333	1	-30	-2.75	2	0.9716796875
1204.7646484375	0.00833333333333333	1	NaN	-0.125	2	0.7314453125
1207.73046875	0.00833333333333333	1	-30	-2.25	2	0.6611328125
1210.896484375	0.00833333333333333	1	-30	-2.375	2	0.51171875
1213.9638671875	0.00833333333333333	1	-30	-2.5	2	0.6201171875
1216.896484375	0.00833333333333333	1	NaN	-0.25	1	1.1513671875
1220.2724609375	0.00833333333333333	1	-30	-2.625	1	0.767578125
1223.36328125	0.00833333333333333	1	NaN	-0.125	2	0.7568359375
1226.3720703125	0.00833333333333333	1	-30	-2.875	1	0.8125
1229.4970703125	0.00833333333333333	1	-30	-2.5	2	0.6474609375
1232.2470703125	0.00833333333333333	1	-30	-2.625	1	0.9775390625
1235.455078125	0.00833333333333333	1	-30	-2.5	2	0.6015625
1238.5634765625	0.00833333333333333	1	30	2.16666666666667	2	0.701171875
1241.697265625	0.00833333333333333	1	NaN	-0.25	2	0.5673828125
1244.455078125	0.00833333333333333	1	NaN	-0.375	2	0.513671875
1247.3212890625	0.00833333333333333	1	NaN	-0.5	2	0.5283203125
1250.0966796875	0.00833333333333333	1	NaN	-0.625	2	0.46484375
1252.98828125	0.00833333333333333	1	NaN	-0.75	1	0.5732421875
1255.671875	0.00833333333333333	1	NaN	-0.625	1	1.0810546875
1258.87109375	0.00833333333333333	1	NaN	-0.5	1	0.5068359375
1261.73828125	0.00833333333333333	1	NaN	-0.375	1	0.6552734375
1264.73828125	0.00833333333333333	1	NaN	-0.25	1	0.7041015625
1267.5458984375	0.00833333333333333	1	NaN	-0.125	2	0.8076171875
1270.6962890625	0.00833333333333333	1	NaN	-0.25	1	0.4892578125
1273.5869140625	0.00833333333333333	1	NaN	-0.125	2	0.5908203125
1276.6298828125	0.00833333333333333	1	NaN	-0.25	2	0.8125
1279.755859375	0.00833333333333333	1	NaN	-0.375	2	1.0947265625
1282.9716796875	0.00833333333333333	1	NaN	-0.5	2	0.55859375
1285.5791015625	0.00833333333333333	1	NaN	-0.625	2	0.6552734375
1288.74609375	0.00833333333333333	1	NaN	-0.75	1	1.064453125
1300.62109375	0.00833333333333333	1	NaN	-0.625	1	0.8779296875
1303.896484375	0.00833333333333333	1	NaN	-0.5	1	0.658203125
1306.529296875	0.00833333333333333	1	NaN	-0.375	1	0.578125
1309.103515625	0.00833333333333333	1	NaN	-0.25	1	0.732421875
1311.8623046875	0.00833333333333333	1	NaN	-0.125	1	0.5166015625
1314.470703125	0.00833333333333333	1	NaN	0	2	0.8447265625
1317.7294921875	0.00833333333333333	1	NaN	-0.125	1	0.658203125
1320.6875	0.00833333333333333	0	-30	-2.78125	1	1.3876953125
1324.49609375	0.00833333333333333	0	30	2.41666666666667	1	1.34765625
1328.1630859375	0.00833333333333333	0	-30	-2.78125	1	1.0810546875
1331.4462890625	0.00833333333333333	0	-30	-2.78125	1	0.845703125
1334.7216796875	0.00833333333333333	0	-30	-2.78125	1	0.70703125
1337.6455078125	0.00833333333333333	0	30	2.41666666666667	2	0.87890625
1340.953125	0.00833333333333333	0	30	2.41666666666667	2	1.0107421875
1344.119140625	0.00833333333333333	0	-30	-2.78125	2	1.28515625
1347.677734375	0.00833333333333333	0	30	2.41666666666667	2	0.71875
1350.5859375	0.00833333333333333	0	-30	-2.78125	2	0.962890625
1353.861328125	0.00833333333333333	0	30	2.41666666666667	2	0.767578125
1356.802734375	0.00833333333333333	0	-30	-2.78125	2	0.666015625
1359.7939453125	0.00833333333333333	0	30	2.41666666666667	2	0.7705078125
1363.111328125	0.00833333333333333	0	-30	-2.78125	2	0.7978515625
1366.1865234375	0.00833333333333333	0	-30	-2.78125	1	1.1787109375
1369.810546875	0.00833333333333333	0	30	2.29166666666667	2	0.7705078125
1372.7607421875	0.00833333333333333	0	30	2.29166666666667	1	1.3330078125
1376.5107421875	0.00833333333333333	0	-30	-2.78125	1	1.19140625
1379.8603515625	0.00833333333333333	0	30	2.29166666666667	1	0.9853515625
1383.001953125	0.00833333333333333	0	30	2.29166666666667	1	0.7314453125
1386.0439453125	0.00833333333333333	0	30	2.29166666666667	1	0.7060546875
1388.9853515625	0.00833333333333333	0	30	2.29166666666667	1	0.572265625
1392.0771484375	0.00833333333333333	0	-30	-2.78125	1	0.705078125
1394.9853515625	0.00833333333333333	0	-30	-2.78125	1	0.548828125
1397.8857421875	0.00833333333333333	0	-30	-2.78125	2	0.736328125
1400.8525390625	0.00833333333333333	0	30	2.41666666666667	1	0.857421875
1403.693359375	0.00833333333333333	0	30	2.41666666666667	2	0.712890625
1406.4775390625	0.00833333333333333	0	30	2.41666666666667	1	0.904296875
1409.5439453125	0.00833333333333333	0	30	2.41666666666667	1	0.55078125
1412.4765625	0.00833333333333333	0	-30	-2.78125	2	0.681640625
1415.318359375	0.00833333333333333	0	30	2.41666666666667	1	0.919921875
1418.59375	0.00833333333333333	0	-30	-2.78125	2	0.6689453125
1421.3515625	0.00833333333333333	0	30	2.41666666666667	1	0.7353515625
1424.0849609375	0.00833333333333333	0	30	2.41666666666667	2	0.833984375
1426.9609375	0.00833333333333333	0	30	2.41666666666667	2	0.6298828125
1429.828125	0.00833333333333333	0	30	2.41666666666667	1	0.71484375
1432.8017578125	0.00833333333333333	0	30	2.41666666666667	2	0.7412109375
1435.7939453125	0.00833333333333333	0	-30	-2.78125	1	0.61328125
1438.8095703125	0.00833333333333333	0	-30	-2.78125	1	0.58203125
1441.4345703125	0.00833333333333333	0	-30	-2.78125	1	0.6689453125
1444.576171875	0.00833333333333333	0	-30	-2.78125	1	0.7197265625
1447.5185546875	0.00833333333333333	0	30	2.41666666666667	1	0.5927734375
1450.1015625	0.00833333333333333	0	-30	-2.78125	1	0.841796875
1453.068359375	0.00833333333333333	0	-30	-2.65625	2	0.619140625
1456.0517578125	0.00833333333333333	0	-30	-2.65625	2	0.7001953125
1459.1259765625	0.00833333333333333	0	-30	-2.65625	1	1.177734375
1462.3017578125	0.00833333333333333	0	30	2.41666666666667	1	0.72265625
1465.3017578125	0.00833333333333333	0	30	2.41666666666667	1	0.650390625
1468.28515625	0.00833333333333333	0	-30	-2.65625	2	1.0107421875
1471.55078125	0.00833333333333333	0	30	2.41666666666667	2	1.1220703125
1475.1923828125	0.00833333333333333	0	30	2.41666666666667	2	1.0078125
1478.2255859375	0.00833333333333333	0	-30	-2.65625	1	0.8466796875
1481.484375	0.00833333333333333	0	-30	-2.65625	2	0.7080078125
1484.28515625	0.00833333333333333	0	30	2.41666666666667	2	0.7236328125
1487.2099609375	0.00833333333333333	0	30	2.41666666666667	2	1.0634765625
1490.451171875	0.00833333333333333	0	30	2.41666666666667	1	1.3662109375
1494.1171875	0.00833333333333333	0	30	2.41666666666667	1	0.7880859375
1497.1337890625	0.00833333333333333	0	30	2.41666666666667	1	0.8193359375
1500.3251953125	0.00833333333333333	0	30	2.41666666666667	2	1.236328125
1503.5927734375	0.00833333333333333	0	-30	-2.65625	2	1.4404296875
1507.400390625	0.00833333333333333	0	30	2.41666666666667	2	0.6171875
1510.42578125	0.00833333333333333	0	-30	-2.65625	1	1.7685546875
1514.275390625	0.00833333333333333	0	30	2.41666666666667	1	0.7900390625
1517.55078125	0.00833333333333333	0	-30	-2.65625	1	1.458984375
1521.43359375	0.00833333333333333	0	30	2.41666666666667	1	1.0322265625
1524.93359375	0.00833333333333333	0	-30	-2.65625	1	1.28515625
1528.375	0.00833333333333333	0	30	2.41666666666667	1	1.099609375
1531.525390625	0.00833333333333333	0	30	2.41666666666667	1	1.205078125
1535.1083984375	0.00833333333333333	0	-30	-2.65625	1	1.013671875
1538.2666015625	0.00833333333333333	0	-30	-2.65625	1	0.9599609375
1541.3671875	0.00833333333333333	0	-30	-2.53125	1	0.68359375
1544.30078125	0.00833333333333333	0	-30	-2.53125	2	0.57421875
1546.94140625	0.00833333333333333	0	-30	-2.53125	2	0.662109375
1549.974609375	0.00833333333333333	0	-30	-2.53125	2	0.828125
1553.2998046875	0.00833333333333333	0	30	2.41666666666667	2	0.6875
1556.3251953125	0.00833333333333333	0	30	2.41666666666667	2	0.58203125
1559.0166015625	0.00833333333333333	0	-30	-2.53125	1	1.05859375
1562.5	0.00833333333333333	0	-30	-2.53125	1	0.759765625
1565.43359375	0.00833333333333333	0	30	2.41666666666667	2	0.6982421875
1568.30078125	0.00833333333333333	0	-30	-2.53125	1	0.7744140625
1620.357421875	0.00833333333333333	0	-30	-2.53125	1	1.16796875
1623.7744140625	0.00833333333333333	0	-30	-2.53125	1	1.5986328125
1627.5654296875	0.00833333333333333	0	30	2.41666666666667	1	0.83984375
1630.515625	0.00833333333333333	0	-30	-2.40625	2	0.498046875
1633.1318359375	0.00833333333333333	0	30	2.41666666666667	1	0.921875
1636.2412109375	0.00833333333333333	0	-30	-2.40625	2	0.556640625
1639.2236328125	0.00833333333333333	0	30	2.41666666666667	1	0.7021484375
1642.1982421875	0.00833333333333333	0	30	2.41666666666667	1	0.8076171875
1645.107421875	0.00833333333333333	0	30	2.41666666666667	1	0.5869140625
1647.8818359375	0.00833333333333333	0	30	2.54166666666667	1	0.8203125
1651.015625	0.00833333333333333	0	30	2.54166666666667	2	0.806640625
1654.31640625	0.00833333333333333	0	30	2.54166666666667	2	0.666015625
1657.5068359375	0.00833333333333333	0	30	2.54166666666667	2	0.515625
1660.45703125	0.00833333333333333	0	30	2.54166666666667	2	0.8212890625
1663.3232421875	0.00833333333333333	0	-30	-2.40625	2	0.5634765625
1665.9404296875	0.00833333333333333	0	30	2.54166666666667	2	0.6103515625
1668.990234375	0.00833333333333333	0	30	2.41666666666667	2	0.5927734375
1671.724609375	0.00833333333333333	0	-30	-2.40625	2	1.4345703125
1675.306640625	0.00833333333333333	0	-30	-2.40625	1	1.2685546875
1678.5986328125	0.00833333333333333	0	-30	-2.40625	2	0.640625
1681.40625	0.00833333333333333	0	30	2.41666666666667	2	0.7373046875
1684.28125	0.00833333333333333	0	30	2.41666666666667	1	0.982421875
1687.3310546875	0.00833333333333333	0	-30	-2.40625	2	0.900390625
1690.564453125	0.00833333333333333	0	30	2.41666666666667	2	0.5634765625
1693.21484375	0.00833333333333333	0	30	2.41666666666667	2	0.7373046875
1696.1396484375	0.00833333333333333	0	-30	-2.40625	2	0.98046875
1699.65625	0.00833333333333333	0	-30	-2.40625	2	0.9033203125
1703.123046875	0.00833333333333333	0	30	2.41666666666667	2	0.6689453125
1706.1396484375	0.00833333333333333	0	30	2.41666666666667	1	1.32421875
1709.58984375	0.00833333333333333	0	-30	-2.40625	2	0.6025390625
1712.4482421875	0.00833333333333333	0	30	2.41666666666667	2	0.6240234375
1715.1396484375	0.00833333333333333	0	-30	-2.53125	1	0.98046875
1718.2978515625	0.00833333333333333	0	-30	-2.53125	1	1.0791015625
1721.8232421875	0.00833333333333333	0	30	2.41666666666667	1	0.9853515625
1725.1640625	0.00833333333333333	0	30	2.41666666666667	2	1.044921875
1728.4228515625	0.00833333333333333	0	-30	-2.53125	1	0.7138671875
1731.189453125	0.00833333333333333	0	30	2.41666666666667	1	0.6435546875
1733.947265625	0.00833333333333333	0	-30	-2.53125	1	0.685546875
1736.9150390625	0.00833333333333333	0	30	2.41666666666667	1	0.677734375
1739.98046875	0.00833333333333333	0	-30	-2.53125	1	0.541015625
1742.7890625	0.00833333333333333	0	30	2.41666666666667	1	0.6923828125
1745.72265625	0.00833333333333333	0	-30	-2.40625	1	0.56640625
1748.6982421875	0.00833333333333333	0	-30	-2.40625	1	0.6875
1751.60546875	0.00833333333333333	0	-30	-2.40625	2	0.5400390625
1754.255859375	0.00833333333333333	0	-30	-2.40625	2	0.7861328125
1757.5634765625	0.00833333333333333	0	30	2.41666666666667	2	0.6142578125
1760.5966796875	0.00833333333333333	0	-30	-2.40625	2	0.9814453125
1763.689453125	0.00833333333333333	0	30	2.41666666666667	2	1.296875
1767.4140625	0.00833333333333333	0	30	2.41666666666667	1	0.755859375
1770.60546875	0.00833333333333333	0	30	2.41666666666667	1	0.564453125
1773.5634765625	0.00833333333333333	0	-30	-2.40625	1	0.55859375
1776.396484375	0.00833333333333333	0	-30	-2.40625	1	0.8134765625
1779.271484375	0.00833333333333333	0	-30	-2.40625	1	0.626953125
1782.0546875	0.00833333333333333	0	30	2.41666666666667	2	0.8359375
1785.0546875	0.00833333333333333	0	-30	-2.40625	1	0.740234375
1788.0634765625	0.00833333333333333	0	30	2.41666666666667	1	0.619140625
1791.046875	0.00833333333333333	0	-30	-2.40625	1	0.923828125
1794.3466796875	0.00833333333333333	0	-30	-2.28125	1	1.0009765625
1797.8046875	0.00833333333333333	0	30	2.41666666666667	2	0.7744140625
1800.7294921875	0.00833333333333333	0	30	2.41666666666667	1	0.9775390625
1803.796875	0.00833333333333333	0	30	2.41666666666667	2	0.7822265625
1806.73046875	0.00833333333333333	0	-30	-2.28125	1	0.689453125
1809.646484375	0.00833333333333333	0	30	2.41666666666667	1	0.533203125
1812.24609375	0.00833333333333333	0	-30	-2.28125	1	1.0849609375
1815.3798828125	0.00833333333333333	0	30	2.41666666666667	1	0.6162109375
1818.3798828125	0.00833333333333333	0	-30	-2.28125	2	0.7119140625
1821.36328125	0.00833333333333333	0	30	2.41666666666667	2	0.705078125
1824.1220703125	0.00833333333333333	0	-30	-2.28125	2	0.5380859375
1826.771484375	0.00833333333333333	0	30	2.41666666666667	2	0.5205078125
1829.62109375	0.00833333333333333	0	-30	-2.28125	2	0.783203125
1832.6796875	0.00833333333333333	0	-30	-2.28125	2	0.6201171875
1835.529296875	0.00833333333333333	0	-30	-2.28125	2	0.5068359375
1838.529296875	0.00833333333333333	0	-30	-2.40625	2	0.546875
1841.5546875	0.00833333333333333	0	-30	-2.40625	2	0.4580078125
1844.154296875	0.00833333333333333	0	30	2.41666666666667	2	0.73828125
1847.24609375	0.00833333333333333	0	30	2.41666666666667	2	0.7265625
1850.037109375	0.00833333333333333	0	-30	-2.40625	2	0.6162109375
1853.12890625	0.00833333333333333	0	-30	-2.40625	1	0.8916015625
1856.029296875	0.00833333333333333	0	30	2.41666666666667	1	25.6083984375
1883.912109375	0.00833333333333333	0	30	2.41666666666667	2	1.0302734375
1921.4951171875	0.00833333333333333	0	-30	-2.40625	1	1.1123046875
1924.953125	0.00833333333333333	0	-30	-2.40625	2	0.7744140625
1928.0859375	0.00833333333333333	0	-30	-2.40625	2	1.017578125
1931.13671875	0.00833333333333333	0	30	2.41666666666667	2	0.9423828125
1934.2197265625	0.00833333333333333	0	-30	-2.40625	2	0.6923828125
1937.044921875	0.00833333333333333	0	30	2.41666666666667	2	0.5947265625
1939.8359375	0.00833333333333333	0	30	2.41666666666667	2	0.5712890625
1942.6865234375	0.00833333333333333	0	30	2.41666666666667	2	0.537109375
1945.2939453125	0.00833333333333333	0	-30	-2.40625	2	0.59375
1948.2275390625	0.00833333333333333	0	-30	-2.40625	2	0.5166015625
1951.0771484375	0.00833333333333333	0	30	2.29166666666667	2	0.6025390625
1953.7529296875	0.00833333333333333	0	-30	-2.53125	2	0.5595703125
1956.6953125	0.00833333333333333	0	30	2.29166666666667	2	0.697265625
1959.5771484375	0.00833333333333333	0	-30	-2.53125	1	0.759765625
1962.40234375	0.00833333333333333	0	-30	-2.53125	1	1.1904296875
1966.0439453125	0.00833333333333333	0	-30	-2.53125	1	0.6767578125
1968.869140625	0.00833333333333333	0	-30	-2.53125	1	0.84375
1971.8857421875	0.00833333333333333	0	30	2.29166666666667	2	0.8271484375
1975.15234375	0.00833333333333333	0	30	2.29166666666667	1	0.8330078125
1978.21875	0.00833333333333333	0	30	2.29166666666667	1	0.669921875
1981.0859375	0.00833333333333333	0	-30	-2.53125	1	0.787109375
1984.185546875	0.00833333333333333	0	-30	-2.40625	1	0.7607421875
1987.001953125	0.00833333333333333	0	30	2.29166666666667	1	0.5595703125
1989.9599609375	0.00833333333333333	0	-30	-2.40625	1	0.8095703125
1992.7939453125	0.00833333333333333	0	30	2.29166666666667	1	0.53515625
1995.7353515625	0.00833333333333333	0	30	2.29166666666667	1	0.6181640625
1998.435546875	0.00833333333333333	0	-30	-2.40625	1	0.56640625
2001.2099609375	0.00833333333333333	0	-30	-2.40625	1	0.5517578125
2004.0439453125	0.00833333333333333	0	-30	-2.40625	1	0.5263671875
2006.9013671875	0.00833333333333333	0	-30	-2.28125	1	0.5966796875
2009.818359375	0.00833333333333333	0	-30	-2.28125	1	0.751953125
2012.84375	0.00833333333333333	0	-30	-2.28125	1	0.58203125
2015.79296875	0.00833333333333333	0	-30	-2.28125	1	0.625
2018.759765625	0.00833333333333333	0	-30	-2.28125	1	0.6103515625
2021.451171875	0.00833333333333333	0	30	2.41666666666667	1	0.615234375
2024.4765625	0.00833333333333333	0	30	2.41666666666667	2	0.91796875
2027.5927734375	0.00833333333333333	0	30	2.41666666666667	1	0.7939453125
2030.5185546875	0.00833333333333333	0	-30	-2.15625	1	0.5478515625
2033.2763671875	0.00833333333333333	0	-30	-2.15625	1	0.56640625
2036.28515625	0.00833333333333333	0	-30	-2.15625	1	0.8857421875
2039.2763671875	0.00833333333333333	0	-30	-2.15625	2	0.7109375
2042.0927734375	0.00833333333333333	0	30	2.41666666666667	1	0.798828125
2045.2841796875	0.00833333333333333	0	30	2.41666666666667	1	0.958984375
2048.53515625	0.00833333333333333	0	30	2.41666666666667	1	0.548828125
2051.0849609375	0.00833333333333333	0	30	2.41666666666667	1	0.5986328125
2054.1513671875	0.00833333333333333	0	-30	-2.15625	1	0.5556640625
2057.1181640625	0.00833333333333333	0	30	2.54166666666667	1	0.5576171875
2060.04296875	0.00833333333333333	0	30	2.54166666666667	1	0.5927734375
2063.1005859375	0.00833333333333333	0	30	2.54166666666667	1	0.53515625
2065.759765625	0.00833333333333333	0	-30	-2.15625	1	0.6435546875
2068.55078125	0.00833333333333333	0	-30	-2.15625	1	0.509765625
2071.2177734375	0.00833333333333333	0	30	2.54166666666667	1	0.5302734375
2073.9091796875	0.00833333333333333	0	30	2.54166666666667	1	0.7509765625
2076.6591796875	0.00833333333333333	0	30	2.66666666666667	2	0.6494140625
2079.3837890625	0.00833333333333333	0	30	2.66666666666667	2	0.66796875
2082.3505859375	0.00833333333333333	0	30	2.66666666666667	1	0.5419921875
2085.326171875	0.00833333333333333	0	-30	-2.15625	2	0.56640625
2088.0419921875	0.00833333333333333	0	-30	-2.15625	1	1.0830078125
2091.359375	0.00833333333333333	0	-30	-2.15625	1	0.541015625
2093.9013671875	0.00833333333333333	0	30	2.66666666666667	1	0.5595703125
2096.9091796875	0.00833333333333333	0	30	2.66666666666667	1	0.919921875
2099.92578125	0.00833333333333333	0	30	2.66666666666667	2	0.5751953125
2102.55859375	0.00833333333333333	0	30	2.66666666666667	2	0.7900390625
2105.3837890625	0.00833333333333333	0	-30	-2.15625	2	0.60546875
2108.3251953125	0.00833333333333333	0	30	2.66666666666667	2	0.50390625
2111.134765625	0.00833333333333333	0	30	2.66666666666667	2	1.0703125
2114.6416015625	0.00833333333333333	0	30	2.66666666666667	2	0.6279296875
2117.55078125	0.00833333333333333	0	-30	-2.15625	1	0.52734375
2120.375	0.00833333333333333	0	-30	-2.15625	1	0.4462890625
2122.8583984375	0.00833333333333333	0	-30	-2.15625	2	0.9951171875
2126.283203125	0.00833333333333333	0	30	2.54166666666667	2	0.6748046875
2129.0751953125	0.00833333333333333	0	-30	-2.15625	2	0.5625
2131.7177734375	0.00833333333333333	0	30	2.54166666666667	2	0.5126953125
2134.3583984375	0.00833333333333333	0	30	2.54166666666667	2	0.6162109375
2137.0751953125	0.00833333333333333	0	30	2.54166666666667	2	0.611328125
2139.8828125	0.00833333333333333	0	-30	-2.15625	2	0.5556640625
2142.6083984375	0.00833333333333333	0	-30	-2.15625	2	0.58984375
2145.591796875	0.00833333333333333	0	30	2.54166666666667	2	0.5830078125
2148.3095703125	0.00833333333333333	0	30	2.41666666666667	2	0.712890625
2151.099609375	0.00833333333333333	0	30	2.41666666666667	2	0.53125
2191.390625	0.00833333333333333	0	-30	-2.15625	1	0.712890625
2194.140625	0.00833333333333333	0	-30	-2.15625	2	0.595703125
2197.1240234375	0.00833333333333333	0	30	2.41666666666667	1	1.0205078125
2200.2744140625	0.00833333333333333	0	30	2.41666666666667	1	0.5498046875
2202.94921875	0.00833333333333333	0	-30	-2.15625	2	0.7314453125
2205.990234375	0.00833333333333333	0	30	2.41666666666667	1	0.5302734375
2208.8740234375	0.00833333333333333	0	-30	-2.15625	2	0.6064453125
2211.6240234375	0.00833333333333333	0	30	2.41666666666667	1	0.47265625
2214.1484375	0.00833333333333333	0	-30	-2.15625	2	0.4765625
2216.8984375	0.00833333333333333	0	-30	-2.15625	2	0.55078125
2219.9658203125	0.00833333333333333	0	-30	-2.28125	2	0.458984375
2222.4736328125	0.00833333333333333	0	30	2.41666666666667	2	0.53515625
2225.2666015625	0.00833333333333333	0	30	2.41666666666667	2	0.57421875
2228.390625	0.00833333333333333	0	30	2.41666666666667	2	0.4990234375
2231.20703125	0.00833333333333333	0	30	2.41666666666667	2	0.5625
2233.8564453125	0.00833333333333333	0	-30	-2.28125	2	0.529296875
2236.4814453125	0.00833333333333333	0	-30	-2.28125	2	0.6875
2239.4404296875	0.00833333333333333	0	-30	-2.28125	2	0.521484375
2242.1572265625	0.00833333333333333	0	30	2.41666666666667	2	0.5400390625
2244.923828125	0.00833333333333333	0	-30	-2.28125	2	0.5498046875
2247.5654296875	0.00833333333333333	0	30	2.29166666666667	2	0.6279296875
2250.58984375	0.00833333333333333	0	-30	-2.40625	2	0.484375
2253.298828125	0.00833333333333333	0	30	2.29166666666667	1	0.8388671875
2256.240234375	0.00833333333333333	0	-30	-2.40625	2	0.5859375
2259.1484375	0.00833333333333333	0	-30	-2.40625	1	0.60546875
2262.1982421875	0.00833333333333333	0	-30	-2.40625	2	0.84375
2265.1982421875	0.00833333333333333	0	30	2.29166666666667	2	0.908203125
2268.373046875	0.00833333333333333	0	30	2.29166666666667	1	0.5654296875
2271.1728515625	0.00833333333333333	0	30	2.29166666666667	2	0.6533203125
2274.3564453125	0.00833333333333333	0	30	2.29166666666667	2	1.1025390625
2277.630859375	0.00833333333333333	0	30	2.29166666666667	2	1.140625
2280.96484375	0.00833333333333333	0	-30	-2.40625	1	0.7578125
2284.0146484375	0.00833333333333333	0	-30	-2.40625	2	0.5322265625
2286.7568359375	0.00833333333333333	0	30	2.29166666666667	2	0.9345703125
2289.97265625	0.00833333333333333	0	-30	-2.40625	2	0.55078125
2292.630859375	0.00833333333333333	0	-30	-2.40625	2	0.564453125
2295.740234375	0.00833333333333333	0	-30	-2.40625	2	0.71875
2298.798828125	0.00833333333333333	0	30	2.29166666666667	2	0.94921875
2302.10546875	0.00833333333333333	0	-30	-2.40625	2	0.578125
2304.7724609375	0.00833333333333333	0	-30	-2.53125	2	0.4794921875
2307.4560546875	0.00833333333333333	0	30	2.16666666666667	1	0.859375
2310.6640625	0.00833333333333333	0	30	2.16666666666667	2	0.515625
2313.60546875	0.00833333333333333	0	30	2.16666666666667	2	0.7587890625
2316.447265625	0.00833333333333333	0	-30	-2.53125	2	0.5888671875
2319.498046875	0.00833333333333333	0	-30	-2.53125	1	0.833984375
2322.7724609375	0.00833333333333333	0	-30	-2.53125	2	0.599609375
2325.4970703125	0.00833333333333333	0	-30	-2.53125	1	0.8349609375
2328.5146484375	0.00833333333333333	0	30	2.16666666666667	1	0.513671875
2331.2978515625	0.00833333333333333	0	-30	-2.53125	1	0.6826171875
2334.3974609375	0.00833333333333333	0	30	2.16666666666667	1	0.958984375
2337.546875	0.00833333333333333	0	30	2.16666666666667	1	0.578125
2340.513671875	0.00833333333333333	0	-30	-2.53125	1	0.70703125
2343.2802734375	0.00833333333333333	0	30	2.16666666666667	1	0.564453125
2345.84765625	0.00833333333333333	0	-30	-2.53125	2	0.7333984375
2349.005859375	0.00833333333333333	0	-30	-2.53125	1	0.767578125
2352.23046875	0.00833333333333333	0	-30	-2.53125	1	0.5185546875
2354.947265625	0.00833333333333333	0	-30	-2.53125	1	0.5458984375
2357.4970703125	0.00833333333333333	0	30	2.16666666666667	1	0.5400390625
2360.15625	0.00833333333333333	0	-30	-2.53125	1	0.4736328125
2363.0634765625	0.00833333333333333	0	30	2.29166666666667	1	0.4462890625
2365.947265625	0.00833333333333333	0	-30	-2.53125	1	0.466796875
2368.4970703125	0.00833333333333333	0	30	2.29166666666667	1	0.6044921875
2371.189453125	0.00833333333333333	0	-30	-2.40625	1	0.6328125
2373.98828125	0.00833333333333333	0	30	2.29166666666667	1	0.6181640625
2377.072265625	0.00833333333333333	0	30	2.29166666666667	1	0.5498046875
2380.146484375	0.00833333333333333	0	30	2.29166666666667	1	0.611328125
2383.0546875	0.00833333333333333	0	30	2.41666666666667	1	0.50390625
2385.8798828125	0.00833333333333333	0	30	2.41666666666667	1	0.5029296875
2388.5712890625	0.00833333333333333	0	-30	-2.40625	1	0.4990234375
2391.2216796875	0.00833333333333333	0	30	2.41666666666667	1	0.728515625
2394.005859375	0.00833333333333333	0	-30	-2.40625	1	0.888671875
2397.3876953125	0.00833333333333333	0	-30	-2.40625	1	0.603515625
2400.2880859375	0.00833333333333333	0	30	2.41666666666667	1	1.0546875
2403.779296875	0.00833333333333333	0	30	2.41666666666667	1	0.7236328125
2406.6875	0.00833333333333333	0	30	2.54166666666667	1	0.5517578125
2409.73828125	0.00833333333333333	0	-30	-2.40625	1	0.5244140625
2412.3798828125	0.00833333333333333	0	-30	-2.28125	1	0.6513671875
2415.3623046875	0.00833333333333333	0	-30	-2.28125	1	0.5810546875
2418.0546875	0.00833333333333333	0	-30	-2.28125	1	0.544921875
2420.6796875	0.00833333333333333	0	30	2.54166666666667	1	0.6396484375
2435.5791015625	0.00833333333333333	0	30	2.54166666666667	2	1.29296875
2438.9453125	0.00833333333333333	0	-30	-2.28125	1	0.8466796875
2441.8955078125	0.00833333333333333	0	30	2.54166666666667	2	1.82421875
2446.095703125	0.00833333333333333	0	30	2.54166666666667	1	1.9287109375
2450.470703125	0.00833333333333333	0	30	2.54166666666667	1	1.0419921875
2453.7705078125	0.00833333333333333	0	30	2.54166666666667	1	0.734375
2456.7958984375	0.00833333333333333	0	-30	-2.28125	1	0.716796875
2459.7705078125	0.00833333333333333	0	30	2.54166666666667	1	0.646484375
2462.87890625	0.00833333333333333	0	-30	-2.15625	1	0.689453125
2465.720703125	0.00833333333333333	0	30	2.54166666666667	1	0.591796875
2468.6708984375	0.00833333333333333	0	-30	-2.15625	1	0.673828125
2471.8623046875	0.00833333333333333	0	30	2.66666666666667	1	0.69921875
2474.9375	0.00833333333333333	0	30	2.66666666666667	2	1.3515625
2478.353515625	0.00833333333333333	0	30	2.66666666666667	1	0.7998046875
2481.5283203125	0.00833333333333333	0	-30	-2.15625	2	0.75390625
2484.75390625	0.00833333333333333	0	-30	-2.15625	2	0.6640625
2487.662109375	0.00833333333333333	0	-30	-2.15625	2	0.6201171875
2490.4541015625	0.00833333333333333	0	-30	-2.15625	2	0.5556640625
2493.3779296875	0.00833333333333333	0	-30	-2.15625	2	0.8076171875
2496.7373046875	0.00833333333333333	0	-30	-2.28125	2	0.6650390625
2499.9033203125	0.00833333333333333	0	-30	-2.28125	2	0.546875
2502.787109375	0.00833333333333333	0	30	2.66666666666667	2	0.5751953125
2505.9033203125	0.00833333333333333	0	-30	-2.28125	2	0.8994140625
2509.26953125	0.00833333333333333	0	30	2.66666666666667	2	1.724609375
2513.3779296875	0.00833333333333333	0	30	2.66666666666667	2	0.6728515625
2516.095703125	0.00833333333333333	0	30	2.66666666666667	2	0.626953125
2519.078125	0.00833333333333333	0	-30	-2.28125	1	0.828125
2522.0029296875	0.00833333333333333	0	-30	-2.28125	1	1.072265625
2525.4365234375	0.00833333333333333	0	30	2.66666666666667	2	0.646484375
2528.5947265625	0.00833333333333333	0	30	2.54166666666667	2	1.2724609375
2532.3701171875	0.00833333333333333	0	30	2.54166666666667	2	0.77734375
2535.2529296875	0.00833333333333333	0	-30	-2.28125	1	0.654296875
2538.244140625	0.00833333333333333	0	30	2.54166666666667	2	1.0546875
2541.6865234375	0.00833333333333333	0	-30	-2.28125	1	0.61328125
2544.7939453125	0.00833333333333333	0	30	2.54166666666667	2	0.8662109375
2547.9443359375	0.00833333333333333	0	-30	-2.28125	1	0.6923828125
2551.1611328125	0.00833333333333333	0	30	2.54166666666667	1	0.73828125
2554.0615234375	0.00833333333333333	0	-30	-2.15625	1	0.6298828125
2556.76953125	0.00833333333333333	0	30	2.54166666666667	1	0.7783203125
2559.65234375	0.00833333333333333	0	-30	-2.15625	1	1.775390625
2563.935546875	0.00833333333333333	0	-30	-2.15625	1	0.9482421875
2567.2021484375	0.00833333333333333	0	-30	-2.15625	1	0.6982421875
2570.2353515625	0.00833333333333333	0	-30	-2.15625	1	0.640625
2573.310546875	0.00833333333333333	0	30	2.54166666666667	1	0.990234375
2576.3349609375	0.00833333333333333	0	30	2.54166666666667	1	0.58984375
2579.03515625	0.00833333333333333	0	30	2.54166666666667	1	0.9052734375
2582.2607421875	0.00833333333333333	0	30	2.66666666666667	1	0.5439453125
2584.876953125	0.00833333333333333	0	30	2.66666666666667	1	0.6474609375
2587.8515625	0.00833333333333333	0	30	2.66666666666667	1	0.7138671875
2591.0361328125	0.00833333333333333	0	30	2.66666666666667	1	0.625
2593.9443359375	0.00833333333333333	0	-30	-2.03125	1	0.6845703125
2596.7939453125	0.00833333333333333	0	30	2.66666666666667	2	1.275390625
2600.4609375	0.00833333333333333	0	30	2.66666666666667	2	0.744140625
2603.3681640625	0.00833333333333333	0	-30	-2.03125	1	0.8935546875
2606.5029296875	0.00833333333333333	0	30	2.66666666666667	2	0.8310546875
2609.39453125	0.00833333333333333	0	-30	-2.03125	2	1.123046875
2612.759765625	0.00833333333333333	0	30	2.66666666666667	2	0.9501953125
2616.1103515625	0.00833333333333333	0	-30	-2.03125	2	0.7119140625
2619.3095703125	0.00833333333333333	0	30	2.66666666666667	2	0.6328125
2622.2099609375	0.00833333333333333	0	-30	-2.03125	1	1.1240234375
2625.3603515625	0.00833333333333333	0	-30	-2.03125	2	0.822265625
2628.3427734375	0.00833333333333333	0	30	2.54166666666667	2	0.6318359375
2631.3515625	0.00833333333333333	0	-30	-2.03125	2	0.5986328125
2634.1591796875	0.00833333333333333	0	-30	-2.03125	2	0.6318359375
2637.1845703125	0.00833333333333333	0	-30	-2.03125	2	0.5576171875
2640.0009765625	0.00833333333333333	0	-30	-2.03125	2	0.685546875
2642.7841796875	0.00833333333333333	0	30	2.54166666666667	2	0.56640625
2645.41015625	0.00833333333333333	0	30	2.54166666666667	2	0.564453125
2648.0185546875	0.00833333333333333	0	30	2.54166666666667	2	0.572265625
2650.9423828125	0.00833333333333333	0	-30	-2.15625	2	1.1201171875
2654.16796875	0.00833333333333333	0	-30	-2.15625	2	0.7509765625
2657.0673828125	0.00833333333333333	0	-30	-2.15625	1	1.15625
2660.3349609375	0.00833333333333333	0	-30	-2.15625	1	1.0732421875
2663.8017578125	0.00833333333333333	0	-30	-2.15625	2	0.7255859375
2666.8427734375	0.00833333333333333	0	-30	-2.15625	1	0.7255859375
2669.7353515625	0.00833333333333333	0	-30	-2.15625	1	0.6806640625
2672.4423828125	0.00833333333333333	0	30	2.54166666666667	2	1.62890625
2676.55859375	0.00833333333333333	0	-30	-2.15625	1	1.216796875
2680.30078125	0.00833333333333333	0	30	2.41666666666667	2	1.04296875
2683.7001953125	0.00833333333333333	0	-30	-2.15625	2	1.0439453125
2722.3837890625	0.00833333333333333	0	30	2.41666666666667	2	0.8330078125
2725.2412109375	0.00833333333333333	0	-30	-2.15625	2	0.7998046875
2728.5009765625	0.00833333333333333	0	-30	-2.15625	2	0.564453125
2731.375	0.00833333333333333	0	30	2.41666666666667	1	0.986328125
2734.8837890625	0.00833333333333333	0	-30	-2.15625	2	0.6220703125
2737.716796875	0.00833333333333333	0	-30	-2.15625	2	0.5576171875
2740.466796875	0.00833333333333333	0	30	2.41666666666667	2	1.0791015625
2743.7841796875	0.00833333333333333	0	30	2.41666666666667	2	1.39453125
2747.6826171875	0.00833333333333333	0	-30	-2.28125	2	0.6640625
2750.55078125	0.00833333333333333	0	-30	-2.28125	1	0.859375
2753.458984375	0.00833333333333333	0	-30	-2.28125	2	0.6552734375
2756.525390625	0.00833333333333333	0	-30	-2.28125	2	0.4765625
2759.1083984375	0.00833333333333333	0	30	2.41666666666667	2	1.1025390625
2762.43359375	0.00833333333333333	0	30	2.41666666666667	1	0.865234375
2765.44140625	0.00833333333333333	0	-30	-2.28125	2	0.6171875
2768.44140625	0.00833333333333333	0	-30	-2.28125	2	0.529296875
2771.2587890625	0.00833333333333333	0	30	2.41666666666667	2	0.9443359375
2774.3671875	0.00833333333333333	0	-30	-2.28125	2	0.484375
2777.0498046875	0.00833333333333333	0	30	2.41666666666667	2	0.697265625
2779.875	0.00833333333333333	0	30	2.41666666666667	2	0.736328125
2782.7412109375	0.00833333333333333	0	-30	-2.40625	2	1.4296875
2786.4169921875	0.00833333333333333	0	30	2.41666666666667	1	1.05859375
2789.7578125	0.00833333333333333	0	30	2.41666666666667	1	0.7255859375
2792.69140625	0.00833333333333333	0	-30	-2.40625	1	0.6806640625
2795.8916015625	0.00833333333333333	0	-30	-2.40625	1	0.6318359375
2799.0078125	0.00833333333333333	0	-30	-2.40625	1	0.828125
2801.9990234375	0.00833333333333333	0	30	2.41666666666667	1	0.5732421875
2804.640625	0.00833333333333333	0	30	2.41666666666667	1	0.53125
2807.6162109375	0.00833333333333333	0	-30	-2.40625	1	0.5478515625
2810.5078125	0.00833333333333333	0	-30	-2.40625	1	0.6484375
2813.533203125	0.00833333333333333	0	30	2.41666666666667	1	0.5029296875
2816.56640625	0.00833333333333333	0	-30	-2.28125	1	0.57421875
2819.515625	0.00833333333333333	0	-30	-2.28125	1	0.705078125
2822.3408203125	0.00833333333333333	0	30	2.54166666666667	1	0.5361328125
2825.0322265625	0.00833333333333333	0	-30	-2.28125	1	0.4521484375
2827.7998046875	0.00833333333333333	0	30	2.54166666666667	1	0.6767578125
2830.8984375	0.00833333333333333	0	-30	-2.28125	1	0.650390625
2833.8330078125	0.00833333333333333	0	30	2.54166666666667	1	0.6044921875
2836.6650390625	0.00833333333333333	0	30	2.54166666666667	1	0.5732421875
2839.5322265625	0.00833333333333333	0	-30	-2.28125	1	0.537109375
2842.423828125	0.00833333333333333	0	30	2.54166666666667	1	0.61328125
2845.20703125	0.00833333333333333	0	-30	-2.15625	1	0.58203125
2848.1904296875	0.00833333333333333	0	30	2.66666666666667	1	0.5029296875
2850.7490234375	0.00833333333333333	0	30	2.66666666666667	1	0.640625
2853.4892578125	0.00833333333333333	0	-30	-2.15625	1	0.876953125
2856.58203125	0.00833333333333333	0	-30	-2.15625	1	0.8076171875
2859.765625	0.00833333333333333	0	30	2.66666666666667	2	0.671875
2862.6572265625	0.00833333333333333	0	-30	-2.15625	1	0.8525390625
2865.7734375	0.00833333333333333	0	30	2.66666666666667	2	0.6005859375
2868.8076171875	0.00833333333333333	0	30	2.66666666666667	2	0.646484375
2872.03125	0.00833333333333333	0	30	2.66666666666667	2	0.5673828125
2874.9404296875	0.00833333333333333	0	-30	-2.15625	1	0.73046875
2877.9990234375	0.00833333333333333	0	-30	-2.03125	2	0.6875
2881.1640625	0.00833333333333333	0	30	2.66666666666667	2	0.6103515625
2883.890625	0.00833333333333333	0	30	2.54166666666667	2	0.595703125
2886.880859375	0.00833333333333333	0	30	2.54166666666667	2	0.60546875
2889.9150390625	0.00833333333333333	0	30	2.54166666666667	2	0.572265625
2892.90625	0.00833333333333333	0	30	2.54166666666667	2	1.1640625
2896.6396484375	0.00833333333333333	0	30	2.54166666666667	2	0.5595703125
2899.4228515625	0.00833333333333333	0	-30	-2.03125	2	0.5126953125
2902.28125	0.00833333333333333	0	30	2.41666666666667	2	0.509765625
2905.0556640625	0.00833333333333333	0	-30	-2.03125	2	0.51953125
2907.7314453125	0.00833333333333333	0	30	2.41666666666667	2	0.564453125
2910.59765625	0.00833333333333333	0	-30	-2.03125	2	0.4423828125
2913.240234375	0.00833333333333333	0	30	2.41666666666667	2	0.51171875
2915.931640625	0.00833333333333333	0	-30	-2.03125	2	0.5078125
2918.705078125	0.00833333333333333	0	30	2.41666666666667	2	0.455078125
2921.556640625	0.00833333333333333	0	30	2.41666666666667	2	0.5068359375
2924.314453125	0.00833333333333333	0	-30	-2.15625	1	0.7177734375
2927.2724609375	0.00833333333333333	0	-30	-2.15625	2	0.4716796875
2930.10546875	0.00833333333333333	0	30	2.29166666666667	2	0.6865234375
2933.189453125	0.00833333333333333	0	30	2.29166666666667	1	0.6904296875
2936.1396484375	0.00833333333333333	0	30	2.29166666666667	2	0.9091796875
2939.23828125	0.00833333333333333	0	30	2.29166666666667	1	0.681640625
2942.0478515625	0.00833333333333333	0	-30	-2.15625	2	0.6806640625
2945.1396484375	0.00833333333333333	0	-30	-2.15625	1	0.78125
2948.0888671875	0.00833333333333333	0	-30	-2.15625	2	0.8076171875
2950.939453125	0.00833333333333333	0	30	2.29166666666667	1	0.7890625
2954.189453125	0.00833333333333333	0	30	2.29166666666667	2	0.9716796875
2957.255859375	0.00833333333333333	0	30	2.29166666666667	1	0.8173828125
3032.8876953125	0.00833333333333333	0	30	2.29166666666667	2	0.7158203125
3035.6796875	0.00833333333333333	0	30	2.29166666666667	1	0.7001953125
3038.712890625	0.00833333333333333	0	-30	-2.15625	2	0.619140625
3041.7294921875	0.00833333333333333	0	30	2.29166666666667	1	0.650390625
3044.86328125	0.00833333333333333	0	30	2.29166666666667	1	0.4765625
3047.830078125	0.00833333333333333	0	-30	-2.15625	1	0.4140625
3050.3876953125	0.00833333333333333	0	-30	-2.15625	2	0.6484375
3053.1962890625	0.00833333333333333	0	30	2.29166666666667	1	0.9033203125
3056.146484375	0.00833333333333333	0	30	2.29166666666667	1	0.5859375
3058.970703125	0.00833333333333333	0	30	2.41666666666667	1	0.7138671875
3062.00390625	0.00833333333333333	0	30	2.41666666666667	1	0.736328125
3064.8046875	0.00833333333333333	0	-30	-2.15625	1	0.6083984375
3067.6044921875	0.00833333333333333	0	-30	-2.15625	2	0.599609375
3070.462890625	0.00833333333333333	0	-30	-2.15625	2	0.5107421875
3073.25390625	0.00833333333333333	0	30	2.41666666666667	2	0.89453125
3076.24609375	0.00833333333333333	0	-30	-2.15625	2	0.5341796875
3079.13671875	0.00833333333333333	0	-30	-2.15625	2	0.5322265625
3082.154296875	0.00833333333333333	0	30	2.41666666666667	2	0.9384765625
3085.5537109375	0.00833333333333333	0	-30	-2.15625	2	0.5390625
3088.412109375	0.00833333333333333	0	-30	-2.28125	2	0.521484375
3091.353515625	0.00833333333333333	0	-30	-2.28125	2	0.4755859375
3094.26171875	0.00833333333333333	0	30	2.41666666666667	2	0.4794921875
3096.845703125	0.00833333333333333	0	-30	-2.28125	2	0.583984375
3099.904296875	0.00833333333333333	0	-30	-2.28125	2	0.61328125
3103.044921875	0.00833333333333333	0	-30	-2.28125	2	0.6650390625
3106.01171875	0.00833333333333333	0	-30	-2.40625	1	0.8740234375
3109.25390625	0.00833333333333333	0	30	2.41666666666667	2	0.912109375
3112.4443359375	0.00833333333333333	0	30	2.41666666666667	2	0.76953125
3115.51953125	0.00833333333333333	0	30	2.29166666666667	1	0.71875
3118.669921875	0.00833333333333333	0	-30	-2.40625	1	0.712890625
3121.63671875	0.00833333333333333	0	-30	-2.40625	1	0.6572265625
3124.51171875	0.00833333333333333	0	-30	-2.40625	1	0.6787109375
3127.6787109375	0.00833333333333333	0	30	2.29166666666667	1	0.7041015625
3130.4443359375	0.00833333333333333	0	30	2.29166666666667	1	0.73046875
3133.228515625	0.00833333333333333	0	30	2.29166666666667	1	0.9462890625
3136.6533203125	0.00833333333333333	0	-30	-2.40625	1	0.625
3139.4697265625	0.00833333333333333	0	30	2.29166666666667	1	0.609375
3142.1943359375	0.00833333333333333	0	30	2.41666666666667	1	0.7001953125
3145.27734375	0.00833333333333333	0	-30	-2.28125	1	0.74609375
3148.4697265625	0.00833333333333333	0	-30	-2.28125	1	1.3134765625
3152.1279296875	0.00833333333333333	0	-30	-2.28125	1	0.9755859375
3155.3193359375	0.00833333333333333	0	-30	-2.28125	1	1.2001953125
3158.861328125	0.00833333333333333	0	-30	-2.28125	1	0.994140625
3162.119140625	0.00833333333333333	0	-30	-2.15625	1	0.79296875
3165.1943359375	0.00833333333333333	0	30	2.41666666666667	1	1.1171875
3168.5107421875	0.00833333333333333	0	-30	-2.15625	1	0.9130859375
3171.90234375	0.00833333333333333	0	30	2.41666666666667	2	0.857421875
3175.0947265625	0.00833333333333333	0	30	2.41666666666667	2	0.6650390625
3178.310546875	0.00833333333333333	0	-30	-2.15625	2	0.5537109375
3181.427734375	0.00833333333333333	0	-30	-2.15625	2	1.244140625
3185.02734375	0.00833333333333333	0	30	2.41666666666667	2	0.7734375
3188.3857421875	0.00833333333333333	0	-30	-2.15625	1	1.20703125
3191.7109375	0.00833333333333333	0	30	2.41666666666667	2	0.75390625
3194.9521484375	0.00833333333333333	0	30	2.41666666666667	2	1.12890625
3198.34375	0.00833333333333333	0	-30	-2.15625	2	0.857421875
3201.34375	0.00833333333333333	0	-30	-2.15625	2	0.5693359375
3204.3359375	0.00833333333333333	0	30	2.29166666666667	2	0.6806640625
3207.34375	0.00833333333333333	0	-30	-2.15625	2	0.79296875
3210.3857421875	0.00833333333333333	0	-30	-2.15625	2	0.751953125
3213.40234375	0.00833333333333333	0	-30	-2.15625	1	0.6708984375
3216.5517578125	0.00833333333333333	0	30	2.29166666666667	2	1.017578125
3219.77734375	0.00833333333333333	0	-30	-2.15625	2	0.6796875
3222.66796875	0.00833333333333333	0	-30	-2.15625	2	0.7021484375
3225.65234375	0.00833333333333333	0	-30	-2.15625	2	0.6611328125
3228.6767578125	0.00833333333333333	0	30	2.29166666666667	2	0.62109375
3231.443359375	0.00833333333333333	0	-30	-2.15625	1	0.9189453125
3234.5107421875	0.00833333333333333	0	30	2.29166666666667	2	0.9072265625
3237.9599609375	0.00833333333333333	0	30	2.29166666666667	1	0.8662109375
3241.2265625	0.00833333333333333	0	-30	-2.15625	1	0.599609375
3244.068359375	0.00833333333333333	0	30	2.29166666666667	1	0.7744140625
3247.3935546875	0.00833333333333333	0	-30	-2.15625	1	0.6884765625
3250.400390625	0.00833333333333333	0	30	2.29166666666667	1	0.5859375
3253.0595703125	0.00833333333333333	0	30	2.29166666666667	1	0.7353515625
3256.009765625	0.00833333333333333	0	30	2.29166666666667	1	0.6171875
3259.04296875	0.00833333333333333	0	-30	-2.15625	1	0.7197265625
3262.076171875	0.00833333333333333	0	30	2.41666666666667	1	0.814453125
3265.341796875	0.00833333333333333	0	-30	-2.15625	1	0.796875
3268.4013671875	0.00833333333333333	0	-30	-2.03125	1	0.8095703125
3271.6767578125	0.00833333333333333	0	-30	-2.03125	1	1.134765625
3275.1513671875	0.00833333333333333	0	-30	-2.03125	1	0.66796875
3299.8671875	0.00833333333333333	0	-30	-2.03125	1	0.77734375
3303.025390625	0.00833333333333333	0	30	2.41666666666667	1	1.1787109375
3306.525390625	0.00833333333333333	0	30	2.41666666666667	1	1.1748046875
3309.9677734375	0.00833333333333333	0	30	2.41666666666667	1	1.0283203125
3313.25	0.00833333333333333	0	30	2.41666666666667	1	1.5625
3316.9912109375	0.00833333333333333	0	30	2.54166666666667	1	0.7177734375
3319.92578125	0.00833333333333333	0	-30	-2.03125	2	0.8544921875
3323.091796875	0.00833333333333333	0	30	2.54166666666667	1	0.77734375
3325.875	0.00833333333333333	0	-30	-2.03125	2	0.7060546875
3328.875	0.00833333333333333	0	-30	-2.03125	2	0.626953125
3332.0419921875	0.00833333333333333	0	-30	-2.03125	2	0.7626953125
3335.30078125	0.00833333333333333	0	30	2.54166666666667	2	0.8720703125
3338.6669921875	0.00833333333333333	0	-30	-2.03125	2	0.650390625
3341.716796875	0.00833333333333333	0	-30	-2.15625	2	0.552734375
3344.533203125	0.00833333333333333	0	30	2.54166666666667	1	0.8642578125
3347.9169921875	0.00833333333333333	0	-30	-2.15625	2	0.5927734375
3350.6669921875	0.00833333333333333	0	-30	-2.15625	2	0.546875
3353.6826171875	0.00833333333333333	0	30	2.54166666666667	2	1.0107421875
3357.1416015625	0.00833333333333333	0	30	2.54166666666667	2	0.552734375
3360.1162109375	0.00833333333333333	0	30	2.54166666666667	2	0.681640625
3363.349609375	0.00833333333333333	0	30	2.54166666666667	2	0.552734375
3366.1572265625	0.00833333333333333	0	30	2.54166666666667	2	0.6806640625
3369.3662109375	0.00833333333333333	0	30	2.41666666666667	2	0.5048828125
3372.2158203125	0.00833333333333333	0	-30	-2.15625	2	0.52734375
3375.1416015625	0.00833333333333333	0	30	2.41666666666667	2	0.5849609375
3377.849609375	0.00833333333333333	0	-30	-2.15625	2	0.5966796875
3380.7412109375	0.00833333333333333	0	30	2.41666666666667	2	0.537109375
3383.4580078125	0.00833333333333333	0	30	2.41666666666667	2	0.693359375
3386.3828125	0.00833333333333333	0	30	2.41666666666667	2	0.583984375
3389.033203125	0.00833333333333333	0	-30	-2.28125	2	0.5986328125
3391.974609375	0.00833333333333333	0	30	2.29166666666667	2	0.705078125
3395.0166015625	0.00833333333333333	0	-30	-2.28125	2	0.55859375
3398.099609375	0.00833333333333333	0	30	2.29166666666667	1	0.8994140625
3401.08203125	0.00833333333333333	0	-30	-2.28125	1	0.7255859375
3404.0654296875	0.00833333333333333	0	30	2.29166666666667	1	0.7744140625
3407.298828125	0.00833333333333333	0	-30	-2.28125	1	0.61328125
3410.3330078125	0.00833333333333333	0	-30	-2.28125	1	0.7783203125
3413.3330078125	0.00833333333333333	0	-30	-2.28125	1	0.818359375
3416.3154296875	0.00833333333333333	0	30	2.29166666666667	1	0.8203125
3419.2158203125	0.00833333333333333	0	-30	-2.28125	1	0.6484375
3422.2060546875	0.00833333333333333	0	30	2.29166666666667	2	1.474609375
3425.798828125	0.00833333333333333	0	30	2.29166666666667	1	1.9853515625
3430.1650390625	0.00833333333333333	0	-30	-2.15625	2	1.275390625
3433.916015625	0.00833333333333333	0	30	2.29166666666667	1	0.6279296875
3436.732421875	0.00833333333333333	0	-30	-2.15625	1	0.6201171875
3439.6572265625	0.00833333333333333	0	30	2.29166666666667	1	0.671875
3442.498046875	0.00833333333333333	0	-30	-2.15625	1	1.54296875
3446.2568359375	0.00833333333333333	0	-30	-2.15625	1	0.568359375
3448.923828125	0.00833333333333333	0	-30	-2.15625	1	0.61328125
3451.5478515625	0.00833333333333333	0	-30	-2.15625	1	0.796875
3454.6240234375	0.00833333333333333	0	-30	-2.03125	1	0.7216796875
3457.3818359375	0.00833333333333333	0	30	2.29166666666667	1	0.66796875
3460.240234375	0.00833333333333333	0	-30	-2.03125	1	0.5849609375
3462.8896484375	0.00833333333333333	0	30	2.29166666666667	1	0.9033203125
3465.9072265625	0.00833333333333333	0	30	2.41666666666667	2	0.8701171875
3468.8984375	0.00833333333333333	0	30	2.41666666666667	2	0.798828125
3471.83984375	0.00833333333333333	0	-30	-2.03125	2	0.75390625
3474.7314453125	0.00833333333333333	0	30	2.41666666666667	1	0.630859375
3477.4482421875	0.00833333333333333	0	30	2.41666666666667	1	0.857421875
3480.3896484375	0.00833333333333333	0	30	2.41666666666667	2	0.66015625
3483.5556640625	0.00833333333333333	0	30	2.41666666666667	2	0.6220703125
3486.4560546875	0.00833333333333333	0	30	2.41666666666667	2	0.76171875
3489.4228515625	0.00833333333333333	0	30	2.41666666666667	1	0.8349609375
3492.505859375	0.00833333333333333	0	30	2.41666666666667	2	0.888671875
3495.9228515625	0.00833333333333333	0	30	2.41666666666667	2	1.2236328125
3499.3056640625	0.00833333333333333	0	-30	-2.03125	1	0.6171875
3502.130859375	0.00833333333333333	0	30	2.41666666666667	2	0.8798828125
3505.3642578125	0.00833333333333333	0	30	2.41666666666667	2	0.87109375
3508.36328125	0.00833333333333333	0	30	2.41666666666667	2	0.7197265625
3511.4482421875	0.00833333333333333	0	-30	-2.03125	1	0.5869140625
3514.3896484375	0.00833333333333333	0	30	2.29166666666667	1	1.1650390625
3517.8310546875	0.00833333333333333	0	-30	-2.03125	1	0.5556640625
3520.6640625	0.00833333333333333	0	-30	-2.03125	1	0.71484375
3523.564453125	0.00833333333333333	0	-30	-2.03125	1	0.5908203125
3526.322265625	0.00833333333333333	0	30	2.29166666666667	2	0.9775390625
3529.8046875	0.00833333333333333	0	30	2.29166666666667	2	1.2158203125
3533.2060546875	0.00833333333333333	0	30	2.29166666666667	1	0.59765625
3535.9970703125	0.00833333333333333	0	30	2.29166666666667	1	0.494140625
3538.7890625	0.00833333333333333	0	30	2.29166666666667	2	0.806640625
3542.0302734375	0.00833333333333333	0	-30	-1.90625	1	0.7900390625
3582.955078125	0.00833333333333333	0	30	2.29166666666667	2	0.7783203125
3585.9462890625	0.00833333333333333	0	30	2.29166666666667	1	0.71484375
3588.6884765625	0.00833333333333333	0	30	2.29166666666667	1	0.525390625
3591.6708984375	0.00833333333333333	0	-30	-1.90625	1	0.6708984375
3594.74609375	0.00833333333333333	0	-30	-1.90625	1	0.755859375
3597.6630859375	0.00833333333333333	0	30	2.29166666666667	1	0.615234375
3600.529296875	0.00833333333333333	0	-30	-1.90625	2	0.5888671875
3603.646484375	0.00833333333333333	0	30	2.29166666666667	1	0.87109375
3606.9208984375	0.00833333333333333	0	30	2.29166666666667	1	0.61328125
3609.654296875	0.00833333333333333	0	30	2.41666666666667	1	0.49609375
3612.5380859375	0.00833333333333333	0	-30	-1.90625	1	0.5400390625
3615.580078125	0.00833333333333333	0	30	2.41666666666667	1	0.498046875
3618.5546875	0.00833333333333333	0	30	2.41666666666667	1	0.5322265625
3621.2548828125	0.00833333333333333	0	30	2.41666666666667	1	0.4638671875
3624.0458984375	0.00833333333333333	0	-30	-1.90625	1	0.5205078125
3626.728515625	0.00833333333333333	0	-30	-1.90625	1	0.662109375
3629.6875	0.00833333333333333	0	-30	-1.90625	1	0.4716796875
3632.5625	0.00833333333333333	0	-30	-1.90625	1	0.5166015625
3635.4130859375	0.00833333333333333	0	-30	-1.78125	1	0.609375
3638.220703125	0.00833333333333333	0	30	2.41666666666667	1	0.4580078125
3640.75390625	0.00833333333333333	0	-30	-1.78125	1	0.541015625
3643.6123046875	0.00833333333333333	0	-30	-1.78125	1	0.5068359375
3646.6376953125	0.00833333333333333	0	-30	-1.78125	1	0.4970703125
3649.51171875	0.00833333333333333	0	30	2.54166666666667	1	0.5517578125
3652.3037109375	0.00833333333333333	0	30	2.54166666666667	1	0.5439453125
3655.1201171875	0.00833333333333333	0	30	2.54166666666667	1	0.52734375
3658.0537109375	0.00833333333333333	0	30	2.54166666666667	1	0.6337890625
3661.1201171875	0.00833333333333333	0	-30	-1.78125	1	0.5751953125
3663.978515625	0.00833333333333333	0	30	2.54166666666667	1	0.541015625
3666.9208984375	0.00833333333333333	0	-30	-1.65625	1	0.54296875
3669.8623046875	0.00833333333333333	0	30	2.66666666666667	2	0.826171875
3672.7783203125	0.00833333333333333	0	-30	-1.65625	1	1.0302734375
3676.095703125	0.00833333333333333	0	-30	-1.65625	1	0.6962890625
3678.978515625	0.00833333333333333	0	30	2.66666666666667	2	0.7333984375
3682.044921875	0.00833333333333333	0	30	2.66666666666667	2	0.6357421875
3685.0703125	0.00833333333333333	0	-30	-1.65625	2	0.7060546875
3688.3203125	0.00833333333333333	0	-30	-1.65625	1	0.6884765625
3691.1455078125	0.00833333333333333	0	30	2.66666666666667	2	0.6552734375
3694.1455078125	0.00833333333333333	0	-30	-1.65625	2	0.943359375
3697.228515625	0.00833333333333333	0	-30	-1.65625	2	1.2041015625
3700.9033203125	0.00833333333333333	0	-30	-1.65625	1	0.7216796875
3703.89453125	0.00833333333333333	0	-30	-1.65625	2	0.7626953125
3706.953125	0.00833333333333333	0	-30	-1.65625	1	0.6005859375
3709.677734375	0.00833333333333333	0	-30	-1.65625	1	0.6923828125
3712.5947265625	0.00833333333333333	0	30	2.66666666666667	1	0.8466796875
3715.5283203125	0.00833333333333333	0	30	2.66666666666667	2	0.689453125
3718.5869140625	0.00833333333333333	0	30	2.66666666666667	2	0.5986328125
3721.4111328125	0.00833333333333333	0	30	2.66666666666667	2	0.7509765625
3724.376953125	0.00833333333333333	0	30	2.66666666666667	1	0.953125
3727.369140625	0.00833333333333333	0	30	2.66666666666667	2	0.712890625
3730.494140625	0.00833333333333333	0	-30	-1.65625	1	0.6357421875
3733.611328125	0.00833333333333333	0	-30	-1.65625	1	0.623046875
3736.5615234375	0.00833333333333333	0	30	2.66666666666667	2	0.6328125
3739.3359375	0.00833333333333333	0	-30	-1.65625	1	0.6259765625
3742.1025390625	0.00833333333333333	0	-30	-1.53125	1	0.8837890625
3745.15234375	0.00833333333333333	0	-30	-1.53125	1	0.6982421875
3748.236328125	0.00833333333333333	0	30	2.66666666666667	1	0.9580078125
3751.5771484375	0.00833333333333333	0	30	2.66666666666667	2	0.7216796875
3754.494140625	0.00833333333333333	0	30	2.66666666666667	2	0.9970703125
3757.8525390625	0.00833333333333333	0	-30	-1.53125	1	0.998046875
3761.1025390625	0.00833333333333333	0	-30	-1.53125	2	0.7490234375
3764.1181640625	0.00833333333333333	0	30	2.66666666666667	2	1.0205078125
3767.6943359375	0.00833333333333333	0	-30	-1.53125	2	0.9091796875
3771.0009765625	0.00833333333333333	0	-30	-1.53125	2	0.6025390625
3774.126953125	0.00833333333333333	0	30	2.66666666666667	2	0.6689453125
3777.2021484375	0.00833333333333333	0	30	2.66666666666667	2	0.673828125
3780.41015625	0.00833333333333333	0	-30	-1.53125	2	0.7138671875
3783.3603515625	0.00833333333333333	0	30	2.54166666666667	2	0.5712890625
3786.119140625	0.00833333333333333	0	-30	-1.53125	2	0.6689453125
3789.3017578125	0.00833333333333333	0	30	2.54166666666667	2	0.6220703125
3792.28515625	0.00833333333333333	0	30	2.54166666666667	2	0.5673828125
3795.3935546875	0.00833333333333333	0	30	2.54166666666667	2	0.650390625
3798.5263671875	0.00833333333333333	0	-30	-1.65625	2	0.494140625
3801.28515625	0.00833333333333333	0	-30	-1.65625	2	0.7197265625
3804.443359375	0.00833333333333333	0	30	2.54166666666667	2	0.8408203125
3807.384765625	0.00833333333333333	0	-30	-1.65625	1	0.9560546875
3810.46875	0.00833333333333333	0	30	2.41666666666667	1	0.6162109375
3813.53515625	0.00833333333333333	0	30	2.41666666666667	1	0.837890625
3816.5087890625	0.00833333333333333	0	-30	-1.65625	1	0.65625
3819.66015625	0.00833333333333333	0	30	2.41666666666667	2	0.896484375
3853.984375	0.00833333333333333	0	-30	-1.65625	1	0.669921875
3856.859375	0.00833333333333333	0	30	2.41666666666667	2	0.626953125
3859.80859375	0.00833333333333333	0	-30	-1.65625	2	0.533203125
3862.576171875	0.00833333333333333	0	-30	-1.65625	2	0.5419921875
3865.41796875	0.00833333333333333	0	-30	-1.65625	2	0.5087890625
3868.2763671875	0.00833333333333333	0	-30	-1.65625	2	0.4345703125
3870.80078125	0.00833333333333333	0	30	2.41666666666667	2	0.94140625
3873.984375	0.00833333333333333	0	30	2.41666666666667	2	0.662109375
3876.701171875	0.00833333333333333	0	-30	-1.65625	2	0.513671875
3879.609375	0.00833333333333333	0	-30	-1.78125	2	0.5498046875
3882.484375	0.00833333333333333	0	-30	-1.78125	2	0.490234375
3885.208984375	0.00833333333333333	0	-30	-1.78125	2	0.4375
3887.6923828125	0.00833333333333333	0	30	2.41666666666667	2	0.5224609375
3890.4423828125	0.00833333333333333	0	-30	-1.78125	2	0.533203125
3893.4091796875	0.00833333333333333	0	-30	-1.78125	2	0.5263671875
3895.966796875	0.00833333333333333	0	30	2.29166666666667	2	0.48046875
3898.841796875	0.00833333333333333	0	30	2.29166666666667	2	0.5576171875
3901.775390625	0.00833333333333333	0	30	2.29166666666667	2	0.568359375
3904.7666015625	0.00833333333333333	0	-30	-1.90625	2	0.4091796875
3907.650390625	0.00833333333333333	0	30	2.29166666666667	2	0.4375
3910.349609375	0.00833333333333333	0	30	2.29166666666667	2	0.7138671875
3913.375	0.00833333333333333	0	-30	-1.90625	2	0.4970703125
3915.9423828125	0.00833333333333333	0	30	2.16666666666667	2	0.529296875
3918.591796875	0.00833333333333333	0	-30	-1.90625	2	0.5361328125
3921.625	0.00833333333333333	0	-30	-1.90625	2	0.5986328125
3924.474609375	0.00833333333333333	0	30	2.16666666666667	2	0.501953125
3927.2744140625	0.00833333333333333	0	-30	-1.90625	2	0.5185546875
3930.2587890625	0.00833333333333333	0	30	2.16666666666667	2	0.5576171875
3933.1171875	0.00833333333333333	0	30	2.16666666666667	2	0.5791015625
3935.94140625	0.00833333333333333	0	-30	-2.03125	2	0.603515625
3938.6083984375	0.00833333333333333	0	30	2.16666666666667	2	0.8642578125
3941.533203125	0.00833333333333333	0	-30	-2.03125	2	0.923828125
3944.5322265625	0.00833333333333333	0	30	2.04166666666667	2	0.62109375
3947.3662109375	0.00833333333333333	0	-30	-2.03125	2	0.5390625
3950.2080078125	0.00833333333333333	0	-30	-2.03125	2	0.5048828125
3952.8583984375	0.00833333333333333	0	-30	-2.03125	1	0.7353515625
3955.666015625	0.00833333333333333	0	-30	-2.03125	1	0.6708984375
3958.6748046875	0.00833333333333333	0	-30	-2.03125	2	0.56640625
3961.416015625	0.00833333333333333	0	-30	-2.03125	2	0.5849609375
3964.291015625	0.00833333333333333	0	30	2.04166666666667	2	0.734375
3967.515625	0.00833333333333333	0	-30	-2.03125	2	0.5341796875
3970.2998046875	0.00833333333333333	0	-30	-2.03125	2	0.4541015625
3973.1982421875	0.00833333333333333	0	30	2.04166666666667	2	0.7958984375
3976.3828125	0.00833333333333333	0	-30	-2.03125	2	0.5390625
3979.056640625	0.00833333333333333	0	30	2.04166666666667	2	0.8251953125
3981.9658203125	0.00833333333333333	0	-30	-2.15625	1	0.724609375
3984.916015625	0.00833333333333333	0	-30	-2.15625	1	0.662109375
3988.0576171875	0.00833333333333333	0	-30	-2.15625	1	0.544921875
3991.07421875	0.00833333333333333	0	30	2.04166666666667	1	0.5205078125
3993.623046875	0.00833333333333333	0	-30	-2.15625	1	0.626953125
3996.3828125	0.00833333333333333	0	30	2.04166666666667	1	0.603515625
3999.515625	0.00833333333333333	0	-30	-2.15625	1	0.5517578125
4002.58203125	0.00833333333333333	0	30	2.04166666666667	1	0.7890625
4005.5068359375	0.00833333333333333	0	-30	-2.03125	1	0.5205078125
4008.1826171875	0.00833333333333333	0	30	2.04166666666667	1	0.5244140625
4011.107421875	0.00833333333333333	0	30	2.04166666666667	1	0.615234375
4013.94921875	0.00833333333333333	0	30	2.16666666666667	1	0.5341796875
4016.8984375	0.00833333333333333	0	30	2.16666666666667	1	0.5927734375
4019.939453125	0.00833333333333333	0	30	2.16666666666667	1	0.736328125
4022.8486328125	0.00833333333333333	0	-30	-2.03125	1	0.6904296875
4025.6484375	0.00833333333333333	0	30	2.16666666666667	1	0.6435546875
4028.607421875	0.00833333333333333	0	30	2.16666666666667	1	0.7001953125
4031.4228515625	0.00833333333333333	0	-30	-2.03125	1	0.64453125
4034.53125	0.00833333333333333	0	-30	-2.03125	1	0.79296875
4037.740234375	0.00833333333333333	0	30	2.29166666666667	1	0.759765625
4040.78125	0.00833333333333333	0	-30	-2.03125	1	0.55078125
4043.70703125	0.00833333333333333	0	30	2.29166666666667	1	0.609375
4046.3232421875	0.00833333333333333	0	-30	-1.90625	1	0.873046875
4049.53125	0.00833333333333333	0	-30	-1.90625	1	0.5771484375
4052.4814453125	0.00833333333333333	0	-30	-1.90625	2	0.7392578125
4055.2900390625	0.00833333333333333	0	30	2.29166666666667	2	0.7138671875
4058.09765625	0.00833333333333333	0	30	2.29166666666667	2	0.7626953125
4060.9228515625	0.00833333333333333	0	-30	-1.90625	2	0.658203125
4063.83984375	0.00833333333333333	0	30	2.29166666666667	2	0.6533203125
4066.564453125	0.00833333333333333	0	-30	-1.90625	2	0.5439453125
4069.2646484375	0.00833333333333333	0	-30	-1.90625	2	0.556640625
4071.9814453125	0.00833333333333333	0	30	2.29166666666667	2	0.51953125
4074.6298828125	0.00833333333333333	0	-30	-1.90625	1	0.791015625
4077.630859375	0.00833333333333333	0	-30	-1.90625	2	0.5263671875
4080.53125	0.00833333333333333	0	-30	-1.90625	2	0.5703125
