onset	duration	titr	surround	centre	response	rt
58.3779296875	0.00833333333333333	1	-30	-15	1	1.9638671875
62.3955078125	0.00833333333333333	1	30	15	2	0.78515625
65.345703125	0.00833333333333333	1	-30	-14	1	0.69140625
68.236328125	0.00833333333333333	1	-30	15	1	0.4326171875
70.7958984375	0.00833333333333333	1	NaN	15	2	0.44140625
73.703125	0.00833333333333333	1	30	-15	2	0.6298828125
76.6611328125	0.00833333333333333	1	-30	16	2	0.751953125
79.544921875	0.00833333333333333	1	30	14	2	0.7890625
82.4853515625	0.00833333333333333	1	NaN	-15	1	0.736328125
85.40234375	0.00833333333333333	1	-30	-13	2	1.3310546875
88.9697265625	0.00833333333333333	1	NaN	-14	1	0.8525390625
91.9443359375	0.00833333333333333	1	-30	-14	2	1.1259765625
95.1015625	0.00833333333333333	1	30	-16	1	0.7607421875
98.0361328125	0.00833333333333333	1	NaN	14	2	0.513671875
100.6103515625	0.00833333333333333	1	30	13	2	0.9560546875
103.65234375	0.00833333333333333	1	NaN	13	2	0.650390625
106.376953125	0.00833333333333333	1	NaN	-13	1	0.7333984375
109.1611328125	0.00833333333333333	1	NaN	-12	1	0.7490234375
112.4111328125	0.00833333333333333	1	NaN	-11	1	0.5556640625
115.119140625	0.00833333333333333	1	-30	15	2	0.52734375
118.0107421875	0.00833333333333333	1	30	-15	2	0.8515625
120.8857421875	0.00833333333333333	1	NaN	12	2	0.712890625
123.7763671875	0.00833333333333333	1	-30	14	2	0.6787109375
126.5107421875	0.00833333333333333	1	30	-16	1	0.568359375
129.2275390625	0.00833333333333333	1	-30	-15	2	0.7880859375
132.28515625	0.00833333333333333	1	30	12	2	0.5625
135.1103515625	0.00833333333333333	1	NaN	-10	1	0.5927734375
138.0595703125	0.00833333333333333	1	NaN	11	2	0.5556640625
140.9013671875	0.00833333333333333	1	NaN	-9	1	0.978515625
143.9521484375	0.00833333333333333	1	30	-15	1	0.5595703125
146.751953125	0.00833333333333333	1	NaN	-8	1	0.5595703125
149.310546875	0.00833333333333333	1	30	11	2	0.59375
152.001953125	0.00833333333333333	1	-30	13	2	0.486328125
154.55078125	0.00833333333333333	1	NaN	-7	1	0.6650390625
157.384765625	0.00833333333333333	1	NaN	-6	1	0.623046875
160.1845703125	0.00833333333333333	1	NaN	10	2	0.4794921875
163.001953125	0.00833333333333333	1	30	10	2	0.5986328125
165.7265625	0.00833333333333333	1	NaN	9	2	0.4736328125
168.2587890625	0.00833333333333333	1	30	-14	1	0.61328125
171.0849609375	0.00833333333333333	1	-30	12	2	0.4912109375
173.9921875	0.00833333333333333	1	30	-13	1	0.5048828125
176.892578125	0.00833333333333333	1	30	9	2	0.4443359375
179.5927734375	0.00833333333333333	1	NaN	-5	1	0.6796875
182.609375	0.00833333333333333	1	30	8	2	0.583984375
185.2099609375	0.00833333333333333	1	30	-12	1	0.462890625
187.8515625	0.00833333333333333	1	NaN	8	2	0.373046875
190.3173828125	0.00833333333333333	1	-30	11	2	0.4765625
193.0595703125	0.00833333333333333	1	30	-11	1	0.478515625
196.0009765625	0.00833333333333333	1	-30	-16	1	0.6962890625
198.9755859375	0.00833333333333333	1	30	7	2	0.5302734375
201.759765625	0.00833333333333333	1	NaN	7	2	0.609375
204.4921875	0.00833333333333333	1	-30	-15	1	0.8134765625
207.4921875	0.00833333333333333	1	30	6	2	0.4453125
210.2666015625	0.00833333333333333	1	-30	-14	1	0.5751953125
213.201171875	0.00833333333333333	1	-30	10	2	0.46484375
216.06640625	0.00833333333333333	1	NaN	-4	2	4.9912109375
223.55859375	0.00833333333333333	1	-30	-13	2	0.771484375
226.7841796875	0.00833333333333333	1	NaN	-5	1	0.73828125
229.708984375	0.00833333333333333	1	30	5	2	0.6455078125
232.6337890625	0.00833333333333333	1	NaN	-4	2	0.6962890625
235.357421875	0.00833333333333333	1	30	-10	1	0.7333984375
238.2841796875	0.00833333333333333	1	NaN	-5	1	1.1181640625
241.833984375	0.00833333333333333	1	30	-9	1	0.7294921875
245.0166015625	0.00833333333333333	1	NaN	-4	2	1.234375
248.2421875	0.00833333333333333	1	-30	9	2	0.6806640625
251.2080078125	0.00833333333333333	1	NaN	-5	1	0.970703125
254.6416015625	0.00833333333333333	1	30	-8	1	1.033203125
258.041015625	0.00833333333333333	1	30	-7	1	0.6259765625
261.05859375	0.00833333333333333	1	NaN	6	2	0.529296875
263.666015625	0.00833333333333333	1	-30	8	2	0.609375
266.6669921875	0.00833333333333333	1	NaN	5	2	0.544921875
269.5830078125	0.00833333333333333	1	NaN	-4	1	1.037109375
273.06640625	0.00833333333333333	1	30	4	2	0.8662109375
276.3994140625	0.00833333333333333	1	30	3	1	1.0048828125
279.4833984375	0.00833333333333333	1	NaN	4	2	0.568359375
282.4072265625	0.00833333333333333	1	-30	-14	1	0.6845703125
285.44921875	0.00833333333333333	1	NaN	-3	2	2.130859375
289.7666015625	0.00833333333333333	1	NaN	3	2	0.685546875
292.4736328125	0.00833333333333333	1	-30	-13	1	1.04296875
295.7490234375	0.00833333333333333	1	30	4	2	0.7998046875
298.8828125	0.00833333333333333	1	NaN	-4	1	1.0498046875
302.2412109375	0.00833333333333333	1	30	3	2	1.0673828125
305.6240234375	0.00833333333333333	1	NaN	-3	2	1.197265625
309.041015625	0.00833333333333333	1	-30	7	2	0.67578125
312.015625	0.00833333333333333	1	-30	6	2	0.509765625
314.7490234375	0.00833333333333333	1	-30	5	2	0.4716796875
317.224609375	0.00833333333333333	1	-30	-12	1	0.7890625
320.4072265625	0.00833333333333333	1	NaN	-4	2	0.56640625
323.3994140625	0.00833333333333333	1	NaN	2	2	0.4541015625
326.2490234375	0.00833333333333333	1	NaN	-5	1	0.716796875
329.1494140625	0.00833333333333333	1	30	2	2	0.5849609375
331.9990234375	0.00833333333333333	1	30	-6	1	0.5185546875
334.8076171875	0.00833333333333333	1	-30	-11	1	0.5498046875
337.8076171875	0.00833333333333333	1	30	-5	2	0.5341796875
340.431640625	0.00833333333333333	1	-30	4	2	0.5341796875
343.0908203125	0.00833333333333333	1	-30	-10	2	0.5634765625
345.7568359375	0.00833333333333333	1	-30	3	2	0.544921875
348.314453125	0.00833333333333333	1	30	-6	1	0.5078125
351.3076171875	0.00833333333333333	1	-30	-11	1	1.123046875
354.806640625	0.00833333333333333	1	NaN	1	2	0.51171875
357.3974609375	0.00833333333333333	1	30	-5	1	0.6015625
380.7978515625	0.00833333333333333	1	30	-4	1	0.7216796875
383.623046875	0.00833333333333333	1	30	-3	1	0.552734375
386.65625	0.00833333333333333	1	-30	-10	2	0.7509765625
389.873046875	0.00833333333333333	1	-30	2	2	0.5029296875
392.70703125	0.00833333333333333	1	-30	-11	1	0.64453125
395.4306640625	0.00833333333333333	1	-30	1	2	0.4248046875
398.2060546875	0.00833333333333333	1	-30	0	2	2.0498046875
402.33984375	0.00833333333333333	1	30	-2	1	0.7958984375
405.431640625	0.00833333333333333	1	30	1	2	0.640625
408.2900390625	0.00833333333333333	1	-30	-10	1	0.6298828125
411.271484375	0.00833333333333333	1	NaN	0	2	0.4892578125
413.7890625	0.00833333333333333	1	30	0	1	0.8671875
417.0556640625	0.00833333333333333	1	30	-1	1	0.8564453125
420.2978515625	0.00833333333333333	1	-30	-9	1	0.8154296875
423.3564453125	0.00833333333333333	1	-30	-8	2	0.900390625
426.3564453125	0.00833333333333333	1	-30	-9	1	0.8525390625
429.3310546875	0.00833333333333333	1	-30	-1	2	0.58203125
432.0390625	0.00833333333333333	1	30	1	1	0.5458984375
434.73046875	0.00833333333333333	1	30	0	2	0.4462890625
437.4892578125	0.00833333333333333	1	-30	-2	2	0.48828125
440.2978515625	0.00833333333333333	1	30	2	1	0.9912109375
443.6474609375	0.00833333333333333	1	30	3	1	0.6337890625
446.3720703125	0.00833333333333333	1	-30	-3	2	0.4375
449.130859375	0.00833333333333333	1	30	4	2	0.71875
451.947265625	0.00833333333333333	1	30	-1	2	0.55078125
454.8388671875	0.00833333333333333	1	30	3	2	0.779296875
457.73046875	0.00833333333333333	1	30	-2	1	0.54296875
460.7470703125	0.00833333333333333	1	30	-1	2	0.51953125
463.3466796875	0.00833333333333333	1	30	-2	1	0.6630859375
466.3388671875	0.00833333333333333	1	-30	-4	2	0.5595703125
469.0634765625	0.00833333333333333	1	-30	-5	2	0.5224609375
471.9140625	0.00833333333333333	1	30	-1	1	1.056640625
475.322265625	0.00833333333333333	1	30	2	1	0.6484375
478.205078125	0.00833333333333333	1	NaN	-1	2	0.7177734375
480.98828125	0.00833333333333333	1	-30	-6	2	0.638671875
483.888671875	0.00833333333333333	1	30	3	2	0.5615234375
486.5966796875	0.00833333333333333	1	30	2	2	0.58203125
489.23046875	0.00833333333333333	1	NaN	-2	2	0.60546875
492.23828125	0.00833333333333333	1	30	1	2	0.9482421875
495.212890625	0.00833333333333333	1	30	0	1	1.150390625
498.8466796875	0.00833333333333333	1	-30	-7	2	0.7001953125
501.6455078125	0.00833333333333333	1	30	0	1	1.25390625
505.1884765625	0.00833333333333333	1	NaN	-3	2	1.0712890625
508.2880859375	0.00833333333333333	1	-30	-8	2	0.7080078125
511.330078125	0.00833333333333333	1	30	1	2	0.6337890625
514.1953125	0.00833333333333333	1	-30	-9	1	0.7919921875
517.1708984375	0.00833333333333333	1	NaN	-4	2	1.0166015625
520.3544921875	0.00833333333333333	1	NaN	-5	2	0.7138671875
523.4208984375	0.00833333333333333	1	-30	-8	2	0.6796875
526.0966796875	0.00833333333333333	1	30	1	1	0.779296875
529.330078125	0.00833333333333333	1	-30	-9	2	0.6337890625
531.9794921875	0.00833333333333333	1	30	2	2	0.689453125
534.7197265625	0.00833333333333333	1	-30	-10	2	0.900390625
537.8046875	0.00833333333333333	1	-30	-11	1	0.6875
540.7705078125	0.00833333333333333	1	NaN	-6	1	0.6337890625
543.5625	0.00833333333333333	1	-30	-10	1	0.5224609375
546.25390625	0.00833333333333333	1	30	1	1	0.55078125
549.087890625	0.00833333333333333	1	NaN	-5	1	0.8046875
552.287109375	0.00833333333333333	1	30	2	2	0.8623046875
555.1962890625	0.00833333333333333	1	-30	-9	2	1.13671875
558.50390625	0.00833333333333333	1	-30	-10	1	0.94140625
561.5703125	0.00833333333333333	1	NaN	-4	1	0.69140625
564.5205078125	0.00833333333333333	1	NaN	-3	1	0.525390625
567.50390625	0.00833333333333333	1	-30	-9	1	1.013671875
570.8369140625	0.00833333333333333	1	NaN	-2	2	0.7451171875
573.8037109375	0.00833333333333333	1	-30	-8	1	1.4658203125
577.25390625	0.00833333333333333	1	-30	-7	2	0.583984375
580.00390625	0.00833333333333333	1	-30	-8	2	0.6494140625
582.6533203125	0.00833333333333333	1	NaN	-3	2	0.5361328125
585.5205078125	0.00833333333333333	1	NaN	-4	1	0.5654296875
588.3623046875	0.00833333333333333	1	-30	-9	2	0.5322265625
591.2041015625	0.00833333333333333	1	-30	-10	1	0.9619140625
594.578125	0.00833333333333333	1	-30	-9	2	0.564453125
597.3955078125	0.00833333333333333	1	NaN	-3	2	0.7392578125
600.5029296875	0.00833333333333333	1	NaN	-4	2	0.599609375
603.13671875	0.00833333333333333	1	NaN	-5	1	0.765625
606.169921875	0.00833333333333333	1	NaN	-4	2	1.060546875
609.662109375	0.00833333333333333	1	NaN	-5	1	0.736328125
612.361328125	0.00833333333333333	1	NaN	-4	1	0.7412109375
615.4619140625	0.00833333333333333	1	NaN	-3	1	1.201171875
618.6279296875	0.00833333333333333	1	-30	-10	2	0.8349609375
621.7529296875	0.00833333333333333	1	-30	-11	1	0.7900390625
624.703125	0.00833333333333333	1	NaN	-2	1	0.6162109375
627.3359375	0.00833333333333333	1	NaN	-1	2	0.6630859375
630.0029296875	0.00833333333333333	1	NaN	-2	2	0.6044921875
632.927734375	0.00833333333333333	1	NaN	-3	2	0.6484375
635.88671875	0.00833333333333333	1	NaN	-4	2	0.9052734375
638.8193359375	0.00833333333333333	1	NaN	-5	2	0.8046875
642.03515625	0.00833333333333333	1	NaN	-6	1	0.6123046875
644.9111328125	0.00833333333333333	1	NaN	-5	1	0.728515625
648.0859375	0.00833333333333333	1	NaN	-4	1	1.6748046875
651.953125	0.00833333333333333	1	NaN	-3	2	0.6953125
655.0283203125	0.00833333333333333	1	NaN	-4.5	1	0.6123046875
657.9521484375	0.00833333333333333	1	30	-0.5	1	1.4560546875
661.435546875	0.00833333333333333	1	30	0.5	1	0.61328125
664.494140625	0.00833333333333333	1	NaN	-3.5	2	0.6669921875
667.3203125	0.00833333333333333	1	NaN	-4.375	2	0.5205078125
670.078125	0.00833333333333333	1	-30	-10.0833333333333	1	0.7314453125
672.76953125	0.00833333333333333	1	NaN	-4.5	1	0.927734375
675.7939453125	0.00833333333333333	1	30	0.625	1	0.54296875
678.5263671875	0.00833333333333333	1	NaN	-4.375	1	0.482421875
716.443359375	0.00833333333333333	1	-30	-9.95833333333333	2	1.3671875
720.076171875	0.00833333333333333	1	-30	-10.0833333333333	1	0.9423828125
723.21875	0.00833333333333333	1	NaN	-3.625	2	0.8486328125
726.1103515625	0.00833333333333333	1	30	0.75	1	0.6279296875
729.142578125	0.00833333333333333	1	-30	-9.95833333333333	1	0.98828125
732.6259765625	0.00833333333333333	1	NaN	-4.25	1	0.5927734375
735.318359375	0.00833333333333333	1	-30	-9.08333333333333	2	0.701171875
738.4169921875	0.00833333333333333	1	30	0.875	1	0.5859375
741.29296875	0.00833333333333333	1	NaN	-4.125	1	0.486328125
743.9765625	0.00833333333333333	1	30	-0.375	1	0.5302734375
746.8681640625	0.00833333333333333	1	-30	-9.20833333333333	2	1.119140625
750.0517578125	0.00833333333333333	1	NaN	-3.75	2	0.52734375
752.6015625	0.00833333333333333	1	NaN	-4	2	0.5615234375
755.1845703125	0.00833333333333333	1	-30	-9.83333333333333	2	0.435546875
758.0341796875	0.00833333333333333	1	-30	-9.33333333333333	1	0.6337890625
760.92578125	0.00833333333333333	1	30	-0.25	1	0.75
763.716796875	0.00833333333333333	1	30	1	1	0.630859375
766.509765625	0.00833333333333333	1	NaN	-4.125	2	0.59765625
769.17578125	0.00833333333333333	1	30	1.125	1	0.6845703125
771.884765625	0.00833333333333333	1	-30	-9.95833333333333	1	0.6875
774.8173828125	0.00833333333333333	1	30	1.25	2	0.6669921875
777.517578125	0.00833333333333333	1	30	-0.125	1	0.7509765625
780.3515625	0.00833333333333333	1	30	0	1	0.701171875
783.5009765625	0.00833333333333333	1	30	1.125	1	0.607421875
786.0341796875	0.00833333333333333	1	30	0.125	1	0.650390625
789.076171875	0.00833333333333333	1	-30	-9.83333333333333	1	1.232421875
792.275390625	0.00833333333333333	1	NaN	-3.875	1	0.689453125
795.05859375	0.00833333333333333	1	NaN	-4.25	2	1.5546875
798.900390625	0.00833333333333333	1	30	0.25	1	0.76953125
802.1171875	0.00833333333333333	1	-30	-9.20833333333333	2	0.7119140625
805.2333984375	0.00833333333333333	1	-30	-9.33333333333333	1	1.0595703125
808.6083984375	0.00833333333333333	1	30	0.375	2	0.6689453125
811.5751953125	0.00833333333333333	1	30	0.25	1	0.6787109375
814.43359375	0.00833333333333333	1	-30	-9.20833333333333	2	0.4521484375
817.1337890625	0.00833333333333333	1	NaN	-4.375	2	1.2236328125
820.75	0.00833333333333333	1	-30	-9.33333333333333	1	0.7353515625
823.650390625	0.00833333333333333	1	-30	-9.70833333333333	2	0.8037109375
826.80078125	0.00833333333333333	1	30	0.375	2	0.796875
829.708984375	0.00833333333333333	1	-30	-9.83333333333333	1	0.720703125
832.4833984375	0.00833333333333333	1	NaN	-4.5	1	1.634765625
836.4501953125	0.00833333333333333	1	30	0.25	2	0.8837890625
839.783203125	0.00833333333333333	1	NaN	-3.75	1	0.615234375
842.548828125	0.00833333333333333	1	30	0.125	1	0.6015625
845.275390625	0.00833333333333333	1	30	0.25	1	0.5712890625
848.0751953125	0.00833333333333333	1	-30	-9.20833333333333	1	0.7958984375
851.06640625	0.00833333333333333	1	-30	-9.70833333333333	2	0.6044921875
854.1328125	0.00833333333333333	1	NaN	-4.375	2	0.8896484375
857.298828125	0.00833333333333333	1	NaN	-4.5	2	0.6279296875
860.041015625	0.00833333333333333	1	NaN	-3.625	1	0.677734375
862.841796875	0.00833333333333333	1	NaN	-3.5	1	0.5654296875
865.6748046875	0.00833333333333333	1	-30	-9.08333333333333	2	0.8681640625
868.599609375	0.00833333333333333	1	NaN	-4.625	1	1.2236328125
872.224609375	0.00833333333333333	1	30	1.25	2	0.814453125
875.0166015625	0.00833333333333333	1	-30	-9.83333333333333	2	0.6943359375
877.6826171875	0.00833333333333333	1	-30	-9.20833333333333	1	0.8369140625
880.7744140625	0.00833333333333333	1	-30	-9.95833333333333	1	0.857421875
883.8330078125	0.00833333333333333	1	NaN	-4.5	1	0.6064453125
886.8828125	0.00833333333333333	1	NaN	-4.375	1	0.5087890625
889.7998046875	0.00833333333333333	1	NaN	-3.375	1	0.576171875
892.8232421875	0.00833333333333333	1	30	1.125	1	0.6328125
895.849609375	0.00833333333333333	1	-30	-9.83333333333333	1	0.57421875
898.4814453125	0.00833333333333333	1	-30	-9.08333333333333	2	0.791015625
901.32421875	0.00833333333333333	1	-30	-9.70833333333333	1	0.7001953125
904.423828125	0.00833333333333333	1	30	0.375	1	0.712890625
907.416015625	0.00833333333333333	1	-30	-9.58333333333333	1	0.720703125
910.607421875	0.00833333333333333	1	NaN	-3.25	1	0.544921875
913.607421875	0.00833333333333333	1	-30	-9.45833333333333	1	0.865234375
916.5654296875	0.00833333333333333	1	30	1.25	1	1.1796875
919.83203125	0.00833333333333333	1	NaN	-3.125	2	0.7529296875
922.83203125	0.00833333333333333	1	-30	-9.33333333333333	2	0.8330078125
925.740234375	0.00833333333333333	1	-30	-9.20833333333333	2	0.8447265625
928.70703125	0.00833333333333333	1	-30	-9.33333333333333	2	0.7021484375
931.65625	0.00833333333333333	1	-30	-9.45833333333333	2	0.6328125
934.4150390625	0.00833333333333333	1	NaN	-3.25	2	0.7861328125
937.3056640625	0.00833333333333333	1	30	0.5	2	0.6162109375
939.95703125	0.00833333333333333	1	NaN	-3.375	2	0.892578125
942.806640625	0.00833333333333333	1	-30	-9.58333333333333	1	0.69140625
945.6650390625	0.00833333333333333	1	-30	-9.45833333333333	1	0.6328125
948.6142578125	0.00833333333333333	1	-30	-9.45833333333333	2	0.603515625
951.6064453125	0.00833333333333333	1	-30	-9.58333333333333	1	0.5634765625
954.4072265625	0.00833333333333333	1	-30	-9.45833333333333	1	0.72265625
957.1650390625	0.00833333333333333	1	NaN	-3.5	1	0.5654296875
960.0146484375	0.00833333333333333	1	30	1.375	1	0.611328125
962.6650390625	0.00833333333333333	1	-30	-9.33333333333333	2	0.44140625
965.4228515625	0.00833333333333333	1	-30	-9.45833333333333	2	0.8193359375
968.65625	0.00833333333333333	1	-30	-9.58333333333333	1	0.6259765625
971.2470703125	0.00833333333333333	1	30	1.5	2	0.611328125
974.0234375	0.00833333333333333	1	-30	-9.45833333333333	1	1.4033203125
977.59765625	0.00833333333333333	1	-30	-9.33333333333333	2	0.8291015625
980.748046875	0.00833333333333333	1	30	1.375	1	0.55859375
983.6396484375	0.00833333333333333	1	NaN	-3.375	1	1.0751953125
986.998046875	0.00833333333333333	1	NaN	-4.25	1	0.5966796875
989.7724609375	0.00833333333333333	1	NaN	-3.25	1	0.55078125
992.6396484375	0.00833333333333333	1	NaN	-3.125	2	0.9072265625
995.53125	0.00833333333333333	1	-30	-9.45833333333333	2	1.3759765625
999.2890625	0.00833333333333333	1	NaN	-4.125	1	0.5791015625
1002.0556640625	0.00833333333333333	1	-30	-9.58333333333333	2	0.65234375
1004.947265625	0.00833333333333333	1	30	0.375	1	0.8486328125
1007.8974609375	0.00833333333333333	1	NaN	-3.25	2	0.5703125
1010.763671875	0.00833333333333333	1	NaN	-3.375	1	0.5283203125
1013.6142578125	0.00833333333333333	1	-30	-9.70833333333333	2	1.8056640625
1085.9873046875	0.00833333333333333	1	30	1.5	1	0.947265625
1089.0546875	0.00833333333333333	1	NaN	-4	2	1.103515625
1092.5380859375	0.00833333333333333	1	NaN	-4.125	2	0.6611328125
1095.1796875	0.00833333333333333	1	NaN	-3.25	1	0.9072265625
1098.0546875	0.00833333333333333	1	-30	-9.33333333333333	1	0.7841796875
1100.8134765625	0.00833333333333333	1	30	1.625	2	0.6494140625
1103.6455078125	0.00833333333333333	1	NaN	-3.125	1	0.681640625
1106.3466796875	0.00833333333333333	1	30	0.5	1	0.7080078125
1109.24609375	0.00833333333333333	1	30	0.625	1	0.5615234375
1111.8798828125	0.00833333333333333	1	NaN	-3	1	0.5908203125
1114.8544921875	0.00833333333333333	1	30	1.5	1	0.6650390625
1117.6298828125	0.00833333333333333	1	NaN	-2.875	1	0.5859375
1120.48828125	0.00833333333333333	1	-30	-9.20833333333333	1	1.5595703125
1124.4208984375	0.00833333333333333	1	-30	-9.08333333333333	2	0.6025390625
1127.087890625	0.00833333333333333	1	NaN	-2.75	1	0.576171875
1129.662109375	0.00833333333333333	1	30	0.75	1	0.74609375
1132.37109375	0.00833333333333333	1	NaN	-4.25	1	0.6611328125
1135.4287109375	0.00833333333333333	1	-30	-9.83333333333333	2	0.9951171875
1138.8203125	0.00833333333333333	1	-30	-9.95833333333333	1	0.595703125
1141.8193359375	0.00833333333333333	1	-30	-9.20833333333333	2	0.5966796875
1144.845703125	0.00833333333333333	1	-30	-9.33333333333333	1	0.7470703125
1148.0126953125	0.00833333333333333	1	-30	-9.20833333333333	2	0.595703125
1150.861328125	0.00833333333333333	1	NaN	-2.625	2	0.5947265625
1153.4873046875	0.00833333333333333	1	30	0.875	1	0.6728515625
1156.3701171875	0.00833333333333333	1	30	1	1	0.6552734375
1159.4619140625	0.00833333333333333	1	30	1.625	1	0.611328125
1162.4541015625	0.00833333333333333	1	30	1.125	1	0.595703125
1165.0537109375	0.00833333333333333	1	NaN	-2.75	2	1.0673828125
1168.3212890625	0.00833333333333333	1	-30	-9.83333333333333	2	0.6005859375
1170.9365234375	0.00833333333333333	1	30	1.75	1	0.5927734375
1173.7939453125	0.00833333333333333	1	NaN	-2.875	2	0.951171875
1176.970703125	0.00833333333333333	1	NaN	-3	2	0.5986328125
1180.00390625	0.00833333333333333	1	-30	-9.95833333333333	2	0.677734375
1182.8779296875	0.00833333333333333	1	NaN	-3.125	2	0.595703125
1185.662109375	0.00833333333333333	1	30	1.25	2	1.01171875
1188.9697265625	0.00833333333333333	1	NaN	-4.125	1	0.568359375
1191.869140625	0.00833333333333333	1	NaN	-4	2	0.62109375
1194.64453125	0.00833333333333333	1	-30	-10.0833333333333	1	0.8701171875
1197.6103515625	0.00833333333333333	1	NaN	-3.25	1	0.6083984375
1200.51953125	0.00833333333333333	1	NaN	-3.125	1	1.0263671875
1203.9111328125	0.00833333333333333	1	30	1.875	1	0.5546875
1206.7119140625	0.00833333333333333	1	30	1.125	2	0.6826171875
1209.5029296875	0.00833333333333333	1	NaN	-3	1	1.33203125
1212.978515625	0.00833333333333333	1	NaN	-2.875	2	1.16796875
1216.2529296875	0.00833333333333333	1	NaN	-4.125	1	0.58984375
1218.9951171875	0.00833333333333333	1	30	1	1	0.7197265625
1221.7783203125	0.00833333333333333	1	30	1.125	1	0.6484375
1224.7783203125	0.00833333333333333	1	NaN	-3	2	1.6884765625
1228.626953125	0.00833333333333333	1	NaN	-4	1	0.583984375
1231.3447265625	0.00833333333333333	1	30	2	2	0.546875
1234.1025390625	0.00833333333333333	1	30	1.875	2	0.7255859375
1237.1689453125	0.00833333333333333	1	30	1.25	1	0.5947265625
1240.0361328125	0.00833333333333333	1	NaN	-3.875	1	0.599609375
1242.736328125	0.00833333333333333	1	30	1.375	2	0.7236328125
1245.53515625	0.00833333333333333	1	30	1.25	1	0.6044921875
1248.51953125	0.00833333333333333	1	30	1.75	2	0.7080078125
1251.3095703125	0.00833333333333333	1	30	1.375	1	0.806640625
1254.3193359375	0.00833333333333333	1	NaN	-3.125	2	0.6767578125
1257.1689453125	0.00833333333333333	1	30	1.5	1	0.6826171875
1259.8525390625	0.00833333333333333	1	30	1.625	2	0.591796875
1262.427734375	0.00833333333333333	1	NaN	-3.25	1	0.5439453125
1265.0517578125	0.00833333333333333	1	30	1.625	2	0.6328125
1267.9775390625	0.00833333333333333	1	30	1.5	2	0.642578125
1270.66015625	0.00833333333333333	1	NaN	-3.75	1	0.576171875
1273.626953125	0.00833333333333333	1	NaN	-3.625	2	1.2900390625
1277.244140625	0.00833333333333333	1	-30	-9.95833333333333	1	0.6728515625
1280.1103515625	0.00833333333333333	1	-30	-9.83333333333333	1	0.71875
1283.02734375	0.00833333333333333	1	30	1.5	1	0.6494140625
1286.09375	0.00833333333333333	1	30	1.625	2	0.6630859375
1289.126953125	0.00833333333333333	1	30	1.375	1	0.638671875
1291.8681640625	0.00833333333333333	1	NaN	-3.125	2	0.5693359375
1294.6923828125	0.00833333333333333	1	NaN	-3.25	1	0.76953125
1297.66015625	0.00833333333333333	1	NaN	-3.75	1	1.193359375
1300.9931640625	0.00833333333333333	1	30	1.5	2	0.716796875
1303.7587890625	0.00833333333333333	1	NaN	-3.625	1	0.6787109375
1306.6767578125	0.00833333333333333	1	30	1.375	2	0.6005859375
1309.4677734375	0.00833333333333333	1	30	1.25	1	0.74609375
1312.16015625	0.00833333333333333	1	-30	-9.70833333333333	2	0.7099609375
1314.9677734375	0.00833333333333333	1	-30	-9.83333333333333	2	5.478515625
1322.443359375	0.00833333333333333	1	NaN	-3.125	2	0.8515625
1325.4345703125	0.00833333333333333	1	30	1.375	2	0.67578125
1328.4345703125	0.00833333333333333	1	NaN	-3.5	1	0.69921875
1331.2177734375	0.00833333333333333	1	NaN	-3.375	1	0.7724609375
1334.009765625	0.00833333333333333	1	30	1.25	1	0.6767578125
1336.9345703125	0.00833333333333333	1	-30	-9.95833333333333	2	0.82421875
1339.92578125	0.00833333333333333	1	30	1.5	2	0.6728515625
1342.734375	0.00833333333333333	1	30	1.375	1	0.6162109375
1345.384765625	0.00833333333333333	1	NaN	-3.25	1	0.6298828125
1347.966796875	0.00833333333333333	1	NaN	-3.125	2	0.568359375
1350.951171875	0.00833333333333333	1	NaN	-3.25	1	0.7353515625
1353.7919921875	0.00833333333333333	1	30	1.5	2	0.638671875
1356.55078125	0.00833333333333333	1	NaN	-3.25	1	0.583984375
1359.2841796875	0.00833333333333333	1	NaN	-3.125	2	0.34765625
1361.984375	0.00833333333333333	1	NaN	-3.25	2	0.630859375
1364.708984375	0.00833333333333333	1	30	1.375	1	0.546875
1367.4833984375	0.00833333333333333	1	-30	-10.0833333333333	1	0.7646484375
1370.7177734375	0.00833333333333333	1	30	1.5	1	0.6337890625
1373.5341796875	0.00833333333333333	1	30	1.625	1	0.689453125
1376.2421875	0.00833333333333333	1	30	1.75	2	0.6455078125
1378.9755859375	0.00833333333333333	1	NaN	-3.375	2	0.7763671875
1381.9833984375	0.00833333333333333	1	NaN	-3.5	2	0.80078125
1384.775390625	0.00833333333333333	1	NaN	-3.625	2	0.5126953125
1410.1416015625	0.00833333333333333	1	NaN	-3.75	1	0.68359375
1412.966796875	0.00833333333333333	1	NaN	-3.625	1	0.5625
1415.7587890625	0.00833333333333333	1	NaN	-3.5	1	0.5625
1418.3671875	0.00833333333333333	1	NaN	-3.375	1	1.25
1421.908203125	0.00833333333333333	1	NaN	-3.25	1	0.5732421875
1424.43359375	0.00833333333333333	1	NaN	-3.125	1	0.82421875
1427.7001953125	0.00833333333333333	1	NaN	-3	1	1.3740234375
1431.31640625	0.00833333333333333	1	NaN	-2.875	2	0.9970703125
1434.783203125	0.00833333333333333	0	-30	-9.54583333333333	1	1.4111328125
1438.6416015625	0.00833333333333333	0	30	1.39375	1	0.720703125
1441.599609375	0.00833333333333333	0	-30	-9.54583333333333	1	1.5146484375
1445.158203125	0.00833333333333333	0	30	1.39375	1	1.15625
1448.4091796875	0.00833333333333333	0	-30	-9.54583333333333	1	1.8017578125
1452.4912109375	0.00833333333333333	0	30	1.39375	2	0.791015625
1455.5234375	0.00833333333333333	0	-30	-9.54583333333333	2	0.6796875
1458.533203125	0.00833333333333333	0	-30	-9.54583333333333	2	0.8212890625
1461.515625	0.00833333333333333	0	-30	-9.54583333333333	1	0.6552734375
1464.44140625	0.00833333333333333	0	30	1.39375	2	0.7216796875
1467.283203125	0.00833333333333333	0	-30	-9.54583333333333	2	0.607421875
1470.0322265625	0.00833333333333333	0	30	1.39375	2	0.6103515625
1472.6826171875	0.00833333333333333	0	30	1.39375	1	0.904296875
1475.607421875	0.00833333333333333	0	30	1.39375	1	0.6279296875
1478.5322265625	0.00833333333333333	0	30	1.39375	1	0.6787109375
1481.2822265625	0.00833333333333333	0	-30	-9.54583333333333	2	0.77734375
1484.3662109375	0.00833333333333333	0	30	1.39375	2	0.3251953125
1487.0576171875	0.00833333333333333	0	30	1.39375	2	0.6259765625
1489.857421875	0.00833333333333333	0	30	1.39375	1	0.642578125
1492.4990234375	0.00833333333333333	0	30	1.39375	1	0.705078125
1495.59765625	0.00833333333333333	0	30	1.39375	1	0.6298828125
1498.4404296875	0.00833333333333333	0	-30	-9.54583333333333	2	0.859375
1501.673828125	0.00833333333333333	0	-30	-9.54583333333333	2	0.578125
1504.7158203125	0.00833333333333333	0	30	1.39375	2	0.6240234375
1507.3154296875	0.00833333333333333	0	-30	-9.54583333333333	2	0.5927734375
1510.3486328125	0.00833333333333333	0	30	1.39375	1	1.16796875
1513.615234375	0.00833333333333333	0	-30	-9.67083333333333	2	0.8134765625
1516.4482421875	0.00833333333333333	0	30	1.39375	1	0.6845703125
1519.20703125	0.00833333333333333	0	-30	-9.67083333333333	1	0.58984375
1522.0234375	0.00833333333333333	0	-30	-9.67083333333333	1	0.5654296875
1524.58203125	0.00833333333333333	0	30	1.39375	2	0.615234375
1527.20703125	0.00833333333333333	0	-30	-9.67083333333333	2	0.5654296875
1530.1240234375	0.00833333333333333	0	30	1.39375	2	0.6572265625
1533.115234375	0.00833333333333333	0	30	1.39375	2	0.6181640625
1535.8896484375	0.00833333333333333	0	-30	-9.67083333333333	2	0.6357421875
1538.58984375	0.00833333333333333	0	30	1.39375	1	0.7275390625
1541.3818359375	0.00833333333333333	0	-30	-9.67083333333333	1	0.6630859375
1544.3232421875	0.00833333333333333	0	-30	-9.67083333333333	1	1.1298828125
1547.70703125	0.00833333333333333	0	30	1.39375	1	0.666015625
1550.498046875	0.00833333333333333	0	-30	-9.67083333333333	1	0.611328125
1553.314453125	0.00833333333333333	0	30	1.39375	1	1.546875
1557.2978515625	0.00833333333333333	0	-30	-9.67083333333333	1	0.8046875
1560.314453125	0.00833333333333333	0	30	1.39375	1	1.4033203125
1563.6982421875	0.00833333333333333	0	30	1.39375	1	0.66796875
1566.8056640625	0.00833333333333333	0	30	1.51875	2	1.13671875
1569.9482421875	0.00833333333333333	0	-30	-9.67083333333333	1	0.658203125
1572.7392578125	0.00833333333333333	0	30	1.51875	2	0.69140625
1575.6064453125	0.00833333333333333	0	30	1.51875	1	0.759765625
1578.6728515625	0.00833333333333333	0	30	1.51875	2	1.0380859375
1581.939453125	0.00833333333333333	0	-30	-9.54583333333333	1	0.962890625
1584.97265625	0.00833333333333333	0	-30	-9.54583333333333	2	0.921875
1588.005859375	0.00833333333333333	0	-30	-9.54583333333333	2	0.6728515625
1590.623046875	0.00833333333333333	0	-30	-9.54583333333333	1	0.6162109375
1593.3310546875	0.00833333333333333	0	30	1.51875	1	0.7314453125
1596.146484375	0.00833333333333333	0	-30	-9.54583333333333	2	0.732421875
1599.2724609375	0.00833333333333333	0	30	1.51875	2	0.8388671875
1602.40625	0.00833333333333333	0	30	1.51875	2	0.849609375
1605.2978515625	0.00833333333333333	0	30	1.51875	2	0.765625
1608.09765625	0.00833333333333333	0	-30	-9.54583333333333	1	0.7578125
1610.86328125	0.00833333333333333	0	30	1.51875	2	0.7763671875
1613.8056640625	0.00833333333333333	0	-30	-9.54583333333333	2	1.009765625
1616.9970703125	0.00833333333333333	0	30	1.51875	2	0.986328125
1620.1796875	0.00833333333333333	0	30	1.39375	2	0.63671875
1622.947265625	0.00833333333333333	0	-30	-9.54583333333333	2	0.5810546875
1625.904296875	0.00833333333333333	0	-30	-9.54583333333333	1	0.5595703125
1628.705078125	0.00833333333333333	0	-30	-9.54583333333333	1	0.599609375
1631.7138671875	0.00833333333333333	0	-30	-9.54583333333333	1	0.6064453125
1634.2470703125	0.00833333333333333	0	-30	-9.54583333333333	2	0.4814453125
1636.9384765625	0.00833333333333333	0	-30	-9.54583333333333	2	0.59765625
1639.98046875	0.00833333333333333	0	-30	-9.54583333333333	2	0.6279296875
1642.9541015625	0.00833333333333333	0	30	1.39375	1	0.630859375
1645.822265625	0.00833333333333333	0	30	1.39375	2	0.5302734375
1648.4462890625	0.00833333333333333	0	30	1.39375	1	0.6826171875
1651.4462890625	0.00833333333333333	0	30	1.39375	1	0.634765625
1654.37890625	0.00833333333333333	0	30	1.39375	2	0.646484375
1657.48828125	0.00833333333333333	0	30	1.39375	1	0.640625
1660.2294921875	0.00833333333333333	0	-30	-9.54583333333333	2	0.5234375
1662.9052734375	0.00833333333333333	0	-30	-9.54583333333333	2	0.6484375
1665.7373046875	0.00833333333333333	0	30	1.39375	2	0.6884765625
1668.7216796875	0.00833333333333333	0	-30	-9.67083333333333	1	0.599609375
1736.9775390625	0.00833333333333333	0	-30	-9.67083333333333	2	1.25
1740.6787109375	0.00833333333333333	0	30	1.39375	1	0.7412109375
1743.5205078125	0.00833333333333333	0	-30	-9.67083333333333	2	0.603515625
1746.2373046875	0.00833333333333333	0	30	1.39375	1	0.646484375
1748.8623046875	0.00833333333333333	0	30	1.39375	2	0.3818359375
1751.353515625	0.00833333333333333	0	-30	-9.67083333333333	1	0.298828125
1753.8779296875	0.00833333333333333	0	30	1.39375	2	0.2939453125
1756.5283203125	0.00833333333333333	0	-30	-9.67083333333333	2	0.3154296875
1758.87890625	0.00833333333333333	0	-30	-9.67083333333333	1	0.3095703125
1761.169921875	0.00833333333333333	0	30	1.39375	2	0.3388671875
1763.7119140625	0.00833333333333333	0	30	1.39375	1	0.63671875
1766.427734375	0.00833333333333333	0	-30	-9.67083333333333	2	0.5693359375
1769.228515625	0.00833333333333333	0	30	1.39375	2	0.9765625
1772.5283203125	0.00833333333333333	0	30	1.39375	1	0.396484375
1774.9619140625	0.00833333333333333	0	-30	-9.67083333333333	1	0.8994140625
1778.078125	0.00833333333333333	0	30	1.39375	1	0.55078125
1780.912109375	0.00833333333333333	0	30	1.39375	2	0.525390625
1783.51953125	0.00833333333333333	0	30	1.39375	2	0.58203125
1786.3193359375	0.00833333333333333	0	-30	-9.67083333333333	1	0.4853515625
1788.8779296875	0.00833333333333333	0	30	1.39375	2	0.7275390625
1791.77734375	0.00833333333333333	0	-30	-9.67083333333333	2	0.6123046875
1794.802734375	0.00833333333333333	0	30	1.39375	2	0.5302734375
1797.4443359375	0.00833333333333333	0	-30	-9.67083333333333	1	0.6015625
1800.0361328125	0.00833333333333333	0	-30	-9.67083333333333	2	0.3935546875
1802.89453125	0.00833333333333333	0	-30	-9.67083333333333	1	0.6552734375
1805.7109375	0.00833333333333333	0	-30	-9.67083333333333	1	0.5986328125
1808.6611328125	0.00833333333333333	0	30	1.39375	2	0.705078125
1811.552734375	0.00833333333333333	0	-30	-9.67083333333333	2	0.7333984375
1814.3193359375	0.00833333333333333	0	30	1.26875	1	0.8544921875
1817.5361328125	0.00833333333333333	0	30	1.26875	2	0.7099609375
1820.5517578125	0.00833333333333333	0	30	1.26875	1	0.7109375
1823.693359375	0.00833333333333333	0	-30	-9.67083333333333	1	0.8095703125
1826.5029296875	0.00833333333333333	0	30	1.26875	2	0.751953125
1829.6279296875	0.00833333333333333	0	30	1.26875	2	0.6591796875
1832.4111328125	0.00833333333333333	0	-30	-9.67083333333333	1	1.267578125
1835.9111328125	0.00833333333333333	0	-30	-9.67083333333333	1	1.16796875
1839.09375	0.00833333333333333	0	30	1.26875	2	0.59375
1841.7685546875	0.00833333333333333	0	-30	-9.67083333333333	2	0.630859375
1844.4599609375	0.00833333333333333	0	-30	-9.67083333333333	1	0.7080078125
1847.52734375	0.00833333333333333	0	-30	-9.67083333333333	1	1.0478515625
1850.6689453125	0.00833333333333333	0	30	1.26875	1	0.9384765625
1853.7939453125	0.00833333333333333	0	-30	-9.67083333333333	1	0.6611328125
1856.41015625	0.00833333333333333	0	-30	-9.67083333333333	1	0.669921875
1859.060546875	0.00833333333333333	0	30	1.26875	2	0.71484375
1862.21875	0.00833333333333333	0	30	1.26875	2	0.724609375
1864.984375	0.00833333333333333	0	-30	-9.67083333333333	1	0.8076171875
1867.77734375	0.00833333333333333	0	-30	-9.54583333333333	1	1.1904296875
1871.2939453125	0.00833333333333333	0	30	1.26875	2	0.650390625
1873.9521484375	0.00833333333333333	0	-30	-9.54583333333333	1	1.3359375
1877.6435546875	0.00833333333333333	0	-30	-9.54583333333333	2	0.7890625
1880.568359375	0.00833333333333333	0	-30	-9.54583333333333	1	0.640625
1883.208984375	0.00833333333333333	0	-30	-9.54583333333333	2	1.1357421875
1886.68359375	0.00833333333333333	0	-30	-9.54583333333333	1	0.7734375
1889.7431640625	0.00833333333333333	0	30	1.26875	1	0.9140625
1892.8515625	0.00833333333333333	0	-30	-9.54583333333333	1	0.716796875
1895.576171875	0.00833333333333333	0	-30	-9.54583333333333	2	0.953125
1898.5927734375	0.00833333333333333	0	-30	-9.54583333333333	2	0.80078125
1901.609375	0.00833333333333333	0	-30	-9.54583333333333	2	0.7353515625
1904.693359375	0.00833333333333333	0	-30	-9.54583333333333	2	0.67578125
1907.66015625	0.00833333333333333	0	-30	-9.54583333333333	2	0.5654296875
1910.267578125	0.00833333333333333	0	30	1.26875	1	0.693359375
1913.142578125	0.00833333333333333	0	-30	-9.67083333333333	2	0.642578125
1915.984375	0.00833333333333333	0	30	1.26875	1	0.6328125
1918.583984375	0.00833333333333333	0	30	1.26875	2	0.6572265625
1921.4677734375	0.00833333333333333	0	-30	-9.67083333333333	1	0.58203125
1924.2255859375	0.00833333333333333	0	-30	-9.67083333333333	2	0.736328125
1927.1015625	0.00833333333333333	0	-30	-9.67083333333333	1	0.595703125
1929.958984375	0.00833333333333333	0	30	1.26875	1	0.6025390625
1932.7255859375	0.00833333333333333	0	30	1.26875	1	0.5166015625
1935.6259765625	0.00833333333333333	0	-30	-9.67083333333333	2	0.50390625
1938.3583984375	0.00833333333333333	0	30	1.26875	2	0.916015625
1941.56640625	0.00833333333333333	0	30	1.26875	2	0.7236328125
1944.5087890625	0.00833333333333333	0	30	1.26875	2	0.61328125
1947.5087890625	0.00833333333333333	0	30	1.26875	2	0.6220703125
1950.333984375	0.00833333333333333	0	30	1.26875	2	0.6044921875
1953.275390625	0.00833333333333333	0	-30	-9.67083333333333	2	0.615234375
1956.208984375	0.00833333333333333	0	-30	-9.67083333333333	1	0.7861328125
1959.326171875	0.00833333333333333	0	-30	-9.67083333333333	1	0.8525390625
1962.408203125	0.00833333333333333	0	30	1.14375	1	0.6669921875
1965.2509765625	0.00833333333333333	0	-30	-9.67083333333333	2	0.6396484375
2002.6337890625	0.00833333333333333	0	30	1.14375	1	0.8662109375
2005.4912109375	0.00833333333333333	0	-30	-9.67083333333333	2	0.537109375
2008.3330078125	0.00833333333333333	0	-30	-9.67083333333333	1	0.775390625
2011.224609375	0.00833333333333333	0	-30	-9.67083333333333	2	0.5478515625
2013.7919921875	0.00833333333333333	0	30	1.14375	1	0.564453125
2016.7333984375	0.00833333333333333	0	-30	-9.67083333333333	2	0.5908203125
2019.3828125	0.00833333333333333	0	-30	-9.67083333333333	2	0.494140625
2021.9580078125	0.00833333333333333	0	30	1.14375	1	0.5673828125
2024.666015625	0.00833333333333333	0	-30	-9.67083333333333	1	0.70703125
2027.7412109375	0.00833333333333333	0	30	1.14375	2	0.6162109375
2030.4833984375	0.00833333333333333	0	-30	-9.67083333333333	1	0.40234375
2033.125	0.00833333333333333	0	30	1.14375	1	0.6640625
2035.9990234375	0.00833333333333333	0	30	1.14375	2	0.6787109375
2038.916015625	0.00833333333333333	0	30	1.14375	1	1.3701171875
2042.44921875	0.00833333333333333	0	-30	-9.67083333333333	2	0.6201171875
2045.158203125	0.00833333333333333	0	-30	-9.67083333333333	1	0.5751953125
2047.974609375	0.00833333333333333	0	30	1.14375	1	0.5107421875
2050.890625	0.00833333333333333	0	-30	-9.67083333333333	1	0.5634765625
2053.5078125	0.00833333333333333	0	-30	-9.67083333333333	2	0.6103515625
2056.166015625	0.00833333333333333	0	-30	-9.67083333333333	2	0.6162109375
2059.2080078125	0.00833333333333333	0	-30	-9.67083333333333	2	0.55078125
2062.0078125	0.00833333333333333	0	-30	-9.67083333333333	2	0.5986328125
2064.9990234375	0.00833333333333333	0	30	1.14375	1	0.599609375
2067.95703125	0.00833333333333333	0	30	1.14375	1	0.5537109375
2070.7744140625	0.00833333333333333	0	30	1.14375	2	0.408203125
2073.365234375	0.00833333333333333	0	30	1.14375	1	1.193359375
2076.541015625	0.00833333333333333	0	30	1.14375	1	0.59375
2079.58203125	0.00833333333333333	0	30	1.14375	1	0.6005859375
2082.357421875	0.00833333333333333	0	-30	-9.67083333333333	2	0.6416015625
2085.44921875	0.00833333333333333	0	-30	-9.79583333333333	1	0.6298828125
2088.4658203125	0.00833333333333333	0	30	1.14375	1	0.5576171875
2091.265625	0.00833333333333333	0	30	1.14375	2	0.7099609375
2094.03125	0.00833333333333333	0	-30	-9.79583333333333	2	0.591796875
2096.947265625	0.00833333333333333	0	-30	-9.79583333333333	2	0.732421875
2099.630859375	0.00833333333333333	0	30	1.14375	2	0.7841796875
2102.490234375	0.00833333333333333	0	-30	-9.79583333333333	1	0.7255859375
2105.2568359375	0.00833333333333333	0	30	1.14375	1	1.4951171875
2108.890625	0.00833333333333333	0	30	1.14375	2	0.693359375
2111.798828125	0.00833333333333333	0	-30	-9.79583333333333	1	0.7138671875
2114.873046875	0.00833333333333333	0	-30	-9.79583333333333	1	0.974609375
2118.15625	0.00833333333333333	0	-30	-9.79583333333333	2	1.5244140625
2122.0068359375	0.00833333333333333	0	-30	-9.79583333333333	2	0.689453125
2124.814453125	0.00833333333333333	0	-30	-9.79583333333333	2	0.681640625
2127.7900390625	0.00833333333333333	0	-30	-9.79583333333333	2	0.666015625
2130.447265625	0.00833333333333333	0	30	1.14375	2	0.6728515625
2133.4150390625	0.00833333333333333	0	-30	-9.79583333333333	1	0.6572265625
2136.490234375	0.00833333333333333	0	30	1.14375	2	0.6865234375
2139.431640625	0.00833333333333333	0	-30	-9.79583333333333	2	0.6650390625
2142.2314453125	0.00833333333333333	0	-30	-9.79583333333333	1	0.681640625
2144.9814453125	0.00833333333333333	0	30	1.14375	1	1.1630859375
2148.34765625	0.00833333333333333	0	-30	-9.79583333333333	2	0.6455078125
2151.0478515625	0.00833333333333333	0	30	1.14375	1	1.296875
2154.3388671875	0.00833333333333333	0	-30	-9.79583333333333	1	0.7353515625
2157.322265625	0.00833333333333333	0	30	1.14375	1	0.5830078125
2160.0048828125	0.00833333333333333	0	30	1.14375	2	0.6201171875
2162.7314453125	0.00833333333333333	0	30	1.14375	1	0.6298828125
2165.59765625	0.00833333333333333	0	30	1.14375	1	0.5966796875
2168.2314453125	0.00833333333333333	0	-30	-9.79583333333333	1	0.6337890625
2171.072265625	0.00833333333333333	0	30	1.14375	2	0.6015625
2173.9306640625	0.00833333333333333	0	30	1.14375	2	1.54296875
2177.5556640625	0.00833333333333333	0	-30	-9.79583333333333	2	0.6220703125
2180.2060546875	0.00833333333333333	0	-30	-9.79583333333333	2	0.8681640625
2183.15625	0.00833333333333333	0	30	1.14375	2	0.7734375
2186.255859375	0.00833333333333333	0	30	1.14375	2	0.6103515625
2189.0390625	0.00833333333333333	0	30	1.14375	2	0.66796875
2191.7470703125	0.00833333333333333	0	30	1.01875	2	0.6630859375
2194.705078125	0.00833333333333333	0	-30	-9.79583333333333	1	0.697265625
2197.388671875	0.00833333333333333	0	-30	-9.79583333333333	2	0.6220703125
2200.322265625	0.00833333333333333	0	-30	-9.79583333333333	2	1.625
2204.1552734375	0.00833333333333333	0	30	1.01875	2	0.7431640625
2207.3388671875	0.00833333333333333	0	30	1.01875	1	1.0322265625
2210.388671875	0.00833333333333333	0	30	1.01875	1	1.54296875
2213.955078125	0.00833333333333333	0	-30	-9.79583333333333	1	0.7607421875
2217.1298828125	0.00833333333333333	0	30	1.01875	2	0.6494140625
2219.9384765625	0.00833333333333333	0	30	1.01875	2	0.7451171875
2223.1298828125	0.00833333333333333	0	-30	-9.79583333333333	2	0.6015625
2225.98046875	0.00833333333333333	0	30	1.01875	1	0.703125
2228.7548828125	0.00833333333333333	0	-30	-9.79583333333333	1	0.7529296875
2231.8212890625	0.00833333333333333	0	-30	-9.79583333333333	2	0.6943359375
2234.9462890625	0.00833333333333333	0	30	1.01875	2	0.76171875
2280.5283203125	0.00833333333333333	0	30	1.01875	2	0.7099609375
2283.587890625	0.00833333333333333	0	30	1.01875	2	0.537109375
2286.537109375	0.00833333333333333	0	30	1.01875	2	0.30078125
2289.220703125	0.00833333333333333	0	30	1.01875	1	0.5126953125
2291.970703125	0.00833333333333333	0	30	1.01875	2	0.36328125
2294.662109375	0.00833333333333333	0	30	1.01875	2	0.271484375
2296.99609375	0.00833333333333333	0	30	1.01875	1	0.6103515625
2299.5869140625	0.00833333333333333	0	30	1.01875	1	0.546875
2302.2451171875	0.00833333333333333	0	-30	-9.79583333333333	1	0.45703125
2305.154296875	0.00833333333333333	0	-30	-9.79583333333333	2	0.267578125
2307.654296875	0.00833333333333333	0	30	1.01875	1	0.3837890625
2310.162109375	0.00833333333333333	0	-30	-9.79583333333333	2	0.64453125
2313.1201171875	0.00833333333333333	0	-30	-9.79583333333333	2	0.421875
2315.595703125	0.00833333333333333	0	30	1.01875	2	0.73046875
2318.544921875	0.00833333333333333	0	-30	-9.79583333333333	1	0.6376953125
2321.4453125	0.00833333333333333	0	-30	-9.79583333333333	1	0.8896484375
2324.6533203125	0.00833333333333333	0	30	1.01875	1	1.3701171875
2328.3779296875	0.00833333333333333	0	30	1.01875	1	0.7412109375
2331.3955078125	0.00833333333333333	0	30	1.01875	1	0.5712890625
2333.9697265625	0.00833333333333333	0	30	1.01875	1	0.7255859375
2336.7197265625	0.00833333333333333	0	-30	-9.79583333333333	1	0.607421875
2339.4033203125	0.00833333333333333	0	-30	-9.79583333333333	1	0.68359375
2342.478515625	0.00833333333333333	0	-30	-9.79583333333333	1	0.6484375
2345.328125	0.00833333333333333	0	30	1.01875	1	0.6396484375
2348.111328125	0.00833333333333333	0	-30	-9.67083333333333	2	0.560546875
2350.8037109375	0.00833333333333333	0	30	1.14375	2	0.67578125
2353.7275390625	0.00833333333333333	0	30	1.14375	1	0.7685546875
2356.486328125	0.00833333333333333	0	30	1.14375	1	0.6494140625
2359.3857421875	0.00833333333333333	0	30	1.14375	2	0.4140625
2362.044921875	0.00833333333333333	0	30	1.14375	2	0.9306640625
2365.236328125	0.00833333333333333	0	30	1.14375	2	0.6123046875
2368.1865234375	0.00833333333333333	0	-30	-9.67083333333333	2	0.7177734375
2371.302734375	0.00833333333333333	0	-30	-9.67083333333333	2	0.4736328125
2373.953125	0.00833333333333333	0	-30	-9.67083333333333	2	0.51953125
2376.703125	0.00833333333333333	0	-30	-9.67083333333333	2	0.609375
2379.486328125	0.00833333333333333	0	30	1.14375	2	0.6025390625
2382.2685546875	0.00833333333333333	0	30	1.14375	2	0.66796875
2385.328125	0.00833333333333333	0	-30	-9.79583333333333	2	0.5849609375
2387.9765625	0.00833333333333333	0	-30	-9.79583333333333	2	0.583984375
2390.8193359375	0.00833333333333333	0	30	1.01875	2	0.7978515625
2393.5947265625	0.00833333333333333	0	30	1.01875	1	0.75
2396.6357421875	0.00833333333333333	0	30	1.01875	2	0.61328125
2399.3271484375	0.00833333333333333	0	-30	-9.79583333333333	2	0.6259765625
2402.2939453125	0.00833333333333333	0	30	1.01875	2	0.69140625
2405.1689453125	0.00833333333333333	0	-30	-9.79583333333333	2	0.81640625
2408.236328125	0.00833333333333333	0	-30	-9.79583333333333	1	0.6689453125
2411.244140625	0.00833333333333333	0	-30	-9.79583333333333	1	0.60546875
2414.21875	0.00833333333333333	0	-30	-9.79583333333333	2	0.607421875
2417.177734375	0.00833333333333333	0	-30	-9.79583333333333	2	0.6162109375
2419.91015625	0.00833333333333333	0	30	1.01875	2	0.7080078125
2422.619140625	0.00833333333333333	0	30	1.01875	2	0.6064453125
2425.16015625	0.00833333333333333	0	-30	-9.79583333333333	2	0.6015625
2427.935546875	0.00833333333333333	0	30	1.01875	1	0.7705078125
2430.869140625	0.00833333333333333	0	30	1.01875	1	0.61328125
2433.71875	0.00833333333333333	0	30	1.01875	1	0.771484375
2436.7939453125	0.00833333333333333	0	30	1.01875	1	0.5849609375
2439.626953125	0.00833333333333333	0	-30	-9.79583333333333	1	0.615234375
2442.5439453125	0.00833333333333333	0	-30	-9.79583333333333	2	0.71484375
2445.4189453125	0.00833333333333333	0	-30	-9.79583333333333	2	0.568359375
2447.943359375	0.00833333333333333	0	30	1.01875	1	1.259765625
2451.376953125	0.00833333333333333	0	-30	-9.79583333333333	2	0.8017578125
2454.3017578125	0.00833333333333333	0	-30	-9.79583333333333	1	0.701171875
2457.251953125	0.00833333333333333	0	30	1.14375	2	0.3828125
2459.7021484375	0.00833333333333333	0	30	1.14375	2	0.564453125
2462.509765625	0.00833333333333333	0	-30	-9.79583333333333	1	0.59765625
2465.09375	0.00833333333333333	0	-30	-9.79583333333333	1	0.6298828125
2467.7919921875	0.00833333333333333	0	30	1.14375	2	0.787109375
2471.0263671875	0.00833333333333333	0	-30	-9.79583333333333	2	0.681640625
2473.8349609375	0.00833333333333333	0	-30	-9.79583333333333	2	0.6328125
2476.8681640625	0.00833333333333333	0	-30	-9.79583333333333	1	0.83984375
2479.9677734375	0.00833333333333333	0	-30	-9.79583333333333	2	0.564453125
2482.9765625	0.00833333333333333	0	30	1.14375	2	0.5869140625
2485.5849609375	0.00833333333333333	0	-30	-9.79583333333333	2	0.619140625
2488.275390625	0.00833333333333333	0	-30	-9.79583333333333	2	0.5849609375
2490.9091796875	0.00833333333333333	0	-30	-9.79583333333333	1	0.638671875
2493.966796875	0.00833333333333333	0	-30	-9.79583333333333	2	0.8291015625
2497.2177734375	0.00833333333333333	0	-30	-9.79583333333333	1	0.818359375
2500.30078125	0.00833333333333333	0	-30	-9.79583333333333	2	0.7119140625
2503.42578125	0.00833333333333333	0	30	1.14375	1	0.8828125
2506.41796875	0.00833333333333333	0	-30	-9.79583333333333	2	0.70703125
2554.68359375	0.00833333333333333	0	30	1.14375	2	1.794921875
2558.5576171875	0.00833333333333333	0	30	1.14375	1	1.048828125
2561.7333984375	0.00833333333333333	0	30	1.14375	1	0.7529296875
2564.7998046875	0.00833333333333333	0	-30	-9.79583333333333	1	0.6064453125
2567.4921875	0.00833333333333333	0	30	1.14375	1	1.298828125
2571.18359375	0.00833333333333333	0	30	1.14375	1	0.5830078125
2574.1669921875	0.00833333333333333	0	30	1.14375	1	0.5439453125
2577.0166015625	0.00833333333333333	0	30	1.26875	2	0.630859375
2579.8583984375	0.00833333333333333	0	-30	-9.79583333333333	1	0.5166015625
2582.3583984375	0.00833333333333333	0	30	1.26875	2	0.8564453125
2585.55859375	0.00833333333333333	0	-30	-9.79583333333333	1	1.0654296875
2588.841796875	0.00833333333333333	0	-30	-9.79583333333333	2	0.7333984375
2591.908203125	0.00833333333333333	0	-30	-9.79583333333333	1	0.6435546875
2594.658203125	0.00833333333333333	0	-30	-9.79583333333333	2	0.5498046875
2597.357421875	0.00833333333333333	0	30	1.26875	2	1.07421875
2600.6083984375	0.00833333333333333	0	-30	-9.79583333333333	2	0.623046875
2603.6083984375	0.00833333333333333	0	30	1.26875	2	0.6953125
2606.5068359375	0.00833333333333333	0	-30	-9.79583333333333	2	1.1572265625
2609.9990234375	0.00833333333333333	0	-30	-9.79583333333333	1	0.6572265625
2613.06640625	0.00833333333333333	0	-30	-9.79583333333333	2	0.685546875
2616.107421875	0.00833333333333333	0	30	1.26875	1	1.0048828125
2619.3740234375	0.00833333333333333	0	-30	-9.79583333333333	2	0.6103515625
2621.94921875	0.00833333333333333	0	30	1.26875	2	0.6591796875
2625.0830078125	0.00833333333333333	0	-30	-9.79583333333333	2	0.5341796875
2628.0908203125	0.00833333333333333	0	30	1.26875	2	0.57421875
2631.0830078125	0.00833333333333333	0	-30	-9.79583333333333	2	0.75
2633.998046875	0.00833333333333333	0	30	1.26875	1	0.5791015625
2636.8818359375	0.00833333333333333	0	-30	-9.79583333333333	2	0.5986328125
2639.8486328125	0.00833333333333333	0	30	1.26875	2	1.248046875
2643.390625	0.00833333333333333	0	30	1.26875	2	0.626953125
2646.44921875	0.00833333333333333	0	-30	-9.92083333333333	2	0.591796875
2649.490234375	0.00833333333333333	0	30	1.26875	2	0.52734375
2652.4404296875	0.00833333333333333	0	-30	-9.92083333333333	2	1.12109375
2655.6904296875	0.00833333333333333	0	30	1.26875	2	0.591796875
2658.2724609375	0.00833333333333333	0	30	1.26875	1	0.6015625
2661.19921875	0.00833333333333333	0	30	1.26875	2	0.490234375
2663.798828125	0.00833333333333333	0	-30	-9.92083333333333	1	0.626953125
2666.431640625	0.00833333333333333	0	-30	-9.92083333333333	1	0.6337890625
2669.431640625	0.00833333333333333	0	-30	-9.92083333333333	1	0.5302734375
2672.1396484375	0.00833333333333333	0	30	1.26875	2	0.5986328125
2674.865234375	0.00833333333333333	0	-30	-9.92083333333333	2	0.6484375
2677.70703125	0.00833333333333333	0	30	1.26875	2	0.54296875
2680.4482421875	0.00833333333333333	0	-30	-9.92083333333333	2	0.6025390625
2683.3984375	0.00833333333333333	0	-30	-9.92083333333333	1	0.4521484375
2685.8642578125	0.00833333333333333	0	30	1.26875	2	0.41796875
2688.7646484375	0.00833333333333333	0	30	1.26875	2	0.7822265625
2691.814453125	0.00833333333333333	0	-30	-9.92083333333333	2	0.556640625
2694.373046875	0.00833333333333333	0	30	1.14375	2	4.3896484375
2701.123046875	0.00833333333333333	0	-30	-9.92083333333333	1	0.7763671875
2703.888671875	0.00833333333333333	0	-30	-9.92083333333333	2	1.40234375
2707.7734375	0.00833333333333333	0	30	1.14375	2	0.8212890625
2711.0224609375	0.00833333333333333	0	30	1.14375	2	0.9892578125
2714.2314453125	0.00833333333333333	0	-30	-9.92083333333333	1	0.66796875
2717.2060546875	0.00833333333333333	0	-30	-9.92083333333333	2	1.1650390625
2720.71484375	0.00833333333333333	0	30	1.14375	2	1.0009765625
2723.7978515625	0.00833333333333333	0	-30	-9.92083333333333	2	0.7021484375
2726.78125	0.00833333333333333	0	-30	-9.92083333333333	2	0.638671875
2729.421875	0.00833333333333333	0	-30	-9.92083333333333	1	0.837890625
2732.3310546875	0.00833333333333333	0	30	1.14375	2	0.7607421875
2735.1220703125	0.00833333333333333	0	30	1.01875	2	0.986328125
2738.4228515625	0.00833333333333333	0	30	1.01875	1	1.3330078125
2741.962890625	0.00833333333333333	0	30	1.01875	2	0.7060546875
2745.0224609375	0.00833333333333333	0	30	1.01875	2	0.7099609375
2748.03125	0.00833333333333333	0	30	1.01875	2	0.701171875
2750.8388671875	0.00833333333333333	0	-30	-9.92083333333333	2	0.6455078125
2753.638671875	0.00833333333333333	0	-30	-9.92083333333333	1	0.734375
2756.6552734375	0.00833333333333333	0	30	1.01875	2	0.58984375
2759.4052734375	0.00833333333333333	0	-30	-9.92083333333333	2	0.591796875
2762.171875	0.00833333333333333	0	30	1.01875	2	0.6328125
2765.2060546875	0.00833333333333333	0	30	0.89375	2	0.5830078125
2767.98046875	0.00833333333333333	0	-30	-9.92083333333333	2	0.6728515625
2771.171875	0.00833333333333333	0	30	0.89375	1	0.681640625
2773.921875	0.00833333333333333	0	30	0.89375	2	0.611328125
2776.822265625	0.00833333333333333	0	-30	-9.92083333333333	1	2
2781.171875	0.00833333333333333	0	-30	-9.92083333333333	2	0.7939453125
2784.2802734375	0.00833333333333333	0	30	0.89375	2	0.7099609375
2787.1640625	0.00833333333333333	0	30	0.89375	2	0.8896484375
2790.205078125	0.00833333333333333	0	30	0.89375	2	0.6728515625
2792.9052734375	0.00833333333333333	0	-30	-9.92083333333333	2	0.5810546875
2795.6630859375	0.00833333333333333	0	-30	-9.92083333333333	1	0.623046875
2854.654296875	0.00833333333333333	0	-30	-9.92083333333333	1	1.4736328125
2858.5458984375	0.00833333333333333	0	30	0.89375	2	1.9501953125
2862.9375	0.00833333333333333	0	-30	-9.92083333333333	2	0.8388671875
2865.99609375	0.00833333333333333	0	-30	-9.92083333333333	1	0.755859375
2868.7529296875	0.00833333333333333	0	-30	-9.92083333333333	2	0.896484375
2871.7041015625	0.00833333333333333	0	-30	-9.92083333333333	2	1.44921875
2875.4208984375	0.00833333333333333	0	-30	-9.92083333333333	1	1.1640625
2879.029296875	0.00833333333333333	0	30	0.76875	1	1.1630859375
2882.2041015625	0.00833333333333333	0	-30	-9.92083333333333	2	0.6845703125
2885.1875	0.00833333333333333	0	-30	-9.92083333333333	1	0.7578125
2888.0791015625	0.00833333333333333	0	-30	-9.92083333333333	2	0.6015625
2891.0791015625	0.00833333333333333	0	-30	-9.92083333333333	2	0.6181640625
2893.6787109375	0.00833333333333333	0	-30	-9.92083333333333	1	0.6591796875
2896.8115234375	0.00833333333333333	0	30	0.76875	1	0.7177734375
2899.8369140625	0.00833333333333333	0	30	0.76875	1	0.63671875
2902.8955078125	0.00833333333333333	0	30	0.76875	2	0.673828125
2905.703125	0.00833333333333333	0	-30	-9.92083333333333	1	0.6181640625
2908.794921875	0.00833333333333333	0	-30	-9.92083333333333	1	0.966796875
2912.2197265625	0.00833333333333333	0	-30	-9.92083333333333	1	0.6064453125
2915.2197265625	0.00833333333333333	0	30	0.76875	1	0.5986328125
2918.0205078125	0.00833333333333333	0	-30	-9.92083333333333	1	0.5654296875
2920.9951171875	0.00833333333333333	0	-30	-9.79583333333333	2	0.5986328125
2923.7119140625	0.00833333333333333	0	30	0.76875	1	0.6826171875
2926.728515625	0.00833333333333333	0	30	0.76875	1	0.6416015625
2929.6201171875	0.00833333333333333	0	-30	-9.79583333333333	1	0.7099609375
2932.8115234375	0.00833333333333333	0	-30	-9.79583333333333	2	0.7666015625
2935.7197265625	0.00833333333333333	0	-30	-9.79583333333333	2	0.619140625
2938.818359375	0.00833333333333333	0	-30	-9.79583333333333	2	0.7685546875
2941.986328125	0.00833333333333333	0	-30	-9.79583333333333	2	0.6650390625
2945.0859375	0.00833333333333333	0	30	0.76875	2	0.60546875
2947.9697265625	0.00833333333333333	0	-30	-9.79583333333333	1	0.7138671875
2950.7275390625	0.00833333333333333	0	-30	-9.79583333333333	2	0.5712890625
2953.5859375	0.00833333333333333	0	30	0.76875	1	0.6572265625
2956.5185546875	0.00833333333333333	0	-30	-9.79583333333333	2	0.5888671875
2959.5107421875	0.00833333333333333	0	-30	-9.79583333333333	2	0.6767578125
2962.3857421875	0.00833333333333333	0	30	0.76875	1	0.6337890625
2965.4443359375	0.00833333333333333	0	-30	-9.79583333333333	1	0.767578125
2968.3193359375	0.00833333333333333	0	-30	-9.79583333333333	2	0.6279296875
2971.02734375	0.00833333333333333	0	-30	-9.79583333333333	2	0.6005859375
2973.8857421875	0.00833333333333333	0	30	0.76875	2	0.646484375
2976.677734375	0.00833333333333333	0	-30	-9.79583333333333	1	0.677734375
2979.685546875	0.00833333333333333	0	-30	-9.79583333333333	1	0.6787109375
2982.8095703125	0.00833333333333333	0	-30	-9.79583333333333	2	0.6025390625
2985.5361328125	0.00833333333333333	0	30	0.76875	1	1.0517578125
2988.71875	0.00833333333333333	0	-30	-9.79583333333333	2	0.7333984375
2991.7685546875	0.00833333333333333	0	30	0.76875	2	0.740234375
2994.90234375	0.00833333333333333	0	-30	-9.79583333333333	1	0.822265625
2998.0107421875	0.00833333333333333	0	-30	-9.79583333333333	1	0.666015625
3000.869140625	0.00833333333333333	0	30	0.76875	2	0.6474609375
3003.935546875	0.00833333333333333	0	-30	-9.79583333333333	2	0.861328125
3007.068359375	0.00833333333333333	0	-30	-9.79583333333333	1	0.79296875
3009.91015625	0.00833333333333333	0	-30	-9.79583333333333	2	0.55859375
3012.7099609375	0.00833333333333333	0	30	0.76875	2	1.88671875
3017.0517578125	0.00833333333333333	0	-30	-9.79583333333333	1	0.7138671875
3019.759765625	0.00833333333333333	0	-30	-9.79583333333333	2	0.60546875
3022.8681640625	0.00833333333333333	0	-30	-9.79583333333333	2	0.76953125
3025.6689453125	0.00833333333333333	0	30	0.76875	1	1.720703125
3029.8681640625	0.00833333333333333	0	-30	-9.79583333333333	2	0.9140625
3033.0517578125	0.00833333333333333	0	-30	-9.79583333333333	2	0.650390625
3036.1513671875	0.00833333333333333	0	-30	-9.79583333333333	2	0.6220703125
3038.8349609375	0.00833333333333333	0	-30	-9.92083333333333	2	0.68359375
3041.4765625	0.00833333333333333	0	30	0.76875	2	0.9296875
3044.66015625	0.00833333333333333	0	-30	-9.92083333333333	1	1.265625
3048.29296875	0.00833333333333333	0	30	0.76875	1	0.873046875
3051.3671875	0.00833333333333333	0	-30	-9.92083333333333	2	1.046875
3054.5595703125	0.00833333333333333	0	30	0.76875	1	0.55078125
3057.142578125	0.00833333333333333	0	30	0.76875	1	0.5595703125
3060.0009765625	0.00833333333333333	0	-30	-9.92083333333333	1	0.6376953125
3062.7919921875	0.00833333333333333	0	30	0.76875	1	0.55859375
3065.3671875	0.00833333333333333	0	-30	-9.92083333333333	2	0.6005859375
3068.2099609375	0.00833333333333333	0	30	0.76875	2	0.796875
3071.41015625	0.00833333333333333	0	-30	-9.92083333333333	2	0.533203125
3074.1591796875	0.00833333333333333	0	-30	-9.92083333333333	1	0.5439453125
3077.04296875	0.00833333333333333	0	30	0.76875	1	0.748046875
3080.1513671875	0.00833333333333333	0	-30	-9.92083333333333	1	0.5595703125
3083.0341796875	0.00833333333333333	0	30	0.76875	1	0.61328125
3085.701171875	0.00833333333333333	0	30	0.76875	2	0.71484375
3088.734375	0.00833333333333333	0	-30	-9.92083333333333	1	0.6572265625
3091.8173828125	0.00833333333333333	0	30	0.76875	2	0.7900390625
3094.8095703125	0.00833333333333333	0	-30	-9.92083333333333	2	0.7099609375
3142.025390625	0.00833333333333333	0	-30	-9.92083333333333	2	1.416015625
3145.81640625	0.00833333333333333	0	-30	-9.92083333333333	2	0.8251953125
3149.1162109375	0.00833333333333333	0	30	0.76875	1	1.0615234375
3152.4833984375	0.00833333333333333	0	-30	-9.92083333333333	1	0.662109375
3155.5322265625	0.00833333333333333	0	-30	-9.92083333333333	1	0.59765625
3158.533203125	0.00833333333333333	0	30	0.76875	1	0.708984375
3161.55859375	0.00833333333333333	0	30	0.76875	2	0.9716796875
3164.69921875	0.00833333333333333	0	30	0.76875	1	0.6630859375
3167.375	0.00833333333333333	0	30	0.76875	1	0.587890625
3170.2236328125	0.00833333333333333	0	30	0.76875	1	1.0107421875
3173.4580078125	0.00833333333333333	0	30	0.76875	1	0.6083984375
3176.19921875	0.00833333333333333	0	30	0.76875	1	0.634765625
3178.9833984375	0.00833333333333333	0	-30	-9.92083333333333	2	0.779296875
3182.158203125	0.00833333333333333	0	-30	-9.92083333333333	2	0.8681640625
3185.408203125	0.00833333333333333	0	-30	-9.92083333333333	2	0.6904296875
3188.5498046875	0.00833333333333333	0	-30	-9.92083333333333	1	1.8369140625
3192.69921875	0.00833333333333333	0	30	0.89375	1	0.86328125
3196.015625	0.00833333333333333	0	30	0.89375	1	0.572265625
3198.8076171875	0.00833333333333333	0	-30	-9.92083333333333	1	0.787109375
3201.9658203125	0.00833333333333333	0	30	0.89375	2	1.2373046875
3205.232421875	0.00833333333333333	0	-30	-9.92083333333333	1	1.0986328125
3208.390625	0.00833333333333333	0	30	0.89375	2	0.5810546875
3211.0908203125	0.00833333333333333	0	30	0.89375	2	0.6806640625
3213.94921875	0.00833333333333333	0	30	0.89375	1	0.6142578125
3216.94921875	0.00833333333333333	0	-30	-9.92083333333333	1	0.5908203125
3219.857421875	0.00833333333333333	0	-30	-9.92083333333333	2	0.5947265625
3222.8486328125	0.00833333333333333	0	30	0.89375	1	0.619140625
3225.70703125	0.00833333333333333	0	30	0.89375	1	0.521484375
3228.6318359375	0.00833333333333333	0	-30	-9.92083333333333	2	0.6845703125
3231.3486328125	0.00833333333333333	0	-30	-9.92083333333333	2	0.591796875
3233.9150390625	0.00833333333333333	0	30	0.89375	2	0.609375
3236.8740234375	0.00833333333333333	0	-30	-9.92083333333333	1	0.5625
3239.5986328125	0.00833333333333333	0	-30	-9.92083333333333	2	0.57421875
3242.58984375	0.00833333333333333	0	30	0.89375	2	0.951171875
3245.6318359375	0.00833333333333333	0	-30	-9.92083333333333	1	1.1728515625
3249.0556640625	0.00833333333333333	0	30	0.89375	2	0.7734375
3251.95703125	0.00833333333333333	0	30	0.89375	2	0.6396484375
3254.6318359375	0.00833333333333333	0	-30	-9.92083333333333	2	0.6611328125
3257.5654296875	0.00833333333333333	0	30	0.89375	2	0.6318359375
3260.248046875	0.00833333333333333	0	-30	-9.92083333333333	2	0.7333984375
3263.0732421875	0.00833333333333333	0	30	0.76875	2	0.828125
3265.95703125	0.00833333333333333	0	-30	-9.92083333333333	2	0.6328125
3268.873046875	0.00833333333333333	0	-30	-9.92083333333333	1	0.7568359375
3271.998046875	0.00833333333333333	0	-30	-9.92083333333333	1	0.623046875
3274.814453125	0.00833333333333333	0	-30	-9.92083333333333	2	0.55078125
3277.748046875	0.00833333333333333	0	30	0.76875	2	0.7373046875
3280.5400390625	0.00833333333333333	0	30	0.76875	2	0.5458984375
3283.2568359375	0.00833333333333333	0	30	0.76875	2	0.5888671875
3286.09765625	0.00833333333333333	0	30	0.76875	2	0.572265625
3288.7392578125	0.00833333333333333	0	30	0.64375	1	0.6826171875
3291.7646484375	0.00833333333333333	0	-30	-9.92083333333333	1	0.681640625
3294.7890625	0.00833333333333333	0	30	0.64375	2	0.6171875
3297.59765625	0.00833333333333333	0	30	0.64375	2	0.6728515625
3300.396484375	0.00833333333333333	0	30	0.64375	2	0.5458984375
3303.3642578125	0.00833333333333333	0	-30	-9.92083333333333	2	0.5146484375
3306.005859375	0.00833333333333333	0	30	0.64375	2	0.6728515625
3308.8896484375	0.00833333333333333	0	30	0.64375	1	0.62890625
3311.5810546875	0.00833333333333333	0	-30	-9.92083333333333	2	0.7138671875
3314.7392578125	0.00833333333333333	0	30	0.64375	2	0.68359375
3317.3974609375	0.00833333333333333	0	30	0.64375	2	0.705078125
3320.2392578125	0.00833333333333333	0	30	0.64375	2	0.6318359375
3323.064453125	0.00833333333333333	0	30	0.64375	2	0.6064453125
3325.8388671875	0.00833333333333333	0	30	0.64375	2	0.576171875
3328.689453125	0.00833333333333333	0	-30	-9.92083333333333	2	0.75
3331.697265625	0.00833333333333333	0	30	0.51875	2	0.734375
3334.697265625	0.00833333333333333	0	-30	-9.92083333333333	2	0.6220703125
3337.388671875	0.00833333333333333	0	30	0.51875	2	2.3466796875
3341.9560546875	0.00833333333333333	0	30	0.51875	1	1.2119140625
3345.6142578125	0.00833333333333333	0	30	0.51875	2	0.76953125
3348.462890625	0.00833333333333333	0	30	0.51875	2	0.6005859375
3351.2216796875	0.00833333333333333	0	-30	-9.92083333333333	2	0.6181640625
3354.080078125	0.00833333333333333	0	30	0.51875	2	0.591796875
3357.1220703125	0.00833333333333333	0	30	0.51875	2	0.654296875
3359.904296875	0.00833333333333333	0	30	0.51875	2	0.591796875
3362.61328125	0.00833333333333333	0	30	0.39375	2	0.611328125
3365.48828125	0.00833333333333333	0	-30	-10.0458333333333	2	0.7197265625
3368.2216796875	0.00833333333333333	0	-30	-10.0458333333333	1	0.7392578125
3371.388671875	0.00833333333333333	0	-30	-10.0458333333333	1	1.572265625
3375.0712890625	0.00833333333333333	0	-30	-10.0458333333333	2	0.5693359375
3377.705078125	0.00833333333333333	0	30	0.39375	2	0.583984375
3427.0380859375	0.00833333333333333	0	-30	-10.0458333333333	2	1.9482421875
3431.345703125	0.00833333333333333	0	30	0.39375	1	0.865234375
3434.4208984375	0.00833333333333333	0	-30	-10.0458333333333	1	0.6220703125
3437.4873046875	0.00833333333333333	0	-30	-10.0458333333333	2	0.3076171875
3439.9794921875	0.00833333333333333	0	30	0.39375	2	0.6796875
3442.787109375	0.00833333333333333	0	30	0.39375	1	0.5361328125
3445.8203125	0.00833333333333333	0	30	0.39375	2	0.646484375
3448.5859375	0.00833333333333333	0	-30	-10.0458333333333	1	0.44921875
3451.345703125	0.00833333333333333	0	-30	-10.0458333333333	2	0.28125
3453.9375	0.00833333333333333	0	30	0.39375	1	0.7060546875
3457.037109375	0.00833333333333333	0	-30	-10.0458333333333	1	0.56640625
3459.7041015625	0.00833333333333333	0	30	0.39375	2	0.619140625
3462.76171875	0.00833333333333333	0	-30	-10.0458333333333	2	0.578125
3465.2958984375	0.00833333333333333	0	-30	-10.0458333333333	2	0.5
3467.7783203125	0.00833333333333333	0	30	0.39375	1	0.77734375
3470.8291015625	0.00833333333333333	0	-30	-10.0458333333333	2	1.18359375
3474.1708984375	0.00833333333333333	0	-30	-10.0458333333333	2	0.6416015625
3476.828125	0.00833333333333333	0	-30	-10.0458333333333	2	0.5361328125
3479.4111328125	0.00833333333333333	0	30	0.39375	2	0.529296875
3482.3623046875	0.00833333333333333	0	30	0.39375	2	0.4580078125
3485.294921875	0.00833333333333333	0	-30	-10.1708333333333	2	0.4296875
3488.111328125	0.00833333333333333	0	30	0.39375	1	0.6455078125
3490.88671875	0.00833333333333333	0	30	0.39375	1	0.5498046875
3493.603515625	0.00833333333333333	0	-30	-10.1708333333333	2	0.544921875
3496.236328125	0.00833333333333333	0	-30	-10.1708333333333	2	0.6884765625
3499.078125	0.00833333333333333	0	30	0.39375	2	0.54296875
3502.0615234375	0.00833333333333333	0	-30	-10.1708333333333	2	0.6796875
3505.103515625	0.00833333333333333	0	-30	-10.1708333333333	2	0.5419921875
3507.6611328125	0.00833333333333333	0	-30	-10.2958333333333	2	0.5595703125
3510.5361328125	0.00833333333333333	0	-30	-10.2958333333333	1	0.5087890625
3513.1279296875	0.00833333333333333	0	30	0.39375	2	0.5654296875
3515.8603515625	0.00833333333333333	0	-30	-10.2958333333333	1	0.640625
3518.8447265625	0.00833333333333333	0	-30	-10.2958333333333	2	0.6005859375
3521.669921875	0.00833333333333333	0	-30	-10.2958333333333	2	0.5517578125
3524.3193359375	0.00833333333333333	0	30	0.39375	1	1.0146484375
3527.4521484375	0.00833333333333333	0	30	0.39375	2	0.6494140625
3530.4365234375	0.00833333333333333	0	30	0.39375	2	0.666015625
3533.185546875	0.00833333333333333	0	30	0.39375	1	0.7646484375
3536.3271484375	0.00833333333333333	0	30	0.39375	1	0.638671875
3539.28515625	0.00833333333333333	0	-30	-10.2958333333333	1	0.7294921875
3542.3095703125	0.00833333333333333	0	30	0.39375	2	0.640625
3545.052734375	0.00833333333333333	0	30	0.39375	1	0.6259765625
3547.8857421875	0.00833333333333333	0	-30	-10.2958333333333	2	0.560546875
3550.7529296875	0.00833333333333333	0	30	0.39375	2	0.830078125
3553.8271484375	0.00833333333333333	0	-30	-10.2958333333333	1	0.611328125
3556.7109375	0.00833333333333333	0	30	0.39375	2	1.15234375
3560.0361328125	0.00833333333333333	0	30	0.39375	1	0.8828125
3563.001953125	0.00833333333333333	0	30	0.39375	1	0.861328125
3566.1689453125	0.00833333333333333	0	30	0.39375	1	0.58203125
3568.9521484375	0.00833333333333333	0	-30	-10.2958333333333	1	0.623046875
3571.8271484375	0.00833333333333333	0	-30	-10.2958333333333	1	0.9560546875
3574.91015625	0.00833333333333333	0	-30	-10.2958333333333	1	0.5771484375
3577.5771484375	0.00833333333333333	0	-30	-10.2958333333333	1	0.6220703125
3580.4345703125	0.00833333333333333	0	-30	-10.1708333333333	1	0.533203125
3583.41015625	0.00833333333333333	0	-30	-10.1708333333333	1	1.2216796875
3587.0771484375	0.00833333333333333	0	30	0.39375	1	0.650390625
3589.78515625	0.00833333333333333	0	30	0.39375	2	0.6708984375
3592.7939453125	0.00833333333333333	0	-30	-10.1708333333333	2	0.5576171875
3595.66015625	0.00833333333333333	0	30	0.39375	1	0.7314453125
3598.509765625	0.00833333333333333	0	30	0.39375	1	0.642578125
3601.59375	0.00833333333333333	0	30	0.39375	2	0.662109375
3604.41796875	0.00833333333333333	0	30	0.39375	2	0.56640625
3607.1259765625	0.00833333333333333	0	30	0.39375	1	0.6025390625
3609.767578125	0.00833333333333333	0	-30	-10.1708333333333	2	0.625
3612.4921875	0.00833333333333333	0	30	0.39375	1	0.7568359375
3615.4169921875	0.00833333333333333	0	-30	-10.1708333333333	1	0.607421875
3618.1591796875	0.00833333333333333	0	30	0.39375	2	0.5615234375
3620.7509765625	0.00833333333333333	0	30	0.39375	2	0.6015625
3623.4267578125	0.00833333333333333	0	-30	-10.1708333333333	2	0.5341796875
3626.2587890625	0.00833333333333333	0	-30	-10.1708333333333	2	0.6142578125
3629.1171875	0.00833333333333333	0	-30	-10.1708333333333	1	0.6279296875
3631.7255859375	0.00833333333333333	0	-30	-10.1708333333333	2	0.5634765625
3634.5166015625	0.00833333333333333	0	30	0.39375	2	0.5888671875
3637.30859375	0.00833333333333333	0	30	0.39375	2	1.1650390625
3640.658203125	0.00833333333333333	0	-30	-10.1708333333333	2	0.599609375
3643.6171875	0.00833333333333333	0	30	0.39375	2	0.8408203125
3646.6669921875	0.00833333333333333	0	-30	-10.1708333333333	2	2.1025390625
3651.083984375	0.00833333333333333	0	-30	-10.1708333333333	1	0.685546875
3654.025390625	0.00833333333333333	0	-30	-10.1708333333333	1	0.6728515625
3657.05078125	0.00833333333333333	0	-30	-10.1708333333333	2	0.9677734375
3715.57421875	0.00833333333333333	0	30	0.26875	2	0.677734375
3718.4248046875	0.00833333333333333	0	-30	-10.1708333333333	1	0.5869140625
3721.0166015625	0.00833333333333333	0	-30	-10.1708333333333	1	0.5
3723.791015625	0.00833333333333333	0	-30	-10.1708333333333	2	0.5888671875
3726.43359375	0.00833333333333333	0	-30	-10.1708333333333	2	0.5625
3729.140625	0.00833333333333333	0	30	0.26875	2	1.1279296875
3732.291015625	0.00833333333333333	0	30	0.26875	1	0.5380859375
3734.82421875	0.00833333333333333	0	-30	-10.1708333333333	2	0.5
3737.3486328125	0.00833333333333333	0	-30	-10.1708333333333	2	0.4716796875
3740.2236328125	0.00833333333333333	0	-30	-10.1708333333333	2	0.6533203125
3743.173828125	0.00833333333333333	0	30	0.26875	1	0.607421875
3746.08203125	0.00833333333333333	0	-30	-10.2958333333333	1	0.794921875
3749.048828125	0.00833333333333333	0	-30	-10.2958333333333	1	0.6767578125
3751.7900390625	0.00833333333333333	0	-30	-10.2958333333333	2	0.6708984375
3754.6650390625	0.00833333333333333	0	30	0.26875	1	0.2841796875
3756.931640625	0.00833333333333333	0	30	0.26875	2	0.3056640625
3759.240234375	0.00833333333333333	0	-30	-10.2958333333333	1	0.4765625
3761.7578125	0.00833333333333333	0	30	0.26875	1	0.583984375
3764.533203125	0.00833333333333333	0	-30	-10.2958333333333	2	0.5361328125
3767.0400390625	0.00833333333333333	0	-30	-10.2958333333333	1	0.4931640625
3769.8564453125	0.00833333333333333	0	-30	-10.2958333333333	2	0.2529296875
3772.3818359375	0.00833333333333333	0	-30	-10.2958333333333	1	0.4794921875
3775.3232421875	0.00833333333333333	0	-30	-10.2958333333333	2	0.3466796875
3777.71484375	0.00833333333333333	0	30	0.26875	2	0.8349609375
3780.6396484375	0.00833333333333333	0	-30	-10.2958333333333	1	0.6298828125
3783.3994140625	0.00833333333333333	0	30	0.26875	2	0.3427734375
3785.748046875	0.00833333333333333	0	-30	-10.2958333333333	2	0.482421875
3788.2568359375	0.00833333333333333	0	30	0.26875	2	0.58203125
3790.9658203125	0.00833333333333333	0	30	0.26875	1	0.6962890625
3793.748046875	0.00833333333333333	0	30	0.26875	2	0.5947265625
3796.740234375	0.00833333333333333	0	30	0.26875	2	0.650390625
3799.423828125	0.00833333333333333	0	-30	-10.2958333333333	2	0.87109375
3802.72265625	0.00833333333333333	0	-30	-10.2958333333333	2	0.6435546875
3805.4560546875	0.00833333333333333	0	30	0.26875	1	1.478515625
3809.1318359375	0.00833333333333333	0	30	0.26875	2	0.6591796875
3812.123046875	0.00833333333333333	0	30	0.26875	2	0.580078125
3815.072265625	0.00833333333333333	0	30	0.26875	2	0.6865234375
3817.84765625	0.00833333333333333	0	30	0.26875	1	0.6318359375
3820.84765625	0.00833333333333333	0	30	0.26875	2	0.599609375
3823.5986328125	0.00833333333333333	0	-30	-10.2958333333333	2	0.576171875
3826.6640625	0.00833333333333333	0	-30	-10.2958333333333	2	0.5595703125
3829.2724609375	0.00833333333333333	0	-30	-10.4208333333333	2	0.5595703125
3831.98046875	0.00833333333333333	0	-30	-10.4208333333333	2	0.546875
3834.9306640625	0.00833333333333333	0	-30	-10.4208333333333	2	0.5009765625
3837.4892578125	0.00833333333333333	0	-30	-10.4208333333333	2	0.5908203125
3840.47265625	0.00833333333333333	0	30	0.26875	2	0.6318359375
3843.3642578125	0.00833333333333333	0	-30	-10.4208333333333	2	0.587890625
3845.9384765625	0.00833333333333333	0	30	0.26875	2	0.6455078125
3848.73046875	0.00833333333333333	0	30	0.26875	2	1.7255859375
3852.5888671875	0.00833333333333333	0	30	0.26875	2	0.595703125
3855.4140625	0.00833333333333333	0	30	0.14375	1	0.7783203125
3858.380859375	0.00833333333333333	0	-30	-10.5458333333333	2	0.66796875
3861.306640625	0.00833333333333333	0	30	0.14375	1	1.0458984375
3864.3388671875	0.00833333333333333	0	-30	-10.5458333333333	2	0.677734375
3867.513671875	0.00833333333333333	0	30	0.14375	2	0.55859375
3870.48828125	0.00833333333333333	0	-30	-10.5458333333333	2	0.4326171875
3873.171875	0.00833333333333333	0	-30	-10.5458333333333	2	0.62890625
3876.0302734375	0.00833333333333333	0	30	0.14375	2	0.7705078125
3879.23828125	0.00833333333333333	0	30	0.14375	2	0.8984375
3882.1298828125	0.00833333333333333	0	-30	-10.5458333333333	1	0.671875
3884.8212890625	0.00833333333333333	0	30	0.14375	2	0.396484375
3887.3544921875	0.00833333333333333	0	30	0.14375	2	0.52734375
3890.1962890625	0.00833333333333333	0	-30	-10.5458333333333	2	0.60546875
3893.197265625	0.00833333333333333	0	30	0.01875	2	0.5888671875
3895.9462890625	0.00833333333333333	0	30	0.01875	2	0.5751953125
3898.638671875	0.00833333333333333	0	-30	-10.5458333333333	1	0.8515625
3901.8466796875	0.00833333333333333	0	-30	-10.5458333333333	2	0.53125
3904.6630859375	0.00833333333333333	0	30	0.01875	1	0.53125
3907.24609375	0.00833333333333333	0	30	0.01875	2	0.4599609375
3909.7880859375	0.00833333333333333	0	30	0.01875	1	0.501953125
3912.705078125	0.00833333333333333	0	30	0.01875	2	0.529296875
3915.2470703125	0.00833333333333333	0	-30	-10.5458333333333	1	0.5068359375
3917.9716796875	0.00833333333333333	0	30	0.01875	2	0.3828125
3920.5380859375	0.00833333333333333	0	30	0.01875	2	0.560546875
3923.5546875	0.00833333333333333	0	30	0.01875	1	0.5595703125
3926.24609375	0.00833333333333333	0	-30	-10.5458333333333	2	0.4521484375
3928.7373046875	0.00833333333333333	0	30	0.01875	2	0.5849609375
3931.5380859375	0.00833333333333333	0	-30	-10.5458333333333	2	0.560546875
3934.1884765625	0.00833333333333333	0	-30	-10.5458333333333	2	0.56640625
3936.9541015625	0.00833333333333333	0	30	0.01875	2	0.7685546875
3956.8291015625	0.00833333333333333	0	-30	-10.5458333333333	2	0.71875
3959.720703125	0.00833333333333333	0	-30	-10.5458333333333	1	0.69921875
3962.5458984375	0.00833333333333333	0	30	0.01875	2	0.521484375
3965.095703125	0.00833333333333333	0	30	0.01875	1	0.7080078125
3967.8291015625	0.00833333333333333	0	30	0.01875	2	0.5185546875
3970.537109375	0.00833333333333333	0	-30	-10.5458333333333	1	0.3232421875
3972.99609375	0.00833333333333333	0	-30	-10.5458333333333	2	0.376953125
3975.6962890625	0.00833333333333333	0	30	0.01875	2	0.67578125
3978.7294921875	0.00833333333333333	0	-30	-10.5458333333333	1	0.3466796875
3981.1865234375	0.00833333333333333	0	-30	-10.5458333333333	2	0.2900390625
3983.87890625	0.00833333333333333	0	-30	-10.5458333333333	1	0.3818359375
3986.529296875	0.00833333333333333	0	30	0.01875	2	0.435546875
3989.412109375	0.00833333333333333	0	30	0.01875	2	1.1044921875
3992.76171875	0.00833333333333333	0	30	0.01875	1	0.5234375
3995.287109375	0.00833333333333333	0	30	0.01875	2	0.40625
3997.7119140625	0.00833333333333333	0	30	0.01875	2	0.4453125
4000.4365234375	0.00833333333333333	0	-30	-10.5458333333333	1	0.47265625
4003.0615234375	0.00833333333333333	0	30	0.01875	2	0.4638671875
4005.837890625	0.00833333333333333	0	-30	-10.5458333333333	1	0.53515625
4008.6953125	0.00833333333333333	0	-30	-10.5458333333333	2	0.5185546875
4011.2783203125	0.00833333333333333	0	30	0.01875	2	0.55078125
4013.9365234375	0.00833333333333333	0	-30	-10.5458333333333	2	0.556640625
4016.9365234375	0.00833333333333333	0	30	0.01875	2	0.6767578125
4019.828125	0.00833333333333333	0	30	-0.10625	1	0.666015625
4022.677734375	0.00833333333333333	0	-30	-10.5458333333333	1	1.0244140625
4025.802734375	0.00833333333333333	0	-30	-10.5458333333333	2	0.70703125
4028.953125	0.00833333333333333	0	30	-0.10625	2	0.716796875
4032.13671875	0.00833333333333333	0	30	-0.10625	2	0.4697265625
4034.6875	0.00833333333333333	0	-30	-10.5458333333333	1	0.56640625
4037.4541015625	0.00833333333333333	0	-30	-10.5458333333333	2	0.82421875
4040.4541015625	0.00833333333333333	0	30	-0.10625	2	1.5283203125
4044.412109375	0.00833333333333333	0	30	-0.10625	1	0.5380859375
4047.0859375	0.00833333333333333	0	30	-0.10625	1	1.0966796875
4050.4033203125	0.00833333333333333	0	30	-0.10625	1	0.8916015625
4053.6689453125	0.00833333333333333	0	-30	-10.5458333333333	1	0.9462890625
4057.02734375	0.00833333333333333	0	30	-0.10625	1	0.779296875
4060.2529296875	0.00833333333333333	0	-30	-10.5458333333333	2	0.673828125
4063.0029296875	0.00833333333333333	0	30	-0.10625	2	0.84375
4066.0361328125	0.00833333333333333	0	-30	-10.5458333333333	2	0.5712890625
4068.876953125	0.00833333333333333	0	30	-0.10625	1	0.650390625
4071.703125	0.00833333333333333	0	30	-0.10625	2	0.4482421875
4074.228515625	0.00833333333333333	0	30	-0.10625	2	0.71484375
4076.9951171875	0.00833333333333333	0	30	-0.10625	2	0.580078125
4079.935546875	0.00833333333333333	0	30	-0.10625	2	0.640625
4082.8193359375	0.00833333333333333	0	-30	-10.5458333333333	1	0.7001953125
4085.7099609375	0.00833333333333333	0	30	-0.10625	2	0.7060546875
4088.5859375	0.00833333333333333	0	30	-0.23125	2	0.59765625
4091.3271484375	0.00833333333333333	0	-30	-10.5458333333333	2	0.5693359375
4093.9521484375	0.00833333333333333	0	-30	-10.5458333333333	1	0.7119140625
4097.134765625	0.00833333333333333	0	30	-0.23125	1	0.6494140625
4099.9599609375	0.00833333333333333	0	-30	-10.5458333333333	2	2.6806640625
4104.693359375	0.00833333333333333	0	-30	-10.5458333333333	1	1.03515625
4108.1181640625	0.00833333333333333	0	30	-0.23125	1	1.2666015625
4111.78515625	0.00833333333333333	0	-30	-10.5458333333333	2	0.759765625
4114.53515625	0.00833333333333333	0	30	-0.23125	2	0.921875
4117.810546875	0.00833333333333333	0	30	-0.23125	2	0.7109375
4120.5107421875	0.00833333333333333	0	-30	-10.5458333333333	1	0.8505859375
4123.3349609375	0.00833333333333333	0	30	-0.23125	2	0.6103515625
4126.34375	0.00833333333333333	0	30	-0.23125	2	1.369140625
4130.16796875	0.00833333333333333	0	30	-0.23125	2	0.77734375
4133.3603515625	0.00833333333333333	0	-30	-10.5458333333333	2	0.6806640625
4136.4189453125	0.00833333333333333	0	30	-0.35625	2	0.646484375
4139.39453125	0.00833333333333333	0	-30	-10.5458333333333	1	0.703125
4142.1513671875	0.00833333333333333	0	30	-0.35625	1	0.6982421875
4144.818359375	0.00833333333333333	0	30	-0.35625	2	0.6474609375
4147.5439453125	0.00833333333333333	0	30	-0.35625	1	0.59375
4150.1845703125	0.00833333333333333	0	-30	-10.5458333333333	2	0.625
4152.9013671875	0.00833333333333333	0	30	-0.35625	2	0.6767578125
4155.8427734375	0.00833333333333333	0	30	-0.35625	2	0.53515625
4158.833984375	0.00833333333333333	0	-30	-10.5458333333333	2	0.7119140625
4161.642578125	0.00833333333333333	0	-30	-10.5458333333333	1	0.7197265625
4164.54296875	0.00833333333333333	0	30	-0.35625	2	0.6357421875
4167.3271484375	0.00833333333333333	0	-30	-10.5458333333333	2	0.619140625
4170.376953125	0.00833333333333333	0	30	-0.35625	1	0.673828125
4173.009765625	0.00833333333333333	0	-30	-10.5458333333333	2	1.537109375
4177.0087890625	0.00833333333333333	0	30	-0.35625	2	0.666015625
4180.0341796875	0.00833333333333333	0	30	-0.35625	2	1.3291015625
4183.6435546875	0.00833333333333333	0	30	-0.35625	1	1.18359375
4187.2509765625	0.00833333333333333	0	30	-0.35625	2	0.744140625
4190.025390625	0.00833333333333333	0	30	-0.35625	2	0.74609375
