onset	duration	titr	surround	centre	response	rt
399.0673828125	0.00833333333333333	1	-30	-15	1	1.4599609375
402.9853515625	0.00833333333333333	1	30	15	2	0.8623046875
406.0439453125	0.00833333333333333	1	30	14	2	0.66796875
409.091796875	0.00833333333333333	1	30	13	2	0.5244140625
411.90234375	0.00833333333333333	1	NaN	-15	1	0.6416015625
414.6259765625	0.00833333333333333	1	-30	15	1	0.501953125
417.3427734375	0.00833333333333333	1	30	-15	2	0.5380859375
420.017578125	0.00833333333333333	1	-30	-14	1	0.470703125
422.66796875	0.00833333333333333	1	30	12	2	0.46875
425.5341796875	0.00833333333333333	1	NaN	15	2	0.5068359375
428.30078125	0.00833333333333333	1	NaN	-14	1	0.4599609375
431.0927734375	0.00833333333333333	1	NaN	-13	1	0.564453125
433.734375	0.00833333333333333	1	NaN	-12	2	0.38671875
436.150390625	0.00833333333333333	1	30	-16	2	0.4267578125
439.0009765625	0.00833333333333333	1	NaN	-13	1	0.49609375
441.6591796875	0.00833333333333333	1	NaN	14	2	0.4296875
444.5830078125	0.00833333333333333	1	30	-17	2	0.505859375
447.55078125	0.00833333333333333	1	NaN	-12	1	0.490234375
450.2998046875	0.00833333333333333	1	30	-18	2	0.3896484375
452.8505859375	0.00833333333333333	1	30	11	2	0.52734375
455.4755859375	0.00833333333333333	1	NaN	-11	1	0.4619140625
458.2919921875	0.00833333333333333	1	NaN	-10	1	0.4853515625
461.025390625	0.00833333333333333	1	30	10	2	0.5283203125
463.833984375	0.00833333333333333	1	NaN	13	2	0.50390625
466.525390625	0.00833333333333333	1	NaN	-9	1	0.4609375
469.05859375	0.00833333333333333	1	30	9	2	0.447265625
471.5419921875	0.00833333333333333	1	NaN	-8	1	0.5166015625
474.3251953125	0.00833333333333333	1	NaN	-7	1	0.533203125
476.8916015625	0.00833333333333333	1	NaN	-6	1	0.4462890625
479.6748046875	0.00833333333333333	1	-30	-13	1	0.51171875
482.6669921875	0.00833333333333333	1	-30	16	1	0.935546875
486.150390625	0.00833333333333333	1	30	8	2	0.5
488.6826171875	0.00833333333333333	1	30	7	2	0.48046875
491.2919921875	0.00833333333333333	1	-30	17	1	0.4951171875
494.2587890625	0.00833333333333333	1	NaN	-5	1	0.4404296875
496.68359375	0.00833333333333333	1	NaN	12	2	0.50390625
499.4501953125	0.00833333333333333	1	-30	-12	1	0.5126953125
502.3828125	0.00833333333333333	1	-30	18	1	0.484375
505.166015625	0.00833333333333333	1	30	-19	2	0.4609375
507.7080078125	0.00833333333333333	1	-30	19	1	0.359375
510.2998046875	0.00833333333333333	1	-30	20	1	0.51171875
513.166015625	0.00833333333333333	1	-30	21	1	0.4619140625
515.8583984375	0.00833333333333333	1	NaN	-4	1	0.544921875
518.541015625	0.00833333333333333	1	NaN	-3	1	0.5263671875
521.474609375	0.00833333333333333	1	NaN	-2	1	0.4970703125
524.125	0.00833333333333333	1	NaN	11	2	0.390625
526.8408203125	0.00833333333333333	1	NaN	-1	1	0.5234375
529.783203125	0.00833333333333333	1	NaN	0	1	0.556640625
532.490234375	0.00833333333333333	1	NaN	10	2	0.6337890625
535.2822265625	0.00833333333333333	1	-30	-11	1	0.5224609375
538.1240234375	0.00833333333333333	1	30	6	2	0.896484375
541.298828125	0.00833333333333333	1	NaN	1	2	0.7294921875
544.44140625	0.00833333333333333	1	NaN	9	2	0.451171875
547.3994140625	0.00833333333333333	1	-30	-10	1	0.5009765625
550.32421875	0.00833333333333333	1	-30	-9	1	0.5283203125
553.3154296875	0.00833333333333333	1	30	-20	2	0.513671875
555.8828125	0.00833333333333333	1	NaN	0	2	0.833984375
558.7744140625	0.00833333333333333	1	NaN	8	2	0.447265625
561.6494140625	0.00833333333333333	1	-30	-8	1	0.4599609375
564.4228515625	0.00833333333333333	1	-30	-7	1	0.4140625
566.982421875	0.00833333333333333	1	NaN	7	2	0.5185546875
569.7490234375	0.00833333333333333	1	-30	-6	1	0.4404296875
572.57421875	0.00833333333333333	1	30	-21	2	0.623046875
575.265625	0.00833333333333333	1	NaN	6	2	0.4677734375
577.865234375	0.00833333333333333	1	-30	22	1	0.4453125
580.5576171875	0.00833333333333333	1	30	-22	2	0.5048828125
583.5322265625	0.00833333333333333	1	NaN	5	2	0.41796875
586.240234375	0.00833333333333333	1	30	5	2	0.421875
588.8564453125	0.00833333333333333	1	30	4	2	0.501953125
591.5234375	0.00833333333333333	1	30	3	2	0.40234375
594.2568359375	0.00833333333333333	1	30	2	2	0.4453125
597.21484375	0.00833333333333333	1	NaN	4	2	0.439453125
599.873046875	0.00833333333333333	1	-30	23	1	0.3974609375
602.4404296875	0.00833333333333333	1	NaN	3	2	0.4375
605.2568359375	0.00833333333333333	1	NaN	2	2	0.494140625
607.9404296875	0.00833333333333333	1	NaN	1	2	0.40234375
610.7734375	0.00833333333333333	1	-30	-5	1	0.43359375
613.6318359375	0.00833333333333333	1	-30	-4	1	0.4228515625
616.3896484375	0.00833333333333333	1	30	1	2	0.5849609375
619.2978515625	0.00833333333333333	1	NaN	0	2	0.9892578125
622.4150390625	0.00833333333333333	1	-30	-3	1	0.4404296875
625.2646484375	0.00833333333333333	1	NaN	-1	2	0.5908203125
628.2646484375	0.00833333333333333	1	NaN	-2	1	0.783203125
631.439453125	0.00833333333333333	1	30	0	2	0.5283203125
634.3818359375	0.00833333333333333	1	-30	24	1	0.5380859375
637.21484375	0.00833333333333333	1	-30	-2	1	0.568359375
639.9150390625	0.00833333333333333	1	NaN	-1	2	1.0126953125
643.4140625	0.00833333333333333	1	-30	-1	1	0.4736328125
645.880859375	0.00833333333333333	1	NaN	-2	2	0.8388671875
649.0146484375	0.00833333333333333	1	-30	25	1	0.5771484375
651.6142578125	0.00833333333333333	1	-30	0	1	0.43359375
654.2314453125	0.00833333333333333	1	-30	26	1	0.5126953125
656.9228515625	0.00833333333333333	1	30	-1	2	0.4697265625
659.5390625	0.00833333333333333	1	30	-2	2	0.4931640625
662.4306640625	0.00833333333333333	1	NaN	-3	1	0.505859375
665.3310546875	0.00833333333333333	1	30	-3	2	0.4052734375
668.197265625	0.00833333333333333	1	NaN	-2	1	0.595703125
671.0224609375	0.00833333333333333	1	NaN	-1	1	0.5380859375
674.10546875	0.00833333333333333	1	-30	27	1	1.9443359375
677.99609375	0.00833333333333333	1	-30	28	2	1.0771484375
681.3388671875	0.00833333333333333	1	-30	1	2	0.8779296875
684.630859375	0.00833333333333333	1	30	-23	1	0.7060546875
687.6220703125	0.00833333333333333	1	NaN	0	2	0.72265625
690.6796875	0.00833333333333333	1	30	-22	1	0.76953125
693.455078125	0.00833333333333333	1	-30	27	2	0.5068359375
696.2470703125	0.00833333333333333	1	NaN	-1	1	0.71484375
723.6220703125	0.00833333333333333	1	-30	26	2	0.716796875
726.6962890625	0.00833333333333333	1	-30	0	2	0.7138671875
729.5712890625	0.00833333333333333	1	30	-21	1	0.431640625
732.2548828125	0.00833333333333333	1	NaN	-1	2	0.65234375
734.9794921875	0.00833333333333333	1	30	-4	1	0.51953125
737.796875	0.00833333333333333	1	NaN	0	2	0.7177734375
740.7958984375	0.00833333333333333	1	-30	25	2	0.5029296875
743.6630859375	0.00833333333333333	1	NaN	-2	1	0.5478515625
746.6708984375	0.00833333333333333	1	NaN	-1	1	0.564453125
749.25390625	0.00833333333333333	1	NaN	0	2	0.3974609375
752.0966796875	0.00833333333333333	1	-30	24	2	0.474609375
754.904296875	0.00833333333333333	1	NaN	-1	2	0.626953125
757.771484375	0.00833333333333333	1	30	-20	1	0.568359375
760.6201171875	0.00833333333333333	1	-30	-1	2	0.4638671875
763.3046875	0.00833333333333333	1	-30	23	2	0.5546875
766.029296875	0.00833333333333333	1	NaN	-1	1	0.4462890625
768.896484375	0.00833333333333333	1	-30	22	2	0.4833984375
771.49609375	0.00833333333333333	1	NaN	-2	1	0.4677734375
774.1875	0.00833333333333333	1	30	-3	1	0.78515625
777.1376953125	0.00833333333333333	1	-30	21	2	0.498046875
779.6875	0.00833333333333333	1	NaN	0	2	0.708984375
782.6123046875	0.00833333333333333	1	30	-19	1	0.4638671875
785.212890625	0.00833333333333333	1	30	-2	1	0.439453125
788.095703125	0.00833333333333333	1	-30	20	2	0.396484375
790.9287109375	0.00833333333333333	1	-30	19	2	0.4921875
793.4453125	0.00833333333333333	1	-30	18	2	0.4794921875
796.3291015625	0.00833333333333333	1	NaN	-1	1	0.36328125
798.8369140625	0.00833333333333333	1	NaN	-1	2	0.271484375
801.3203125	0.00833333333333333	1	-30	-2	2	0.4052734375
804.287109375	0.00833333333333333	1	30	-1	1	0.509765625
806.8125	0.00833333333333333	1	30	-18	1	0.4326171875
809.662109375	0.00833333333333333	1	30	-17	1	0.4150390625
812.228515625	0.00833333333333333	1	-30	-3	2	0.4013671875
814.7373046875	0.00833333333333333	1	30	-16	1	0.4365234375
817.52734375	0.00833333333333333	1	30	-15	1	0.4619140625
820.4541015625	0.00833333333333333	1	-30	-4	2	0.423828125
823.0537109375	0.00833333333333333	1	30	0	1	0.4638671875
825.9033203125	0.00833333333333333	1	-30	-5	2	0.3583984375
828.87890625	0.00833333333333333	1	-30	17	2	0.4951171875
831.6787109375	0.00833333333333333	1	NaN	-2	2	0.462890625
834.611328125	0.00833333333333333	1	-30	-6	2	0.5302734375
837.453125	0.00833333333333333	1	NaN	-3	2	0.560546875
840.4697265625	0.00833333333333333	1	30	1	1	0.46484375
843.412109375	0.00833333333333333	1	NaN	-4	1	0.6669921875
846.060546875	0.00833333333333333	1	NaN	-3	1	0.658203125
849.103515625	0.00833333333333333	1	30	2	1	0.55078125
851.9365234375	0.00833333333333333	1	NaN	0	2	0.654296875
855.0361328125	0.00833333333333333	1	30	-14	1	0.4189453125
857.59375	0.00833333333333333	1	30	-13	1	0.4453125
860.302734375	0.00833333333333333	1	30	-12	1	0.408203125
862.728515625	0.00833333333333333	1	NaN	-1	2	0.7265625
865.994140625	0.00833333333333333	1	30	3	1	0.525390625
868.6279296875	0.00833333333333333	1	30	-11	1	0.4833984375
871.28515625	0.00833333333333333	1	30	-10	1	0.4423828125
873.7861328125	0.00833333333333333	1	NaN	-2	2	0.5654296875
876.7109375	0.00833333333333333	1	30	4	1	0.560546875
879.76171875	0.00833333333333333	1	-30	16	2	0.5263671875
882.5615234375	0.00833333333333333	1	-30	15	2	0.494140625
885.6025390625	0.00833333333333333	1	30	-9	1	0.4609375
888.3935546875	0.00833333333333333	1	-30	14	2	0.55859375
891.302734375	0.00833333333333333	1	-30	-7	2	0.673828125
894.1767578125	0.00833333333333333	1	-30	13	2	0.431640625
896.9775390625	0.00833333333333333	1	-30	-8	2	0.734375
900.0439453125	0.00833333333333333	1	-30	12	2	0.4921875
902.8359375	0.00833333333333333	1	30	-8	1	0.5400390625
905.8193359375	0.00833333333333333	1	NaN	-2	1	0.701171875
908.9267578125	0.00833333333333333	1	NaN	-3	1	0.5693359375
911.6689453125	0.00833333333333333	1	-30	11	2	0.4677734375
914.435546875	0.00833333333333333	1	-30	10	2	0.533203125
917.16015625	0.00833333333333333	1	30	-7	1	0.5927734375
919.90234375	0.00833333333333333	1	30	5	1	0.5068359375
922.9189453125	0.00833333333333333	1	30	-6	1	0.4658203125
925.65234375	0.00833333333333333	1	-30	9	2	0.4443359375
928.5771484375	0.00833333333333333	1	30	6	1	0.4560546875
931.53515625	0.00833333333333333	1	30	-5	1	0.4658203125
934.310546875	0.00833333333333333	1	-30	8	2	0.37109375
937.21875	0.00833333333333333	1	30	7	1	0.638671875
939.9189453125	0.00833333333333333	1	30	8	1	0.7705078125
943.09375	0.00833333333333333	1	30	-4	1	0.5322265625
945.7431640625	0.00833333333333333	1	-30	7	2	0.474609375
948.568359375	0.00833333333333333	1	30	9	1	0.697265625
951.4013671875	0.00833333333333333	1	-30	-9	1	0.552734375
954.30078125	0.00833333333333333	1	-30	-8	1	0.708984375
957.21875	0.00833333333333333	1	NaN	-1	1	0.54296875
960.201171875	0.00833333333333333	1	30	-3	1	0.5927734375
962.8935546875	0.00833333333333333	1	-30	-7	1	0.4208984375
965.8173828125	0.00833333333333333	1	NaN	0	2	0.857421875
969.0185546875	0.00833333333333333	1	30	-2	1	0.4716796875
971.91796875	0.00833333333333333	1	-30	6	2	0.5166015625
974.8017578125	0.00833333333333333	1	30	-1	1	0.6171875
977.7431640625	0.00833333333333333	1	-30	-6	2	0.53125
980.384765625	0.00833333333333333	1	30	10	2	0.826171875
983.4091796875	0.00833333333333333	1	30	9	2	0.73828125
986.2509765625	0.00833333333333333	1	30	0	1	0.48828125
989.134765625	0.00833333333333333	1	30	1	1	0.5166015625
992.142578125	0.00833333333333333	1	-30	5	2	0.4208984375
995.1015625	0.00833333333333333	1	30	2	1	0.525390625
998.0927734375	0.00833333333333333	1	30	8	2	0.623046875
1001.0087890625	0.00833333333333333	1	-30	4	2	0.4111328125
1003.484375	0.00833333333333333	1	NaN	-1	1	0.591796875
1006.2177734375	0.00833333333333333	1	30	3	1	0.482421875
1008.7587890625	0.00833333333333333	1	-30	3	2	0.533203125
1011.7841796875	0.00833333333333333	1	30	4	1	0.4521484375
1014.75	0.00833333333333333	1	-30	-7	2	0.7177734375
1017.7255859375	0.00833333333333333	1	30	5	1	0.982421875
1020.984375	0.00833333333333333	1	-30	-8	2	1.5322265625
1083.9326171875	0.00833333333333333	1	NaN	0	2	2.59375
1088.5830078125	0.00833333333333333	1	-30	-9	1	0.9677734375
1091.75	0.00833333333333333	1	30	6	2	0.7529296875
1094.9501953125	0.00833333333333333	1	-30	2	2	0.7041015625
1097.9248046875	0.00833333333333333	1	-30	1	2	0.6181640625
1100.666015625	0.00833333333333333	1	-30	-8	2	0.65234375
1103.416015625	0.00833333333333333	1	30	7	2	0.5751953125
1106.0576171875	0.00833333333333333	1	-30	-9	2	0.5888671875
1109.0732421875	0.00833333333333333	1	30	5	2	1.1337890625
1112.3330078125	0.00833333333333333	1	30	6	2	0.7783203125
1115.6240234375	0.00833333333333333	1	-30	0	2	0.6552734375
1118.6328125	0.00833333333333333	1	30	4	2	0.7666015625
1121.6982421875	0.00833333333333333	1	30	5	2	0.861328125
1125.15625	0.00833333333333333	1	-30	-10	2	0.611328125
1128.265625	0.00833333333333333	1	-30	-11	2	0.6064453125
1131.1494140625	0.00833333333333333	1	-30	-12	1	0.41796875
1133.9326171875	0.00833333333333333	1	-30	-1	2	0.5390625
1136.9072265625	0.00833333333333333	1	-30	-11	2	0.8212890625
1140.1240234375	0.00833333333333333	1	30	3	2	0.572265625
1142.890625	0.00833333333333333	1	30	2	1	0.6376953125
1145.9990234375	0.00833333333333333	1	-30	-12	1	0.4892578125
1148.58203125	0.00833333333333333	1	30	4	1	0.5625
1151.5478515625	0.00833333333333333	1	30	3	1	0.4931640625
1154.0986328125	0.00833333333333333	1	30	4	1	0.486328125
1157.0654296875	0.00833333333333333	1	30	5	1	0.51171875
1160.0908203125	0.00833333333333333	1	30	6	1	0.6064453125
1163.0654296875	0.00833333333333333	1	30	7	1	0.607421875
1165.990234375	0.00833333333333333	1	30	5	1	0.5791015625
1168.9150390625	0.00833333333333333	1	-30	-11	1	0.4384765625
1171.5986328125	0.00833333333333333	1	30	6	1	0.546875
1174.505859375	0.00833333333333333	1	-30	-2	2	0.703125
1177.4736328125	0.00833333333333333	1	30	7	2	0.6640625
1180.357421875	0.00833333333333333	1	-30	-10	2	0.580078125
1183.3984375	0.00833333333333333	1	-30	-3	2	0.5068359375
1186.064453125	0.00833333333333333	1	30	8	2	0.5771484375
1188.7900390625	0.00833333333333333	1	-30	-4	2	0.4833984375
1191.5654296875	0.00833333333333333	1	30	6	2	0.587890625
1194.6396484375	0.00833333333333333	1	30	5	1	1.138671875
1197.83984375	0.00833333333333333	1	30	6	2	0.4423828125
1200.3564453125	0.00833333333333333	1	-30	-11	1	0.5654296875
1202.95703125	0.00833333333333333	1	-30	-5	2	0.4853515625
1205.888671875	0.00833333333333333	1	30	7	2	0.529296875
1208.498046875	0.00833333333333333	1	30	6	2	0.82421875
1211.65625	0.00833333333333333	1	-30	-6	2	0.5380859375
1214.447265625	0.00833333333333333	1	30	5	2	0.6279296875
1217.505859375	0.00833333333333333	1	30	5	2	0.640625
1220.3056640625	0.00833333333333333	1	30	4	2	0.953125
1223.671875	0.00833333333333333	1	30	4	1	0.8994140625
1226.8310546875	0.00833333333333333	1	30	5	2	1.3720703125
1230.4228515625	0.00833333333333333	1	30	3	1	0.63671875
1233.189453125	0.00833333333333333	1	30	4	2	0.9423828125
1236.23046875	0.00833333333333333	1	-30	-7	2	0.6044921875
1239.28125	0.00833333333333333	1	-30	-8	2	1.2822265625
1242.755859375	0.00833333333333333	1	30	3	1	0.6630859375
1245.873046875	0.00833333333333333	1	-30	-9	2	0.6669921875
1248.6552734375	0.00833333333333333	1	30	4	1	0.732421875
1251.8896484375	0.00833333333333333	1	30	4	1	0.6259765625
1254.947265625	0.00833333333333333	1	30	5	1	0.6005859375
1257.72265625	0.00833333333333333	1	30	6	1	0.6494140625
1260.447265625	0.00833333333333333	1	-30	-10	1	0.732421875
1263.322265625	0.00833333333333333	1	30	7	2	0.8896484375
1266.3974609375	0.00833333333333333	1	30	5	1	0.623046875
1269.1806640625	0.00833333333333333	1	-30	-9	1	0.599609375
1272.09765625	0.00833333333333333	1	30	6	1	0.6591796875
1274.7890625	0.00833333333333333	1	-30	-8	2	0.599609375
1277.7138671875	0.00833333333333333	1	30	6	2	1.626953125
1281.896484375	0.00833333333333333	1	30	7	2	0.724609375
1284.73828125	0.00833333333333333	1	-30	-9	2	0.9462890625
1287.955078125	0.00833333333333333	1	30	5	1	0.642578125
1290.9794921875	0.00833333333333333	1	30	6	2	0.6572265625
1293.73828125	0.00833333333333333	1	30	6	2	0.5390625
1296.6806640625	0.00833333333333333	1	-30	-10	2	0.6767578125
1299.830078125	0.00833333333333333	1	30	5	2	1.0322265625
1303.296875	0.00833333333333333	1	30	4	2	0.5810546875
1305.9462890625	0.00833333333333333	1	-30	-11	1	0.763671875
1309.205078125	0.00833333333333333	1	30	3	1	0.7529296875
1312.10546875	0.00833333333333333	1	30	4	1	0.5966796875
1314.9130859375	0.00833333333333333	1	-30	-10	1	0.716796875
1318.0302734375	0.00833333333333333	1	30	5	1	0.751953125
1321.2802734375	0.00833333333333333	1	30	6	2	0.91796875
1324.5634765625	0.00833333333333333	1	-30	-9	1	0.5146484375
1327.36328125	0.00833333333333333	1	-30	-8	1	0.6826171875
1330.49609375	0.00833333333333333	1	-30	-7	1	1.798828125
1334.646484375	0.00833333333333333	1	-30	-6	1	0.6796875
1337.8466796875	0.00833333333333333	1	-30	-5	2	0.5595703125
1340.6630859375	0.00833333333333333	1	-30	-6	2	0.6396484375
1343.5126953125	0.00833333333333333	1	-30	-7	2	0.91796875
1346.6796875	0.00833333333333333	1	-30	-8	2	1.607421875
1350.669921875	0.00833333333333333	1	-30	-9	1	0.673828125
1353.74609375	0.00833333333333333	1	-30	-8	2	0.693359375
1356.5712890625	0.00833333333333333	1	-30	-9	1	0.68359375
1359.712890625	0.00833333333333333	1	-30	-8	1	0.5107421875
1362.3623046875	0.00833333333333333	1	-30	-7	1	0.95703125
1365.6865234375	0.00833333333333333	1	-30	-6	2	0.7294921875
1368.6865234375	0.00833333333333333	1	-30	-7	1	0.6572265625
1371.779296875	0.00833333333333333	1	NaN	-0.666666666666667	2	0.5966796875
1374.404296875	0.00833333333333333	1	-30	-9.5	1	0.595703125
1377.49609375	0.00833333333333333	1	30	5.5	2	0.6162109375
1380.220703125	0.00833333333333333	1	30	5.375	2	0.515625
1383.046875	0.00833333333333333	1	-30	-8.5	1	0.873046875
1402.4208984375	0.00833333333333333	1	30	5.25	2	0.9716796875
1405.6123046875	0.00833333333333333	1	-30	-8.375	1	0.5009765625
1408.169921875	0.00833333333333333	1	NaN	-1.66666666666667	1	1.0791015625
1411.4365234375	0.00833333333333333	1	NaN	-0.791666666666667	1	0.8291015625
1414.7373046875	0.00833333333333333	1	30	4.5	1	1.927734375
1419.0703125	0.00833333333333333	1	NaN	-1.54166666666667	1	0.787109375
1422.0615234375	0.00833333333333333	1	30	5.125	1	0.8359375
1425.2451171875	0.00833333333333333	1	NaN	-0.666666666666667	1	1.8681640625
1429.38671875	0.00833333333333333	1	30	5.25	2	1.0712890625
1432.736328125	0.00833333333333333	1	30	5.125	2	0.8896484375
1435.6787109375	0.00833333333333333	1	NaN	-1.41666666666667	1	0.7236328125
1438.63671875	0.00833333333333333	1	30	4.625	1	1.3740234375
1442.0361328125	0.00833333333333333	1	30	4.75	1	0.7900390625
1444.953125	0.00833333333333333	1	30	5	2	2.0654296875
1449.177734375	0.00833333333333333	1	30	4.875	1	0.8408203125
1452.478515625	0.00833333333333333	1	30	5	1	0.67578125
1455.443359375	0.00833333333333333	1	30	4.875	1	0.759765625
1458.611328125	0.00833333333333333	1	NaN	-0.541666666666667	1	0.7431640625
1461.5947265625	0.00833333333333333	1	NaN	-0.416666666666667	2	1.2880859375
1465.3525390625	0.00833333333333333	1	30	5	1	1.0263671875
1468.619140625	0.00833333333333333	1	30	5.125	1	0.6962890625
1471.560546875	0.00833333333333333	1	30	5.125	1	0.5703125
1474.51953125	0.00833333333333333	1	30	5.25	1	0.6123046875
1477.2099609375	0.00833333333333333	1	-30	-8.25	1	0.59375
1480.0439453125	0.00833333333333333	1	-30	-8.125	1	0.591796875
1483.0849609375	0.00833333333333333	1	NaN	-1.29166666666667	1	0.638671875
1486.001953125	0.00833333333333333	1	30	5.25	1	0.5693359375
1488.9775390625	0.00833333333333333	1	30	5.375	2	0.7861328125
1492.0107421875	0.00833333333333333	1	-30	-9.375	1	0.705078125
1494.986328125	0.00833333333333333	1	-30	-9.25	1	0.705078125
1497.744140625	0.00833333333333333	1	30	5.25	1	0.5634765625
1500.3759765625	0.00833333333333333	1	30	5.375	1	0.7802734375
1503.4609375	0.00833333333333333	1	NaN	-1.16666666666667	1	0.5107421875
1506.3359375	0.00833333333333333	1	-30	-9.125	1	0.65234375
1509.2265625	0.00833333333333333	1	30	5.375	1	0.673828125
1512.1689453125	0.00833333333333333	1	30	5.5	1	0.619140625
1515.09375	0.00833333333333333	1	30	5.5	1	0.623046875
1517.701171875	0.00833333333333333	1	30	5.625	1	0.54296875
1520.40234375	0.00833333333333333	1	-30	-9	1	0.5625
1523.09375	0.00833333333333333	1	-30	-8.875	1	0.8388671875
1526.03515625	0.00833333333333333	1	-30	-8	1	0.5458984375
1528.9267578125	0.00833333333333333	1	-30	-8.75	1	0.677734375
1531.90234375	0.00833333333333333	1	30	5.625	2	0.9033203125
1535.16015625	0.00833333333333333	1	-30	-8.625	2	0.8369140625
1538.28515625	0.00833333333333333	1	30	5.75	2	0.751953125
1541.1103515625	0.00833333333333333	1	-30	-7.875	1	0.775390625
1544.1689453125	0.00833333333333333	1	NaN	-1.04166666666667	2	0.8759765625
1547.185546875	0.00833333333333333	1	-30	-8.75	2	0.6923828125
1550.28515625	0.00833333333333333	1	NaN	-1.16666666666667	2	0.6162109375
1553.1103515625	0.00833333333333333	1	-30	-8.875	1	0.767578125
1556.3515625	0.00833333333333333	1	-30	-7.75	1	0.9658203125
1559.767578125	0.00833333333333333	1	30	5.625	2	0.5830078125
1562.7685546875	0.00833333333333333	1	30	5.5	2	0.5419921875
1565.376953125	0.00833333333333333	1	30	5.5	2	0.662109375
1568.1923828125	0.00833333333333333	1	30	5.375	2	0.677734375
1571.0517578125	0.00833333333333333	1	30	5.375	2	0.642578125
1574.193359375	0.00833333333333333	1	-30	-7.625	2	0.8046875
1577.0341796875	0.00833333333333333	1	30	5.25	2	0.6279296875
1579.80078125	0.00833333333333333	1	NaN	-1.29166666666667	2	0.93359375
1583.1171875	0.00833333333333333	1	NaN	-1.41666666666667	2	0.6171875
1586.134765625	0.00833333333333333	1	-30	-8.75	1	0.7919921875
1589.0341796875	0.00833333333333333	1	NaN	-0.541666666666667	2	1.068359375
1592.2763671875	0.00833333333333333	1	30	5.125	2	0.5146484375
1595.017578125	0.00833333333333333	1	NaN	-0.666666666666667	2	0.9814453125
1598.0927734375	0.00833333333333333	1	NaN	-0.791666666666667	2	0.986328125
1601.29296875	0.00833333333333333	1	NaN	-0.916666666666667	2	1.5302734375
1605.1171875	0.00833333333333333	1	-30	-8.625	1	0.6904296875
1608.158203125	0.00833333333333333	1	NaN	-1.04166666666667	2	1.1533203125
1611.6171875	0.00833333333333333	1	-30	-7.75	1	0.7431640625
1614.55078125	0.00833333333333333	1	NaN	-1.16666666666667	1	0.8173828125
1617.484375	0.00833333333333333	1	NaN	-1.54166666666667	2	2.2197265625
1621.7255859375	0.00833333333333333	1	-30	-7.625	1	0.7705078125
1624.9501953125	0.00833333333333333	1	30	5	2	1.162109375
1628.466796875	0.00833333333333333	1	-30	-8.5	1	0.853515625
1631.5673828125	0.00833333333333333	1	-30	-7.5	1	0.7529296875
1634.4921875	0.00833333333333333	1	-30	-7.375	1	0.5244140625
1637.458984375	0.00833333333333333	1	NaN	-1.04166666666667	1	0.94921875
1640.68359375	0.00833333333333333	1	-30	-8.375	1	1.029296875
1643.841796875	0.00833333333333333	1	30	5.25	2	1.3115234375
1647.2255859375	0.00833333333333333	1	-30	-7.25	1	0.7509765625
1650.265625	0.00833333333333333	1	30	5.125	2	0.7119140625
1653.30859375	0.00833333333333333	1	-30	-7.125	2	0.404296875
1655.8330078125	0.00833333333333333	1	-30	-7.25	1	0.6806640625
1658.5	0.00833333333333333	1	30	4.875	2	0.765625
1661.333984375	0.00833333333333333	1	30	5	2	0.69140625
1664.349609375	0.00833333333333333	1	-30	-8.25	1	0.611328125
1667.06640625	0.00833333333333333	1	30	4.75	2	0.5029296875
1669.625	0.00833333333333333	1	-30	-8.125	1	0.544921875
1672.5	0.00833333333333333	1	NaN	-0.916666666666667	1	0.765625
1675.55859375	0.00833333333333333	1	NaN	-1.66666666666667	1	0.7314453125
1678.30859375	0.00833333333333333	1	30	4.875	2	0.541015625
1680.923828125	0.00833333333333333	1	NaN	-1.54166666666667	1	0.4697265625
1683.8662109375	0.00833333333333333	1	30	4.625	2	0.6796875
1687.041015625	0.00833333333333333	1	30	4.5	2	0.5927734375
1689.7744140625	0.00833333333333333	1	30	4.375	2	0.6435546875
1692.8662109375	0.00833333333333333	1	30	4.25	2	0.560546875
1695.83203125	0.00833333333333333	1	-30	-8	1	0.5302734375
1698.6328125	0.00833333333333333	1	-30	-7.875	1	0.4580078125
1701.423828125	0.00833333333333333	1	-30	-7.125	1	0.474609375
1713.5908203125	0.00833333333333333	1	30	4.75	2	1.1806640625
1716.9404296875	0.00833333333333333	1	NaN	-0.791666666666667	2	1.046875
1720.44140625	0.00833333333333333	1	30	4.625	2	0.6826171875
1723.6162109375	0.00833333333333333	1	30	4.125	2	0.69921875
1726.4326171875	0.00833333333333333	1	NaN	-1.41666666666667	2	0.6591796875
1729.298828125	0.00833333333333333	1	-30	-7.75	1	0.5927734375
1731.8828125	0.00833333333333333	1	30	4	2	0.609375
1734.8994140625	0.00833333333333333	1	30	3.875	2	0.568359375
1737.83984375	0.00833333333333333	1	-30	-7.625	1	0.7236328125
1740.5908203125	0.00833333333333333	1	30	4.5	2	0.548828125
1743.623046875	0.00833333333333333	1	30	3.75	2	0.708984375
1746.45703125	0.00833333333333333	1	30	3.625	1	0.8037109375
1749.7744140625	0.00833333333333333	1	NaN	-0.916666666666667	2	0.6376953125
1752.69921875	0.00833333333333333	1	30	4.375	2	0.6015625
1755.6650390625	0.00833333333333333	1	NaN	-1.54166666666667	2	0.5869140625
1758.431640625	0.00833333333333333	1	30	3.75	2	0.9013671875
1761.58203125	0.00833333333333333	1	-30	-7	2	0.646484375
1764.3408203125	0.00833333333333333	1	30	3.625	2	0.6484375
1767.240234375	0.00833333333333333	1	-30	-7.5	2	0.7646484375
1770.20703125	0.00833333333333333	1	30	3.5	1	1.1982421875
1773.6982421875	0.00833333333333333	1	-30	-7.625	2	0.970703125
1777.0322265625	0.00833333333333333	1	30	3.625	2	0.8291015625
1780.248046875	0.00833333333333333	1	-30	-7.75	2	0.6611328125
1782.9736328125	0.00833333333333333	1	NaN	-1.66666666666667	2	0.6953125
1785.6318359375	0.00833333333333333	1	-30	-7.875	2	0.6455078125
1788.689453125	0.00833333333333333	1	30	4.25	2	0.6357421875
1791.8818359375	0.00833333333333333	1	NaN	-1.79166666666667	2	0.4833984375
1794.8056640625	0.00833333333333333	1	30	3.5	2	0.8408203125
1797.7314453125	0.00833333333333333	1	-30	-7.125	2	0.6025390625
1800.71484375	0.00833333333333333	1	-30	-8	2	0.611328125
1803.623046875	0.00833333333333333	1	30	3.375	2	0.806640625
1806.5732421875	0.00833333333333333	1	30	3.25	2	0.6171875
1809.3466796875	0.00833333333333333	1	NaN	-1.91666666666667	2	0.435546875
1811.931640625	0.00833333333333333	1	NaN	-1.04166666666667	2	0.73046875
1814.97265625	0.00833333333333333	1	NaN	-1.16666666666667	2	0.5615234375
1817.6142578125	0.00833333333333333	1	30	3.125	2	1.5439453125
1821.4306640625	0.00833333333333333	1	NaN	-2.04166666666667	1	0.759765625
1824.7392578125	0.00833333333333333	1	30	4.125	2	0.962890625
1827.98046875	0.00833333333333333	1	NaN	-1.29166666666667	1	1.41015625
1831.7724609375	0.00833333333333333	1	-30	-8.125	1	0.875
1834.8642578125	0.00833333333333333	1	-30	-7.25	2	1.1904296875
1838.59765625	0.00833333333333333	1	30	4	1	0.7216796875
1841.5556640625	0.00833333333333333	1	-30	-7.375	2	0.69921875
1844.7470703125	0.00833333333333333	1	-30	-8	1	0.6044921875
1847.814453125	0.00833333333333333	1	30	4.125	1	0.6171875
1850.7294921875	0.00833333333333333	1	30	3	2	0.4541015625
1853.8388671875	0.00833333333333333	1	30	4.25	1	0.5927734375
1856.6220703125	0.00833333333333333	1	-30	-7.5	1	0.6015625
1859.3642578125	0.00833333333333333	1	NaN	-1.16666666666667	1	0.7314453125
1862.455078125	0.00833333333333333	1	-30	-7.875	1	0.529296875
1865.3134765625	0.00833333333333333	1	NaN	-1.04166666666667	1	0.5107421875
1868.263671875	0.00833333333333333	1	-30	-7.75	1	0.6162109375
1871.3720703125	0.00833333333333333	1	-30	-7.375	1	0.4921875
1874.0556640625	0.00833333333333333	1	-30	-7.25	1	0.568359375
1877.138671875	0.00833333333333333	1	30	4.375	1	0.7734375
1880.0390625	0.00833333333333333	1	-30	-7.625	1	0.6416015625
1883.23046875	0.00833333333333333	1	30	4.5	1	0.5380859375
1885.98828125	0.00833333333333333	1	-30	-7.125	1	0.5966796875
1888.98828125	0.00833333333333333	1	30	2.875	1	0.732421875
1892.220703125	0.00833333333333333	1	NaN	-0.916666666666667	1	0.65234375
1895.263671875	0.00833333333333333	1	NaN	-0.791666666666667	1	0.529296875
1898.2470703125	0.00833333333333333	1	-30	-7	1	0.73046875
1901.11328125	0.00833333333333333	1	NaN	-0.666666666666667	1	0.9599609375
1904.4970703125	0.00833333333333333	1	30	3	1	0.6162109375
1907.4794921875	0.00833333333333333	1	30	3.125	2	0.6025390625
1910.4052734375	0.00833333333333333	1	30	4.625	2	0.587890625
1913.3466796875	0.00833333333333333	1	NaN	-0.541666666666667	2	0.7587890625
1916.580078125	0.00833333333333333	1	-30	-6.875	2	0.669921875
1919.7626953125	0.00833333333333333	1	NaN	-1.91666666666667	2	0.7587890625
1922.5634765625	0.00833333333333333	1	NaN	-2.04166666666667	2	0.7421875
1925.5458984375	0.00833333333333333	1	-30	-7.5	2	0.6884765625
1928.779296875	0.00833333333333333	1	30	3	2	0.638671875
1931.5966796875	0.00833333333333333	1	-30	-7	2	0.861328125
1934.6962890625	0.00833333333333333	1	-30	-7.625	2	0.5947265625
1937.7958984375	0.00833333333333333	1	30	2.875	2	1.8701171875
1941.98828125	0.00833333333333333	1	30	2.75	2	0.8466796875
1945.4296875	0.00833333333333333	1	NaN	-0.666666666666667	2	0.8291015625
1948.6708984375	0.00833333333333333	1	NaN	-2.16666666666667	2	0.7314453125
1951.6630859375	0.00833333333333333	1	-30	-7.125	2	0.7236328125
1954.8212890625	0.00833333333333333	1	30	4.5	2	0.5419921875
1957.6044921875	0.00833333333333333	1	NaN	-0.791666666666667	2	0.7666015625
1960.62890625	0.00833333333333333	1	30	2.625	2	0.6142578125
1963.8037109375	0.00833333333333333	1	-30	-7.75	2	0.86328125
1967.1376953125	0.00833333333333333	1	NaN	-2.29166666666667	1	0.673828125
1970.0947265625	0.00833333333333333	1	NaN	-2.16666666666667	2	0.8369140625
1973.25390625	0.00833333333333333	1	30	2.5	2	0.9013671875
1976.3037109375	0.00833333333333333	1	-30	-7.875	1	1.1240234375
1979.912109375	0.00833333333333333	1	-30	-7.25	1	0.6201171875
1982.7041015625	0.00833333333333333	1	NaN	-2.29166666666667	1	0.587890625
1985.6787109375	0.00833333333333333	1	30	4.375	2	0.6689453125
1988.5283203125	0.00833333333333333	1	NaN	-0.916666666666667	2	0.6123046875
1991.2705078125	0.00833333333333333	1	NaN	-2.16666666666667	2	0.9736328125
1994.7451171875	0.00833333333333333	1	NaN	-1.04166666666667	2	0.70703125
1997.560546875	0.00833333333333333	1	NaN	-2.29166666666667	1	0.572265625
2000.4287109375	0.00833333333333333	1	NaN	-1.16666666666667	2	1.6640625
2004.4619140625	0.00833333333333333	1	30	4.25	1	0.5986328125
2007.1455078125	0.00833333333333333	1	30	2.375	1	0.626953125
2010.228515625	0.00833333333333333	1	30	2.5	1	0.7685546875
2013.294921875	0.00833333333333333	1	30	4.375	2	0.9501953125
2051.4189453125	0.00833333333333333	1	30	4.25	2	1.4912109375
2055.0029296875	0.00833333333333333	1	-30	-7.75	1	0.4912109375
2057.6943359375	0.00833333333333333	1	NaN	-1.29166666666667	1	1.064453125
2061.1025390625	0.00833333333333333	1	30	2.625	1	0.576171875
2063.77734375	0.00833333333333333	1	NaN	-2.16666666666667	1	0.548828125
2066.677734375	0.00833333333333333	1	-30	-7.125	1	0.7529296875
2069.560546875	0.00833333333333333	1	NaN	-1.16666666666667	1	0.501953125
2072.361328125	0.00833333333333333	1	NaN	-2.04166666666667	1	0.509765625
2075.052734375	0.00833333333333333	1	NaN	-1.04166666666667	1	0.7060546875
2078.060546875	0.00833333333333333	1	30	4.125	1	0.6826171875
2081.009765625	0.00833333333333333	1	-30	-7	1	0.7490234375
2084.119140625	0.00833333333333333	1	30	2.75	1	0.568359375
2086.9853515625	0.00833333333333333	1	-30	-7.625	1	0.5341796875
2089.7021484375	0.00833333333333333	1	30	2.875	1	0.43359375
2092.619140625	0.00833333333333333	1	-30	-6.875	2	0.64453125
2095.802734375	0.00833333333333333	1	-30	-7	1	1.0048828125
2099.1767578125	0.00833333333333333	1	NaN	-1.91666666666667	1	0.615234375
2101.9775390625	0.00833333333333333	1	30	3	1	0.494140625
2104.9013671875	0.00833333333333333	1	30	3.125	1	0.5224609375
2107.8515625	0.00833333333333333	1	NaN	-1.79166666666667	1	0.564453125
2110.6591796875	0.00833333333333333	1	NaN	-1.66666666666667	1	0.46875
2113.2939453125	0.00833333333333333	1	-30	-7.5	1	0.74609375
2116.185546875	0.00833333333333333	1	30	4.25	1	0.4462890625
2118.9853515625	0.00833333333333333	1	30	4.375	1	0.5595703125
2121.7431640625	0.00833333333333333	1	NaN	-0.916666666666667	1	0.59375
2124.78515625	0.00833333333333333	1	30	4.5	1	0.5830078125
2127.5771484375	0.00833333333333333	1	30	3.25	1	0.52734375
2130.4013671875	0.00833333333333333	1	30	3.375	1	0.439453125
2132.96875	0.00833333333333333	1	NaN	-1.54166666666667	1	0.4560546875
2135.9345703125	0.00833333333333333	1	30	4.625	1	0.5947265625
2139.068359375	0.00833333333333333	1	-30	-7.375	1	0.4208984375
2141.6591796875	0.00833333333333333	1	-30	-6.875	1	0.4541015625
2144.4765625	0.00833333333333333	1	NaN	-1.41666666666667	1	0.533203125
2147.1513671875	0.00833333333333333	1	30	3.5	2	1.08984375
2150.3173828125	0.00833333333333333	1	30	4.75	2	0.603515625
2153.0009765625	0.00833333333333333	1	30	3.375	1	0.79296875
2155.8759765625	0.00833333333333333	1	-30	-6.75	2	0.501953125
2158.4345703125	0.00833333333333333	1	NaN	-0.791666666666667	2	0.6474609375
2161.267578125	0.00833333333333333	1	30	4.625	2	0.75
2164.0927734375	0.00833333333333333	1	-30	-7.25	2	0.701171875
2166.9013671875	0.00833333333333333	1	-30	-7.375	2	0.6123046875
2169.9677734375	0.00833333333333333	1	-30	-7.5	1	0.578125
2172.8427734375	0.00833333333333333	1	NaN	-1.29166666666667	2	0.3837890625
2175.6181640625	0.00833333333333333	1	-30	-6.875	2	0.50390625
2178.3681640625	0.00833333333333333	1	30	4.5	2	0.5458984375
2181.16796875	0.00833333333333333	1	30	4.375	2	0.5625
2183.8583984375	0.00833333333333333	1	30	4.25	2	0.640625
2186.8681640625	0.00833333333333333	1	NaN	-0.916666666666667	2	0.5263671875
2189.8427734375	0.00833333333333333	1	NaN	-1.41666666666667	2	0.576171875
2192.6845703125	0.00833333333333333	1	NaN	-1.54166666666667	2	0.57421875
2195.5341796875	0.00833333333333333	1	-30	-7	2	0.6923828125
2198.3759765625	0.00833333333333333	1	-30	-7.375	2	0.611328125
2201.359375	0.00833333333333333	1	30	4.125	2	1.00390625
2204.533203125	0.00833333333333333	1	-30	-7.125	2	0.9423828125
2207.650390625	0.00833333333333333	1	-30	-7.25	2	0.9931640625
2211.099609375	0.00833333333333333	1	NaN	-1.04166666666667	1	0.6083984375
2213.9501953125	0.00833333333333333	1	NaN	-1.66666666666667	2	1.1171875
2217.5009765625	0.00833333333333333	1	-30	-7.5	2	0.7666015625
2220.392578125	0.00833333333333333	1	NaN	-1.79166666666667	1	0.69140625
2223.05859375	0.00833333333333333	1	-30	-7.625	1	0.6171875
2226.1171875	0.00833333333333333	1	30	4	2	0.814453125
2229.390625	0.00833333333333333	1	-30	-7.5	1	0.525390625
2232.43359375	0.00833333333333333	1	-30	-7.375	2	1.0908203125
2236	0.00833333333333333	1	30	3.875	2	0.8603515625
2238.9423828125	0.00833333333333333	1	-30	-7.5	1	0.7734375
2242.05859375	0.00833333333333333	1	NaN	-1.66666666666667	2	1.001953125
2245.3330078125	0.00833333333333333	1	NaN	-1.79166666666667	1	0.6640625
2248.2080078125	0.00833333333333333	1	NaN	-0.916666666666667	2	0.7646484375
2251.2080078125	0.00833333333333333	1	-30	-7.375	1	1.3173828125
2254.6669921875	0.00833333333333333	1	NaN	-1.66666666666667	2	0.5859375
2257.5	0.00833333333333333	1	-30	-7.25	1	0.873046875
2260.68359375	0.00833333333333333	1	-30	-7.125	1	0.9140625
2263.6494140625	0.00833333333333333	1	30	3.75	1	0.67578125
2266.4912109375	0.00833333333333333	1	30	3.875	1	0.5859375
2269.490234375	0.00833333333333333	1	-30	-7.375	2	0.6435546875
2272.341796875	0.00833333333333333	1	NaN	-1.04166666666667	2	1.416015625
2275.7412109375	0.00833333333333333	1	30	4	1	0.888671875
2279.1162109375	0.00833333333333333	1	30	4.125	2	0.6494140625
2281.990234375	0.00833333333333333	1	-30	-7	2	0.591796875
2284.8662109375	0.00833333333333333	1	NaN	-1.16666666666667	2	0.587890625
2287.71484375	0.00833333333333333	1	30	4	2	2.1787109375
2291.974609375	0.00833333333333333	1	-30	-7.5	2	0.5517578125
2295.041015625	0.00833333333333333	1	30	3.875	2	0.64453125
2297.732421875	0.00833333333333333	1	30	3.75	2	0.6416015625
2300.7744140625	0.00833333333333333	1	-30	-7.625	1	0.5361328125
2303.6826171875	0.00833333333333333	1	-30	-7.5	2	0.8759765625
2306.8076171875	0.00833333333333333	1	NaN	-1.29166666666667	2	0.615234375
2309.640625	0.00833333333333333	1	NaN	-1.41666666666667	1	0.59765625
2312.3154296875	0.00833333333333333	1	-30	-7.125	1	0.67578125
2315.232421875	0.00833333333333333	1	-30	-7	1	0.57421875
2318.0908203125	0.00833333333333333	1	-30	-6.875	2	0.580078125
2320.8154296875	0.00833333333333333	1	NaN	-1.29166666666667	2	0.51953125
2323.740234375	0.00833333333333333	1	-30	-7.625	2	0.794921875
2327.015625	0.00833333333333333	1	NaN	-1.41666666666667	2	0.9912109375
2330.07421875	0.00833333333333333	1	-30	-7.75	1	1.365234375
2333.765625	0.00833333333333333	1	30	3.625	1	0.921875
2336.9326171875	0.00833333333333333	1	NaN	-1.54166666666667	1	1.203125
2340.20703125	0.00833333333333333	1	-30	-7.625	1	0.705078125
2343.3984375	0.00833333333333333	1	30	3.75	1	0.681640625
2346.5322265625	0.00833333333333333	1	-30	-7.5	1	0.8359375
2349.4482421875	0.00833333333333333	1	30	3.875	1	0.6640625
2363.4814453125	0.00833333333333333	1	30	4	2	1.0068359375
2366.5556640625	0.00833333333333333	1	30	3.875	1	0.9091796875
2369.814453125	0.00833333333333333	1	-30	-7.375	2	0.8984375
2372.90625	0.00833333333333333	1	30	4	2	0.90234375
2375.990234375	0.00833333333333333	1	NaN	-1.41666666666667	2	0.73828125
2379.0068359375	0.00833333333333333	1	30	3.875	1	0.8505859375
2382.115234375	0.00833333333333333	1	NaN	-1.54166666666667	1	0.92578125
2385.365234375	0.00833333333333333	1	30	4	1	0.923828125
2388.7900390625	0.00833333333333333	1	30	4.125	1	0.546875
2391.6064453125	0.00833333333333333	1	30	4.25	1	0.5146484375
2394.3642578125	0.00833333333333333	1	30	4.375	1	0.548828125
2397.0732421875	0.00833333333333333	1	30	4.5	1	0.583984375
2399.888671875	0.00833333333333333	1	30	4.625	2	0.80078125
2402.9736328125	0.00833333333333333	0	-30	-7.3	2	0.763671875
2406.189453125	0.00833333333333333	0	30	3.8125	2	0.5966796875
2408.9482421875	0.00833333333333333	0	-30	-7.3	2	0.5576171875
2411.5966796875	0.00833333333333333	0	30	3.8125	1	0.62890625
2414.5634765625	0.00833333333333333	0	30	3.8125	2	1.55859375
2418.2060546875	0.00833333333333333	0	-30	-7.3	2	0.556640625
2420.939453125	0.00833333333333333	0	30	3.8125	2	0.4228515625
2423.4638671875	0.00833333333333333	0	-30	-7.3	2	0.650390625
2426.23046875	0.00833333333333333	0	-30	-7.3	2	0.916015625
2429.638671875	0.00833333333333333	0	30	3.8125	1	1.396484375
2433.072265625	0.00833333333333333	0	30	3.8125	1	0.666015625
2436.171875	0.00833333333333333	0	30	3.8125	2	0.599609375
2438.8720703125	0.00833333333333333	0	30	3.8125	2	1.0185546875
2442.4306640625	0.00833333333333333	0	30	3.8125	2	0.7724609375
2445.564453125	0.00833333333333333	0	30	3.8125	2	0.5986328125
2448.6142578125	0.00833333333333333	0	30	3.8125	1	0.60546875
2451.5390625	0.00833333333333333	0	-30	-7.425	1	0.7119140625
2454.8388671875	0.00833333333333333	0	-30	-7.425	1	0.8369140625
2457.7890625	0.00833333333333333	0	30	3.8125	1	0.7666015625
2461.046875	0.00833333333333333	0	-30	-7.425	1	0.46875
2463.7548828125	0.00833333333333333	0	-30	-7.425	1	0.537109375
2466.7216796875	0.00833333333333333	0	-30	-7.425	1	0.5224609375
2469.60546875	0.00833333333333333	0	30	3.8125	1	0.6787109375
2472.322265625	0.00833333333333333	0	30	3.8125	1	0.689453125
2475.11328125	0.00833333333333333	0	30	3.8125	1	0.5791015625
2478.138671875	0.00833333333333333	0	-30	-7.3	1	0.5771484375
2480.9384765625	0.00833333333333333	0	30	3.9375	1	0.689453125
2483.61328125	0.00833333333333333	0	-30	-7.3	1	0.806640625
2486.5302734375	0.00833333333333333	0	30	3.9375	1	0.658203125
2489.4794921875	0.00833333333333333	0	-30	-7.3	1	0.556640625
2492.462890625	0.00833333333333333	0	30	3.9375	1	0.5654296875
2495.5048828125	0.00833333333333333	0	30	3.9375	1	0.8203125
2498.73828125	0.00833333333333333	0	30	3.9375	1	0.6103515625
2501.646484375	0.00833333333333333	0	30	4.0625	1	1.1904296875
2505.296875	0.00833333333333333	0	-30	-7.3	1	0.6044921875
2507.9462890625	0.00833333333333333	0	30	4.0625	1	0.611328125
2510.7880859375	0.00833333333333333	0	-30	-7.3	1	0.5615234375
2513.6708984375	0.00833333333333333	0	30	4.0625	1	0.56640625
2516.7880859375	0.00833333333333333	0	-30	-7.175	1	0.5615234375
2519.9130859375	0.00833333333333333	0	30	4.0625	1	0.9404296875
2523.2626953125	0.00833333333333333	0	30	4.0625	1	0.52734375
2526.3212890625	0.00833333333333333	0	-30	-7.175	1	0.5
2529.3125	0.00833333333333333	0	-30	-7.175	1	0.6611328125
2532.4541015625	0.00833333333333333	0	30	4.1875	1	0.583984375
2535.1376953125	0.00833333333333333	0	-30	-7.175	1	0.4677734375
2537.76953125	0.00833333333333333	0	30	4.1875	2	0.7568359375
2541.0791015625	0.00833333333333333	0	-30	-7.175	2	0.7587890625
2544.162109375	0.00833333333333333	0	30	4.1875	2	1.1640625
2547.5712890625	0.00833333333333333	0	30	4.1875	2	0.7314453125
2550.4287109375	0.00833333333333333	0	-30	-7.175	1	0.9140625
2553.529296875	0.00833333333333333	0	30	4.1875	2	0.6689453125
2556.6708984375	0.00833333333333333	0	-30	-7.175	1	0.5283203125
2559.328125	0.00833333333333333	0	30	4.1875	2	0.7822265625
2562.220703125	0.00833333333333333	0	-30	-7.175	1	0.7060546875
2565.3955078125	0.00833333333333333	0	30	4.0625	1	0.923828125
2568.62890625	0.00833333333333333	0	30	4.0625	2	0.9462890625
2571.853515625	0.00833333333333333	0	-30	-7.175	2	1.11328125
2575.0625	0.00833333333333333	0	-30	-7.175	1	0.5205078125
2578.00390625	0.00833333333333333	0	-30	-7.175	1	0.8193359375
2580.994140625	0.00833333333333333	0	30	4.0625	1	0.685546875
2584.169921875	0.00833333333333333	0	-30	-7.175	1	0.4931640625
2586.7861328125	0.00833333333333333	0	-30	-7.175	1	0.6611328125
2589.5869140625	0.00833333333333333	0	30	4.0625	2	0.6533203125
2592.5361328125	0.00833333333333333	0	30	4.0625	1	1.1279296875
2596.0361328125	0.00833333333333333	0	-30	-7.175	1	0.580078125
2598.8447265625	0.00833333333333333	0	-30	-7.05	1	0.53125
2601.5283203125	0.00833333333333333	0	-30	-7.05	1	0.51953125
2604.2783203125	0.00833333333333333	0	-30	-7.05	1	0.59375
2607.0361328125	0.00833333333333333	0	30	4.0625	2	0.5166015625
2610.052734375	0.00833333333333333	0	30	4.0625	2	0.84375
2613.427734375	0.00833333333333333	0	-30	-7.05	1	0.525390625
2616.111328125	0.00833333333333333	0	30	4.0625	2	0.79296875
2619.353515625	0.00833333333333333	0	30	4.0625	2	0.6474609375
2622.26953125	0.00833333333333333	0	-30	-7.05	1	1.0830078125
2625.8603515625	0.00833333333333333	0	-30	-6.925	1	0.6845703125
2628.6533203125	0.00833333333333333	0	30	4.0625	2	0.69140625
2631.626953125	0.00833333333333333	0	-30	-6.925	1	1.0224609375
2634.943359375	0.00833333333333333	0	-30	-6.925	1	0.849609375
2638.01953125	0.00833333333333333	0	30	3.9375	2	0.685546875
2641.2109375	0.00833333333333333	0	-30	-6.925	2	0.654296875
2794.0751953125	0.00833333333333333	0	30	3.9375	2	1.2431640625
2797.6591796875	0.00833333333333333	0	-30	-6.925	2	0.69140625
2800.716796875	0.00833333333333333	0	-30	-6.925	2	0.5537109375
2803.625	0.00833333333333333	0	30	3.9375	1	0.509765625
2806.32421875	0.00833333333333333	0	-30	-6.925	2	0.6103515625
2809.1005859375	0.00833333333333333	0	-30	-6.925	2	0.5546875
2811.93359375	0.00833333333333333	0	-30	-7.05	2	1.1611328125
2815.3251953125	0.00833333333333333	0	30	3.9375	1	0.5537109375
2818.1337890625	0.00833333333333333	0	-30	-7.05	2	0.5771484375
2821.033203125	0.00833333333333333	0	30	3.9375	2	0.6376953125
2824.1328125	0.00833333333333333	0	30	3.9375	1	0.5791015625
2826.775390625	0.00833333333333333	0	-30	-7.05	2	0.5439453125
2829.533203125	0.00833333333333333	0	30	3.9375	1	0.634765625
2832.474609375	0.00833333333333333	0	-30	-7.05	2	0.541015625
2835.2919921875	0.00833333333333333	0	-30	-7.05	2	0.5
2837.9736328125	0.00833333333333333	0	-30	-7.175	2	0.634765625
2840.9248046875	0.00833333333333333	0	30	3.9375	2	0.962890625
2843.974609375	0.00833333333333333	0	-30	-7.175	2	0.59375
2846.8994140625	0.00833333333333333	0	-30	-7.175	2	0.5888671875
2849.8076171875	0.00833333333333333	0	30	3.9375	2	0.8251953125
2852.9248046875	0.00833333333333333	0	-30	-7.175	2	0.67578125
2855.724609375	0.00833333333333333	0	30	3.9375	2	0.6123046875
2858.5576171875	0.00833333333333333	0	-30	-7.175	2	0.6513671875
2861.5830078125	0.00833333333333333	0	-30	-7.3	2	0.77734375
2864.599609375	0.00833333333333333	0	-30	-7.3	2	0.529296875
2867.5986328125	0.00833333333333333	0	30	3.9375	2	1.07421875
2871.033203125	0.00833333333333333	0	-30	-7.3	2	0.6396484375
2873.7998046875	0.00833333333333333	0	30	3.9375	2	0.8408203125
2876.9580078125	0.00833333333333333	0	30	3.8125	1	0.8349609375
2879.8662109375	0.00833333333333333	0	-30	-7.3	1	0.607421875
2882.890625	0.00833333333333333	0	30	3.8125	1	0.5908203125
2885.9658203125	0.00833333333333333	0	-30	-7.3	2	0.828125
2889.041015625	0.00833333333333333	0	30	3.8125	1	1.0166015625
2892.5400390625	0.00833333333333333	0	-30	-7.3	1	0.677734375
2895.599609375	0.00833333333333333	0	-30	-7.3	1	0.5859375
2898.28125	0.00833333333333333	0	30	3.8125	2	0.705078125
2901.3828125	0.00833333333333333	0	-30	-7.3	2	0.603515625
2904.4658203125	0.00833333333333333	0	-30	-7.3	2	0.6640625
2907.615234375	0.00833333333333333	0	30	3.8125	2	0.37109375
2910.298828125	0.00833333333333333	0	30	3.8125	1	0.6474609375
2913.0986328125	0.00833333333333333	0	-30	-7.3	1	1.1435546875
2916.4072265625	0.00833333333333333	0	-30	-7.3	1	0.619140625
2919.19921875	0.00833333333333333	0	30	3.8125	2	0.634765625
2921.9404296875	0.00833333333333333	0	-30	-7.3	2	0.6298828125
2924.70703125	0.00833333333333333	0	-30	-7.3	2	0.6474609375
2927.5322265625	0.00833333333333333	0	-30	-7.3	2	0.71875
2930.5322265625	0.00833333333333333	0	30	3.8125	2	0.55859375
2933.240234375	0.00833333333333333	0	30	3.8125	2	0.626953125
2936.0986328125	0.00833333333333333	0	30	3.8125	2	0.5361328125
2938.7646484375	0.00833333333333333	0	30	3.8125	2	0.646484375
2941.890625	0.00833333333333333	0	-30	-7.3	2	0.6005859375
2944.96484375	0.00833333333333333	0	30	3.6875	2	0.56640625
2948.0234375	0.00833333333333333	0	-30	-7.3	2	0.755859375
2951.1650390625	0.00833333333333333	0	-30	-7.425	1	0.6943359375
2953.9736328125	0.00833333333333333	0	30	3.6875	1	0.7578125
2956.9736328125	0.00833333333333333	0	30	3.6875	2	0.56640625
2959.806640625	0.00833333333333333	0	30	3.6875	1	0.7333984375
2962.78125	0.00833333333333333	0	-30	-7.425	1	0.7431640625
2965.7470703125	0.00833333333333333	0	-30	-7.425	1	0.697265625
2968.755859375	0.00833333333333333	0	-30	-7.425	1	0.47265625
2971.6982421875	0.00833333333333333	0	-30	-7.425	1	0.5625
2974.681640625	0.00833333333333333	0	30	3.6875	1	0.6435546875
2977.5732421875	0.00833333333333333	0	30	3.6875	1	0.9833984375
2980.9228515625	0.00833333333333333	0	-30	-7.3	1	0.681640625
2983.7890625	0.00833333333333333	0	-30	-7.3	1	0.6953125
2986.5478515625	0.00833333333333333	0	30	3.6875	1	0.6005859375
2989.689453125	0.00833333333333333	0	-30	-7.3	1	0.5712890625
2992.697265625	0.00833333333333333	0	30	3.6875	2	1.9638671875
2996.9560546875	0.00833333333333333	0	30	3.6875	2	0.6650390625
3000.1728515625	0.00833333333333333	0	30	3.6875	1	0.544921875
3003.2138671875	0.00833333333333333	0	-30	-7.3	1	0.53515625
3006.2802734375	0.00833333333333333	0	30	3.6875	1	0.5888671875
3009.2880859375	0.00833333333333333	0	30	3.6875	1	0.5576171875
3012.263671875	0.00833333333333333	0	30	3.6875	1	0.509765625
3015.0810546875	0.00833333333333333	0	-30	-7.3	1	0.404296875
3018.064453125	0.00833333333333333	0	-30	-7.175	2	0.7255859375
3021.072265625	0.00833333333333333	0	30	3.6875	1	1.0380859375
3024.23046875	0.00833333333333333	0	-30	-7.175	1	1.1279296875
3027.4208984375	0.00833333333333333	0	30	3.8125	1	0.6171875
3030.5556640625	0.00833333333333333	0	30	3.8125	2	1.154296875
3042.955078125	0.00833333333333333	0	30	3.8125	2	0.8994140625
3045.9462890625	0.00833333333333333	0	30	3.8125	2	1.1240234375
3049.2216796875	0.00833333333333333	0	30	3.8125	1	0.6728515625
3052.3046875	0.00833333333333333	0	-30	-7.175	2	0.58984375
3055.2470703125	0.00833333333333333	0	30	3.8125	2	0.759765625
3058.212890625	0.00833333333333333	0	-30	-7.175	2	0.6103515625
3061.345703125	0.00833333333333333	0	30	3.8125	2	0.6611328125
3064.521484375	0.00833333333333333	0	30	3.8125	2	0.7177734375
3067.74609375	0.00833333333333333	0	-30	-7.175	2	0.93359375
3071.0048828125	0.00833333333333333	0	-30	-7.175	2	0.7060546875
3073.9287109375	0.00833333333333333	0	-30	-7.175	2	0.71875
3076.6708984375	0.00833333333333333	0	30	3.8125	2	0.5927734375
3079.75390625	0.00833333333333333	0	30	3.8125	2	1.013671875
3082.9130859375	0.00833333333333333	0	30	3.6875	2	0.6064453125
3085.779296875	0.00833333333333333	0	30	3.6875	2	0.796875
3088.9716796875	0.00833333333333333	0	30	3.6875	2	0.66015625
3091.8125	0.00833333333333333	0	30	3.6875	2	0.68359375
3094.5712890625	0.00833333333333333	0	30	3.6875	1	1.0927734375
3097.9296875	0.00833333333333333	0	30	3.6875	2	0.623046875
3100.9130859375	0.00833333333333333	0	-30	-7.3	1	0.53515625
3103.7373046875	0.00833333333333333	0	30	3.6875	2	0.5751953125
3106.662109375	0.00833333333333333	0	30	3.6875	1	0.5625
3109.5126953125	0.00833333333333333	0	30	3.6875	1	0.7685546875
3112.2880859375	0.00833333333333333	0	30	3.6875	1	1.0888671875
3115.5703125	0.00833333333333333	0	30	3.6875	1	0.798828125
3118.6044921875	0.00833333333333333	0	30	3.6875	1	0.548828125
3121.2119140625	0.00833333333333333	0	-30	-7.3	1	0.693359375
3124.037109375	0.00833333333333333	0	-30	-7.3	1	1.1318359375
3127.4951171875	0.00833333333333333	0	30	3.8125	1	0.642578125
3130.4375	0.00833333333333333	0	-30	-7.3	1	0.580078125
3133.1123046875	0.00833333333333333	0	-30	-7.3	1	0.712890625
3136.1201171875	0.00833333333333333	0	30	3.8125	1	0.4970703125
3138.7041015625	0.00833333333333333	0	-30	-7.175	1	0.6025390625
3141.5625	0.00833333333333333	0	-30	-7.175	1	0.607421875
3144.236328125	0.00833333333333333	0	30	3.8125	1	0.509765625
3146.9208984375	0.00833333333333333	0	30	3.8125	1	0.44921875
3149.76171875	0.00833333333333333	0	30	3.8125	1	0.5439453125
3152.7119140625	0.00833333333333333	0	-30	-7.175	1	0.9140625
3155.728515625	0.00833333333333333	0	-30	-7.175	1	0.5380859375
3158.37890625	0.00833333333333333	0	-30	-7.175	1	0.583984375
3161.1533203125	0.00833333333333333	0	-30	-7.05	1	0.513671875
3164.0869140625	0.00833333333333333	0	-30	-7.05	1	0.4921875
3167.111328125	0.00833333333333333	0	30	3.9375	1	0.587890625
3170.0703125	0.00833333333333333	0	-30	-7.05	1	0.4365234375
3172.828125	0.00833333333333333	0	30	3.9375	1	0.798828125
3176.044921875	0.00833333333333333	0	-30	-7.05	1	1.3017578125
3179.88671875	0.00833333333333333	0	-30	-7.05	1	1.46875
3183.5869140625	0.00833333333333333	0	-30	-6.925	2	0.9521484375
3186.703125	0.00833333333333333	0	-30	-6.925	1	0.396484375
3189.228515625	0.00833333333333333	0	-30	-6.925	1	0.51171875
3192.0615234375	0.00833333333333333	0	-30	-6.925	1	0.501953125
3194.8359375	0.00833333333333333	0	-30	-6.925	1	0.5439453125
3197.810546875	0.00833333333333333	0	30	3.9375	1	0.44140625
3200.3857421875	0.00833333333333333	0	-30	-6.925	2	0.75390625
3203.6943359375	0.00833333333333333	0	30	3.9375	1	0.61328125
3206.544921875	0.00833333333333333	0	30	3.9375	2	0.71484375
3209.7939453125	0.00833333333333333	0	-30	-6.925	2	0.75390625
3212.9443359375	0.00833333333333333	0	-30	-6.925	1	0.7958984375
3215.986328125	0.00833333333333333	0	30	3.9375	2	0.6015625
3218.703125	0.00833333333333333	0	-30	-6.925	1	0.708984375
3221.7099609375	0.00833333333333333	0	-30	-6.925	1	0.5908203125
3224.4189453125	0.00833333333333333	0	-30	-6.925	1	1.45703125
3228.3359375	0.00833333333333333	0	30	3.9375	2	1.517578125
3232.2939453125	0.00833333333333333	0	30	3.9375	2	0.87890625
3235.39453125	0.00833333333333333	0	-30	-6.925	1	0.8349609375
3238.59375	0.00833333333333333	0	-30	-6.8	1	1.0029296875
3241.9443359375	0.00833333333333333	0	30	3.9375	2	13.052734375
3257.03515625	0.00833333333333333	0	-30	-6.8	1	0.8984375
3260.4267578125	0.00833333333333333	0	-30	-6.8	1	0.8427734375
3263.568359375	0.00833333333333333	0	30	3.8125	2	0.669921875
3266.318359375	0.00833333333333333	0	30	3.8125	2	0.6474609375
3269.185546875	0.00833333333333333	0	-30	-6.8	1	0.66015625
3271.8603515625	0.00833333333333333	0	-30	-6.8	1	0.90625
3274.7685546875	0.00833333333333333	0	30	3.8125	2	0.58203125
3277.884765625	0.00833333333333333	0	30	3.8125	2	0.6015625
3280.6171875	0.00833333333333333	0	30	3.8125	1	0.61328125
3283.34375	0.00833333333333333	0	30	3.8125	1	0.767578125
3286.384765625	0.00833333333333333	0	30	3.8125	1	0.58984375
3289.3095703125	0.00833333333333333	0	-30	-6.675	1	1.1689453125
3292.576171875	0.00833333333333333	0	30	3.8125	2	0.7421875
3304.4345703125	0.00833333333333333	0	-30	-6.675	1	0.8046875
3307.359375	0.00833333333333333	0	30	3.8125	2	0.4560546875
3310.1669921875	0.00833333333333333	0	-30	-6.675	1	0.47265625
3312.9267578125	0.00833333333333333	0	30	3.8125	1	0.705078125
3315.7431640625	0.00833333333333333	0	30	3.8125	1	0.8564453125
3319.04296875	0.00833333333333333	0	-30	-6.675	1	0.724609375
3321.8759765625	0.00833333333333333	0	30	3.8125	2	0.5478515625
3324.8515625	0.00833333333333333	0	-30	-6.675	2	1.3720703125
3328.4013671875	0.00833333333333333	0	-30	-6.675	1	0.958984375
3331.79296875	0.00833333333333333	0	30	3.8125	2	0.7109375
3334.984375	0.00833333333333333	0	30	3.8125	2	0.6484375
3338.109375	0.00833333333333333	0	30	3.8125	1	0.9072265625
3341.06640625	0.00833333333333333	0	30	3.8125	2	1.7099609375
3344.9345703125	0.00833333333333333	0	-30	-6.675	1	0.5224609375
3347.7998046875	0.00833333333333333	0	-30	-6.675	1	0.5927734375
3350.5009765625	0.00833333333333333	0	-30	-6.675	1	0.5712890625
3353.1923828125	0.00833333333333333	0	-30	-6.675	1	0.7685546875
3356.4169921875	0.00833333333333333	0	-30	-6.55	1	0.51171875
3358.958984375	0.00833333333333333	0	30	3.8125	2	0.5458984375
3361.7421875	0.00833333333333333	0	30	3.8125	2	0.8984375
3364.650390625	0.00833333333333333	0	30	3.8125	2	0.654296875
3367.708984375	0.00833333333333333	0	-30	-6.55	1	0.916015625
3371	0.00833333333333333	0	30	3.8125	2	0.6650390625
3373.6923828125	0.00833333333333333	0	30	3.6875	2	0.7490234375
3376.591796875	0.00833333333333333	0	30	3.6875	2	0.609375
3379.55078125	0.00833333333333333	0	-30	-6.55	1	0.69921875
3382.56640625	0.00833333333333333	0	-30	-6.55	2	0.828125
3385.80078125	0.00833333333333333	0	-30	-6.55	1	0.5693359375
3388.650390625	0.00833333333333333	0	30	3.6875	1	0.671875
3391.4921875	0.00833333333333333	0	30	3.6875	1	0.798828125
3394.3330078125	0.00833333333333333	0	-30	-6.55	1	0.716796875
3397.283203125	0.00833333333333333	0	30	3.6875	1	0.7353515625
3400.033203125	0.00833333333333333	0	-30	-6.55	1	0.705078125
3403.1005859375	0.00833333333333333	0	30	3.6875	1	0.654296875
3406.150390625	0.00833333333333333	0	30	3.6875	1	0.828125
3409.3408203125	0.00833333333333333	0	30	3.8125	2	0.830078125
3412.5244140625	0.00833333333333333	0	30	3.8125	2	0.806640625
3415.3662109375	0.00833333333333333	0	-30	-6.55	2	1.1728515625
3418.724609375	0.00833333333333333	0	-30	-6.55	1	1.1259765625
3422.1162109375	0.00833333333333333	0	-30	-6.55	2	0.646484375
3425.25	0.00833333333333333	0	30	3.8125	1	0.5849609375
3427.9248046875	0.00833333333333333	0	30	3.8125	1	0.6142578125
3430.94140625	0.00833333333333333	0	-30	-6.55	2	0.6376953125
3433.791015625	0.00833333333333333	0	30	3.8125	1	0.6044921875
3436.6982421875	0.00833333333333333	0	30	3.8125	1	0.5537109375
3439.625	0.00833333333333333	0	30	3.8125	1	0.5791015625
3442.298828125	0.00833333333333333	0	-30	-6.55	2	0.6884765625
3445.099609375	0.00833333333333333	0	30	3.9375	2	1.0966796875
3448.5078125	0.00833333333333333	0	30	3.9375	2	0.9921875
3451.57421875	0.00833333333333333	0	30	3.9375	2	0.91796875
3454.9658203125	0.00833333333333333	0	30	3.9375	2	0.6376953125
3458.07421875	0.00833333333333333	0	30	3.9375	2	0.5859375
3460.798828125	0.00833333333333333	0	-30	-6.55	2	0.7333984375
3463.9404296875	0.00833333333333333	0	30	3.8125	2	0.767578125
3466.94140625	0.00833333333333333	0	-30	-6.55	2	0.6474609375
3470.048828125	0.00833333333333333	0	30	3.8125	1	0.7314453125
3472.9814453125	0.00833333333333333	0	30	3.8125	2	1.1357421875
3476.615234375	0.00833333333333333	0	30	3.8125	1	1.3330078125
3480.3486328125	0.00833333333333333	0	-30	-6.675	2	0.6640625
3483.45703125	0.00833333333333333	0	30	3.8125	2	0.595703125
3486.1826171875	0.00833333333333333	0	-30	-6.675	1	0.806640625
3489.0654296875	0.00833333333333333	0	-30	-6.675	2	0.515625
3491.9990234375	0.00833333333333333	0	-30	-6.675	2	0.6787109375
3494.798828125	0.00833333333333333	0	-30	-6.675	2	0.958984375
3498.173828125	0.00833333333333333	0	-30	-6.675	2	0.6083984375
3500.9404296875	0.00833333333333333	0	-30	-6.675	2	0.6494140625
3503.83984375	0.00833333333333333	0	30	3.8125	2	0.5576171875
3506.740234375	0.00833333333333333	0	30	3.8125	1	0.673828125
3509.5068359375	0.00833333333333333	0	-30	-6.8	1	0.634765625
3512.4736328125	0.00833333333333333	0	30	3.8125	2	0.923828125
3515.78125	0.00833333333333333	0	30	3.8125	2	0.6728515625
3518.70703125	0.00833333333333333	0	30	3.8125	2	0.5791015625
3521.748046875	0.00833333333333333	0	30	3.8125	2	0.8818359375
3524.748046875	0.00833333333333333	0	-30	-6.8	2	0.6259765625
3527.5146484375	0.00833333333333333	0	-30	-6.8	2	0.580078125
3530.2314453125	0.00833333333333333	0	-30	-6.8	2	0.783203125
3533.5068359375	0.00833333333333333	0	-30	-6.8	2	0.5556640625
3536.08984375	0.00833333333333333	0	30	3.8125	2	0.62109375
3538.9228515625	0.00833333333333333	0	30	3.6875	2	0.7958984375
3542.1728515625	0.00833333333333333	0	30	3.6875	2	0.681640625
3600.7216796875	0.00833333333333333	0	-30	-6.8	1	1.0234375
3603.9140625	0.00833333333333333	0	-30	-6.8	2	0.5751953125
3606.705078125	0.00833333333333333	0	30	3.6875	1	0.5439453125
3609.48046875	0.00833333333333333	0	30	3.6875	1	0.5048828125
3612.36328125	0.00833333333333333	0	30	3.6875	1	0.669921875
3615.322265625	0.00833333333333333	0	-30	-6.8	2	0.87109375
3618.330078125	0.00833333333333333	0	-30	-6.8	2	0.5830078125
3621.0048828125	0.00833333333333333	0	-30	-6.8	2	0.63671875
3624.0048828125	0.00833333333333333	0	30	3.6875	1	0.64453125
3626.712890625	0.00833333333333333	0	-30	-6.8	2	0.5283203125
3629.4970703125	0.00833333333333333	0	-30	-6.925	2	0.80859375
3632.7216796875	0.00833333333333333	0	30	3.6875	2	0.5283203125
3635.48046875	0.00833333333333333	0	30	3.6875	2	1.3134765625
3638.796875	0.00833333333333333	0	30	3.6875	2	0.5576171875
3641.7548828125	0.00833333333333333	0	-30	-6.925	2	0.615234375
3644.74609375	0.00833333333333333	0	-30	-6.925	2	0.5283203125
3647.48828125	0.00833333333333333	0	-30	-6.925	2	0.578125
3650.12109375	0.00833333333333333	0	-30	-6.925	1	0.529296875
3652.6884765625	0.00833333333333333	0	-30	-6.925	2	0.5224609375
3655.396484375	0.00833333333333333	0	30	3.6875	2	0.7744140625
3658.330078125	0.00833333333333333	0	30	3.6875	1	0.6572265625
3660.99609375	0.00833333333333333	0	-30	-6.925	2	0.6142578125
3664.0126953125	0.00833333333333333	0	-30	-6.925	2	0.58984375
3666.61328125	0.00833333333333333	0	30	3.6875	2	0.61328125
3669.5458984375	0.00833333333333333	0	30	3.6875	1	0.609375
3672.37890625	0.00833333333333333	0	-30	-6.925	2	0.6318359375
3675.220703125	0.00833333333333333	0	30	3.6875	2	0.6220703125
3678.2626953125	0.00833333333333333	0	30	3.6875	2	0.716796875
3681.3046875	0.00833333333333333	0	30	3.6875	2	0.6025390625
3684.1376953125	0.00833333333333333	0	30	3.6875	1	0.8095703125
3687.4375	0.00833333333333333	0	30	3.6875	2	0.6142578125
3690.4541015625	0.00833333333333333	0	30	3.6875	2	0.94921875
3693.654296875	0.00833333333333333	0	-30	-6.925	2	0.669921875
3696.5791015625	0.00833333333333333	0	30	3.6875	2	0.904296875
3699.5791015625	0.00833333333333333	0	30	3.6875	2	1.2890625
3702.9375	0.00833333333333333	0	-30	-7.05	2	0.626953125
3705.74609375	0.00833333333333333	0	30	3.6875	2	0.890625
3708.89453125	0.00833333333333333	0	-30	-7.05	2	0.6298828125
3711.595703125	0.00833333333333333	0	-30	-7.05	2	0.6728515625
3714.7958984375	0.00833333333333333	0	-30	-7.05	2	0.640625
3717.470703125	0.00833333333333333	0	30	3.5625	2	0.9501953125
3720.662109375	0.00833333333333333	0	-30	-7.05	2	0.7822265625
3723.595703125	0.00833333333333333	0	30	3.5625	1	0.8173828125
3726.5205078125	0.00833333333333333	0	30	3.5625	2	0.62890625
3729.4873046875	0.00833333333333333	0	30	3.5625	2	0.7421875
3732.419921875	0.00833333333333333	0	30	3.5625	2	0.6171875
3735.25390625	0.00833333333333333	0	-30	-7.175	2	1.015625
3738.26953125	0.00833333333333333	0	30	3.5625	1	0.6875
3741.169921875	0.00833333333333333	0	-30	-7.175	2	0.8271484375
3744.0859375	0.00833333333333333	0	-30	-7.175	2	0.7197265625
3747.25390625	0.00833333333333333	0	30	3.5625	1	0.83984375
3750.2451171875	0.00833333333333333	0	-30	-7.175	1	0.640625
3752.9453125	0.00833333333333333	0	30	3.5625	2	0.8525390625
3756.0947265625	0.00833333333333333	0	30	3.5625	2	0.791015625
3759.1201171875	0.00833333333333333	0	-30	-7.175	1	0.6455078125
3762.078125	0.00833333333333333	0	-30	-7.175	2	0.7041015625
3764.853515625	0.00833333333333333	0	-30	-7.175	1	0.5283203125
3767.853515625	0.00833333333333333	0	-30	-7.175	1	0.537109375
3770.7783203125	0.00833333333333333	0	-30	-7.175	1	0.8603515625
3774.052734375	0.00833333333333333	0	-30	-7.175	2	0.689453125
3777.21875	0.00833333333333333	0	-30	-7.175	1	0.8916015625
3780.4609375	0.00833333333333333	0	-30	-7.175	1	0.59375
3783.2109375	0.00833333333333333	0	-30	-7.175	1	0.7236328125
3786.3525390625	0.00833333333333333	0	-30	-7.175	1	0.630859375
3789.453125	0.00833333333333333	0	-30	-7.175	1	0.689453125
3792.2021484375	0.00833333333333333	0	30	3.5625	1	1.4365234375
3795.7607421875	0.00833333333333333	0	-30	-7.05	2	0.7900390625
3799.0439453125	0.00833333333333333	0	-30	-7.05	2	0.69140625
3802.0107421875	0.00833333333333333	0	30	3.5625	2	0.7890625
3805.0693359375	0.00833333333333333	0	30	3.5625	2	0.9384765625
3808.59375	0.00833333333333333	0	-30	-7.05	2	0.662109375
3811.5771484375	0.00833333333333333	0	-30	-7.05	2	0.7744140625
3814.6611328125	0.00833333333333333	0	-30	-7.05	2	0.642578125
3817.4189453125	0.00833333333333333	0	-30	-7.175	1	1.7490234375
3821.5927734375	0.00833333333333333	0	-30	-7.175	2	0.4716796875
3824.34375	0.00833333333333333	0	-30	-7.175	1	0.65625
3827.41015625	0.00833333333333333	0	30	3.5625	1	0.8779296875
3830.369140625	0.00833333333333333	0	30	3.5625	1	0.5908203125
3833.1181640625	0.00833333333333333	0	-30	-7.175	2	0.9619140625
3836.4931640625	0.00833333333333333	0	30	3.5625	1	0.6591796875
3851.66015625	0.00833333333333333	0	30	3.5625	2	0.7490234375
3854.609375	0.00833333333333333	0	-30	-7.175	2	0.919921875
3857.626953125	0.00833333333333333	0	30	3.5625	1	0.5419921875
3860.66796875	0.00833333333333333	0	-30	-7.175	1	0.4931640625
3863.53515625	0.00833333333333333	0	30	3.5625	2	0.482421875
3866.4765625	0.00833333333333333	0	30	3.5625	2	1.1328125
3870.001953125	0.00833333333333333	0	30	3.5625	1	0.759765625
3872.9931640625	0.00833333333333333	0	-30	-7.175	1	0.6083984375
3875.7099609375	0.00833333333333333	0	-30	-7.175	1	0.5634765625
3878.525390625	0.00833333333333333	0	-30	-7.175	1	1.1884765625
3881.9423828125	0.00833333333333333	0	-30	-7.175	1	0.5390625
3884.501953125	0.00833333333333333	0	-30	-7.05	1	0.572265625
3887.2177734375	0.00833333333333333	0	30	3.5625	1	0.6240234375
3890.1513671875	0.00833333333333333	0	-30	-7.05	1	0.5224609375
3892.826171875	0.00833333333333333	0	-30	-7.05	1	0.8564453125
3895.8427734375	0.00833333333333333	0	30	3.5625	1	0.8076171875
3898.6591796875	0.00833333333333333	0	30	3.5625	1	2.599609375
3903.3681640625	0.00833333333333333	0	-30	-7.05	1	0.5546875
3906.0341796875	0.00833333333333333	0	-30	-7.05	2	0.7685546875
3908.9091796875	0.00833333333333333	0	30	3.5625	1	0.662109375
3911.8095703125	0.00833333333333333	0	-30	-7.05	1	0.5693359375
3914.5927734375	0.00833333333333333	0	30	3.6875	1	0.5146484375
3917.2177734375	0.00833333333333333	0	-30	-7.05	1	0.8974609375
3920.2509765625	0.00833333333333333	0	-30	-7.05	1	0.744140625
3923.2587890625	0.00833333333333333	0	30	3.6875	1	0.5283203125
3926.125	0.00833333333333333	0	30	3.6875	1	0.5341796875
3928.775390625	0.00833333333333333	0	30	3.6875	1	1.0595703125
3931.916015625	0.00833333333333333	0	30	3.6875	1	0.51953125
3934.525390625	0.00833333333333333	0	-30	-7.05	1	0.7265625
3937.625	0.00833333333333333	0	30	3.8125	2	1.0107421875
3941.0908203125	0.00833333333333333	0	30	3.8125	1	0.537109375
3943.767578125	0.00833333333333333	0	30	3.8125	2	0.66796875
3946.892578125	0.00833333333333333	0	-30	-7.05	2	0.8876953125
3950.0419921875	0.00833333333333333	0	-30	-7.05	2	1.169921875
3953.6591796875	0.00833333333333333	0	30	3.8125	1	0.77734375
3956.833984375	0.00833333333333333	0	-30	-7.05	1	0.5068359375
3959.67578125	0.00833333333333333	0	-30	-7.05	1	0.4248046875
3962.2001953125	0.00833333333333333	0	30	3.8125	1	0.5888671875
3964.916015625	0.00833333333333333	0	30	3.8125	1	0.560546875
3967.7998046875	0.00833333333333333	0	30	3.8125	1	0.63671875
3970.6162109375	0.00833333333333333	0	-30	-7.05	2	0.8369140625
3973.7080078125	0.00833333333333333	0	30	3.8125	1	0.6650390625
3976.658203125	0.00833333333333333	0	30	3.9375	1	0.4755859375
3979.283203125	0.00833333333333333	0	30	3.9375	1	0.498046875
3982.0986328125	0.00833333333333333	0	30	3.9375	1	0.546875
3984.875	0.00833333333333333	0	30	3.9375	1	1.2587890625
3988.2080078125	0.00833333333333333	0	-30	-7.05	2	0.6611328125
3991.224609375	0.00833333333333333	0	30	3.9375	2	1.109375
3994.82421875	0.00833333333333333	0	30	3.9375	2	1.1572265625
3998.4912109375	0.00833333333333333	0	-30	-7.05	2	0.6591796875
4001.6416015625	0.00833333333333333	0	30	3.9375	1	0.5478515625
4004.408203125	0.00833333333333333	0	30	3.9375	1	0.58984375
4007.3828125	0.00833333333333333	0	30	3.9375	2	0.54296875
4010.5068359375	0.00833333333333333	0	30	3.9375	2	0.9873046875
4013.8408203125	0.00833333333333333	0	30	3.9375	2	0.6376953125
4016.556640625	0.00833333333333333	0	30	3.9375	2	0.5703125
4019.3994140625	0.00833333333333333	0	30	3.9375	2	0.615234375
4022.515625	0.00833333333333333	0	-30	-7.05	1	0.626953125
4025.515625	0.00833333333333333	0	30	3.8125	1	0.8349609375
4028.57421875	0.00833333333333333	0	30	3.8125	1	1.6962890625
4032.390625	0.00833333333333333	0	-30	-7.05	1	0.5283203125
4035.3740234375	0.00833333333333333	0	30	3.8125	2	0.5771484375
4038.515625	0.00833333333333333	0	-30	-7.05	1	0.5078125
4041.4912109375	0.00833333333333333	0	30	3.8125	1	0.595703125
4044.349609375	0.00833333333333333	0	-30	-7.05	1	0.59375
4047.2236328125	0.00833333333333333	0	30	3.8125	2	0.7841796875
4050.166015625	0.00833333333333333	0	30	3.8125	2	0.521484375
4052.8076171875	0.00833333333333333	0	-30	-7.05	1	1.0556640625
4056.0322265625	0.00833333333333333	0	-30	-6.925	1	0.87109375
4059.0322265625	0.00833333333333333	0	-30	-6.925	1	0.6875
4061.9736328125	0.00833333333333333	0	-30	-6.925	2	0.7861328125
4065.140625	0.00833333333333333	0	30	3.8125	2	0.69921875
4068.1650390625	0.00833333333333333	0	30	3.8125	1	0.8759765625
4071.4150390625	0.00833333333333333	0	-30	-6.925	1	0.689453125
4074.4990234375	0.00833333333333333	0	30	3.8125	1	0.9169921875
4077.681640625	0.00833333333333333	0	30	3.8125	1	0.703125
4080.623046875	0.00833333333333333	0	30	3.8125	1	0.75390625
4083.72265625	0.00833333333333333	0	-30	-6.925	1	0.59765625
4086.673828125	0.00833333333333333	0	-30	-6.925	1	0.638671875
4089.5400390625	0.00833333333333333	0	-30	-6.925	1	0.4365234375
4116.138671875	0.00833333333333333	0	-30	-6.925	1	0.798828125
4119.08984375	0.00833333333333333	0	30	3.8125	2	0.7197265625
4122.15625	0.00833333333333333	0	-30	-6.8	2	0.57421875
4125.09765625	0.00833333333333333	0	-30	-6.8	1	1.9443359375
4129.59765625	0.00833333333333333	0	30	3.8125	2	0.6767578125
4132.4228515625	0.00833333333333333	0	30	3.8125	2	0.794921875
4135.314453125	0.00833333333333333	0	30	3.8125	2	0.6640625
4138.314453125	0.00833333333333333	0	-30	-6.8	2	0.65625
4141.0810546875	0.00833333333333333	0	30	3.8125	2	0.6015625
4144.064453125	0.00833333333333333	0	-30	-6.8	1	0.5224609375
4146.8720703125	0.00833333333333333	0	30	3.6875	2	0.6669921875
4149.7060546875	0.00833333333333333	0	30	3.6875	2	0.7451171875
4152.59765625	0.00833333333333333	0	30	3.6875	2	0.708984375
4155.7138671875	0.00833333333333333	0	-30	-6.8	2	0.80078125
4158.8310546875	0.00833333333333333	0	-30	-6.8	1	0.763671875
4161.73046875	0.00833333333333333	0	30	3.6875	1	1.208984375
4165.3388671875	0.00833333333333333	0	-30	-6.8	1	0.6162109375
4167.97265625	0.00833333333333333	0	-30	-6.8	1	0.798828125
4171.2802734375	0.00833333333333333	0	30	3.6875	1	0.66796875
4174.1044921875	0.00833333333333333	0	30	3.6875	1	0.5869140625
4176.8388671875	0.00833333333333333	0	-30	-6.8	1	0.6044921875
4179.5556640625	0.00833333333333333	0	-30	-6.8	1	0.568359375
4182.35546875	0.00833333333333333	0	30	3.6875	1	1.2880859375
4185.9296875	0.00833333333333333	0	30	3.6875	1	1.001953125
4189.35546875	0.00833333333333333	0	30	3.8125	1	0.6728515625
4192.388671875	0.00833333333333333	0	-30	-6.675	1	0.6953125
4195.3720703125	0.00833333333333333	0	30	3.8125	1	0.49609375
4197.9462890625	0.00833333333333333	0	-30	-6.675	1	0.513671875
4200.48828125	0.00833333333333333	0	30	3.8125	1	0.7001953125
4203.171875	0.00833333333333333	0	-30	-6.675	1	2.6962890625
4207.98828125	0.00833333333333333	0	30	3.8125	2	0.6328125
4211.013671875	0.00833333333333333	0	-30	-6.675	1	1.0234375
4214.1708984375	0.00833333333333333	0	-30	-6.675	1	0.5537109375
4216.98828125	0.00833333333333333	0	-30	-6.55	1	0.8408203125
4219.904296875	0.00833333333333333	0	-30	-6.55	1	0.5009765625
4222.73828125	0.00833333333333333	0	30	3.8125	2	0.8427734375
4225.7958984375	0.00833333333333333	0	30	3.8125	2	0.59375
4228.4384765625	0.00833333333333333	0	-30	-6.55	1	0.87890625
4231.50390625	0.00833333333333333	0	-30	-6.55	1	0.5576171875
4234.2880859375	0.00833333333333333	0	30	3.8125	2	0.765625
4237.146484375	0.00833333333333333	0	30	3.8125	2	0.642578125
4240.2294921875	0.00833333333333333	0	-30	-6.55	1	0.7685546875
4243.1708984375	0.00833333333333333	0	30	3.6875	2	0.5068359375
4246.154296875	0.00833333333333333	0	-30	-6.425	1	0.4443359375
4248.62890625	0.00833333333333333	0	30	3.6875	2	0.5048828125
4251.5546875	0.00833333333333333	0	-30	-6.425	1	0.5556640625
4254.5712890625	0.00833333333333333	0	-30	-6.425	1	0.5947265625
4257.5126953125	0.00833333333333333	0	-30	-6.425	1	0.517578125
4260.462890625	0.00833333333333333	0	-30	-6.425	1	0.5439453125
4263.095703125	0.00833333333333333	0	-30	-6.3	1	0.56640625
4266.12109375	0.00833333333333333	0	30	3.6875	2	0.7890625
4269.3876953125	0.00833333333333333	0	-30	-6.3	1	0.451171875
4271.9208984375	0.00833333333333333	0	30	3.6875	2	0.7021484375
4274.9033203125	0.00833333333333333	0	-30	-6.3	1	0.3916015625
4277.4873046875	0.00833333333333333	0	30	3.6875	2	0.5439453125
4280.3291015625	0.00833333333333333	0	30	3.5625	1	0.509765625
4283.154296875	0.00833333333333333	0	30	3.5625	1	0.453125
4286.037109375	0.00833333333333333	0	30	3.5625	1	0.498046875
4288.904296875	0.00833333333333333	0	30	3.5625	1	0.71875
4291.8369140625	0.00833333333333333	0	30	3.5625	1	0.666015625
4294.51171875	0.00833333333333333	0	-30	-6.3	1	0.5673828125
4297.103515625	0.00833333333333333	0	-30	-6.3	1	0.5283203125
4299.794921875	0.00833333333333333	0	-30	-6.175	1	0.62890625
4302.853515625	0.00833333333333333	0	-30	-6.175	1	0.498046875
4305.603515625	0.00833333333333333	0	-30	-6.175	1	0.5166015625
4308.5869140625	0.00833333333333333	0	-30	-6.175	2	0.556640625
4311.3203125	0.00833333333333333	0	-30	-6.175	2	0.85546875
4314.51171875	0.00833333333333333	0	30	3.6875	2	0.5927734375
4317.5283203125	0.00833333333333333	0	30	3.6875	2	0.5439453125
4320.369140625	0.00833333333333333	0	30	3.6875	1	0.974609375
4323.8359375	0.00833333333333333	0	30	3.6875	1	0.564453125
4326.8203125	0.00833333333333333	0	30	3.6875	2	0.5556640625
4329.736328125	0.00833333333333333	0	30	3.6875	2	0.6240234375
4332.544921875	0.00833333333333333	0	30	3.6875	2	0.48828125
4335.5029296875	0.00833333333333333	0	-30	-6.175	1	0.490234375
4338.0947265625	0.00833333333333333	0	30	3.6875	2	0.7705078125
4341.177734375	0.00833333333333333	0	30	3.6875	2	0.5751953125
4343.7861328125	0.00833333333333333	0	-30	-6.175	1	0.630859375
4346.7685546875	0.00833333333333333	0	30	3.5625	2	0.904296875
4349.8359375	0.00833333333333333	0	30	3.5625	1	0.541015625
4376.8359375	0.00833333333333333	0	30	3.5625	2	0.662109375
4379.7607421875	0.00833333333333333	0	-30	-6.175	1	0.521484375
4382.369140625	0.00833333333333333	0	30	3.5625	2	0.720703125
4385.177734375	0.00833333333333333	0	-30	-6.175	1	0.4326171875
4388.15234375	0.00833333333333333	0	-30	-6.175	1	0.4736328125
4391.01953125	0.00833333333333333	0	-30	-6.05	1	0.470703125
4393.96875	0.00833333333333333	0	30	3.5625	2	0.6181640625
4396.96875	0.00833333333333333	0	-30	-6.05	1	0.6181640625
4399.818359375	0.00833333333333333	0	-30	-6.05	2	0.47265625
4402.5107421875	0.00833333333333333	0	30	3.5625	2	0.4677734375
4405.1025390625	0.00833333333333333	0	-30	-6.05	2	0.6923828125
4407.91015625	0.00833333333333333	0	-30	-6.05	2	0.64453125
4410.744140625	0.00833333333333333	0	-30	-6.05	2	0.5712890625
4413.626953125	0.00833333333333333	0	-30	-6.05	2	0.552734375
4416.1767578125	0.00833333333333333	0	-30	-6.175	2	0.5869140625
4418.751953125	0.00833333333333333	0	30	3.5625	2	0.515625
4421.6357421875	0.00833333333333333	0	-30	-6.175	2	0.52734375
4424.4189453125	0.00833333333333333	0	-30	-6.175	2	0.537109375
4427.4599609375	0.00833333333333333	0	30	3.4375	2	0.5673828125
4430.27734375	0.00833333333333333	0	30	3.4375	2	0.5908203125
4433.193359375	0.00833333333333333	0	30	3.4375	1	1.2587890625
4436.818359375	0.00833333333333333	0	-30	-6.175	2	0.513671875
4439.78515625	0.00833333333333333	0	-30	-6.175	2	0.611328125
4442.5517578125	0.00833333333333333	0	30	3.4375	2	0.564453125
4445.16015625	0.00833333333333333	0	30	3.4375	2	1.0283203125
4448.5595703125	0.00833333333333333	0	-30	-6.3	1	0.8212890625
4451.3349609375	0.00833333333333333	0	-30	-6.3	2	0.5732421875
4454.3095703125	0.00833333333333333	0	-30	-6.3	2	0.8154296875
4457.41015625	0.00833333333333333	0	30	3.4375	2	0.642578125
4460.576171875	0.00833333333333333	0	-30	-6.3	1	0.66015625
4463.6416015625	0.00833333333333333	0	30	3.4375	2	1.1552734375
4466.951171875	0.00833333333333333	0	30	3.4375	2	0.677734375
4469.8017578125	0.00833333333333333	0	-30	-6.3	1	0.626953125
4472.67578125	0.00833333333333333	0	-30	-6.3	1	0.953125
4476.04296875	0.00833333333333333	0	30	3.3125	2	0.9306640625
4479.392578125	0.00833333333333333	0	-30	-6.3	1	0.4853515625
4482.0341796875	0.00833333333333333	0	30	3.3125	1	0.595703125
4484.8349609375	0.00833333333333333	0	-30	-6.3	1	0.4990234375
4487.42578125	0.00833333333333333	0	30	3.3125	1	1.251953125
4490.8515625	0.00833333333333333	0	-30	-6.175	1	0.5859375
4493.833984375	0.00833333333333333	0	-30	-6.175	2	1.1796875
4497.1259765625	0.00833333333333333	0	-30	-6.175	2	0.7607421875
4500.4921875	0.00833333333333333	0	30	3.3125	1	0.6103515625
4503.3427734375	0.00833333333333333	0	30	3.3125	2	0.607421875
4506.1171875	0.00833333333333333	0	30	3.3125	2	0.681640625
4509.18359375	0.00833333333333333	0	30	3.3125	2	0.7666015625
4512.2919921875	0.00833333333333333	0	-30	-6.175	1	0.794921875
4515.42578125	0.00833333333333333	0	-30	-6.175	1	0.6689453125
4518.267578125	0.00833333333333333	0	-30	-6.175	1	0.603515625
4521.2255859375	0.00833333333333333	0	30	3.3125	1	0.548828125
4524.0341796875	0.00833333333333333	0	-30	-6.175	1	0.5322265625
4526.6923828125	0.00833333333333333	0	30	3.3125	1	0.5625
4529.3505859375	0.00833333333333333	0	-30	-6.175	1	0.6962890625
4532.2421875	0.00833333333333333	0	30	3.3125	1	0.5732421875
4535.1923828125	0.00833333333333333	0	-30	-6.05	1	0.5673828125
4538.1416015625	0.00833333333333333	0	-30	-6.05	1	0.6982421875
4541.0244140625	0.00833333333333333	0	-30	-6.05	1	0.54296875
4543.8173828125	0.00833333333333333	0	-30	-6.05	1	0.58203125
4546.716796875	0.00833333333333333	0	-30	-6.05	1	0.466796875
4549.69140625	0.00833333333333333	0	30	3.3125	1	0.7001953125
4552.533203125	0.00833333333333333	0	30	3.3125	1	0.5546875
4555.408203125	0.00833333333333333	0	30	3.4375	1	0.4873046875
4558.2587890625	0.00833333333333333	0	-30	-5.925	2	0.541015625
4561.2919921875	0.00833333333333333	0	30	3.4375	1	0.572265625
4564.2578125	0.00833333333333333	0	-30	-5.925	1	0.5029296875
4566.875	0.00833333333333333	0	-30	-5.925	1	0.517578125
4569.533203125	0.00833333333333333	0	-30	-5.925	1	0.4912109375
4572.4912109375	0.00833333333333333	0	30	3.4375	1	0.541015625
4575.1748046875	0.00833333333333333	0	-30	-5.925	2	0.5537109375
4578.015625	0.00833333333333333	0	-30	-5.925	2	0.7294921875
4581.0078125	0.00833333333333333	0	30	3.4375	2	0.712890625
4583.9404296875	0.00833333333333333	0	-30	-5.925	2	0.708984375
4586.8583984375	0.00833333333333333	0	-30	-5.925	2	0.5263671875
4589.607421875	0.00833333333333333	0	30	3.4375	2	0.7294921875
4592.6416015625	0.00833333333333333	0	-30	-5.925	2	0.6396484375
4595.69140625	0.00833333333333333	0	-30	-6.05	1	0.75
4598.8994140625	0.00833333333333333	0	-30	-6.05	1	0.60546875
4602.041015625	0.00833333333333333	0	-30	-6.05	2	1.3046875
4605.916015625	0.00833333333333333	0	-30	-6.05	1	0.685546875
4609.0322265625	0.00833333333333333	0	30	3.4375	2	0.625
4617.70703125	0.00833333333333333	0	-30	-6.05	1	0.5185546875
4620.2744140625	0.00833333333333333	0	-30	-6.05	1	0.6953125
4623.099609375	0.00833333333333333	0	-30	-6.05	1	0.470703125
4625.7412109375	0.00833333333333333	0	-30	-6.05	1	0.6767578125
4628.69921875	0.00833333333333333	0	-30	-5.925	2	0.8232421875
4631.58203125	0.00833333333333333	0	-30	-5.925	1	3.2685546875
4636.9326171875	0.00833333333333333	0	-30	-5.925	2	1.9501953125
4640.9404296875	0.00833333333333333	0	30	3.4375	1	0.5498046875
4643.6982421875	0.00833333333333333	0	30	3.4375	1	0.552734375
4646.6484375	0.00833333333333333	0	30	3.4375	1	0.5703125
4649.365234375	0.00833333333333333	0	30	3.4375	1	0.662109375
4652.3564453125	0.00833333333333333	0	-30	-5.925	1	1.3271484375
4655.8740234375	0.00833333333333333	0	-30	-5.925	1	0.9931640625
4659.0888671875	0.00833333333333333	0	30	3.4375	1	0.5546875
4662.0068359375	0.00833333333333333	0	-30	-5.925	1	0.5166015625
4664.85546875	0.00833333333333333	0	-30	-5.925	1	0.6201171875
4667.8232421875	0.00833333333333333	0	30	3.5625	1	0.412109375
4670.4814453125	0.00833333333333333	0	-30	-5.925	1	0.5224609375
4673.0732421875	0.00833333333333333	0	30	3.5625	1	0.490234375
4676.0146484375	0.00833333333333333	0	30	3.5625	1	0.796875
4679.0146484375	0.00833333333333333	0	30	3.5625	1	0.5810546875
4681.7568359375	0.00833333333333333	0	-30	-5.8	2	0.8154296875
4685.123046875	0.00833333333333333	0	-30	-5.8	1	1.689453125
4688.9560546875	0.00833333333333333	0	30	3.5625	1	0.7919921875
4692.080078125	0.00833333333333333	0	-30	-5.8	1	0.6923828125
4694.814453125	0.00833333333333333	0	-30	-5.8	2	1.6865234375
4698.697265625	0.00833333333333333	0	30	3.6875	2	0.7392578125
4701.5478515625	0.00833333333333333	0	30	3.6875	2	0.5771484375
4704.6650390625	0.00833333333333333	0	-30	-5.8	2	0.6279296875
4707.5732421875	0.00833333333333333	0	30	3.6875	2	0.7353515625
4710.388671875	0.00833333333333333	0	30	3.6875	2	0.583984375
4713.4052734375	0.00833333333333333	0	-30	-5.8	2	1.015625
4716.8720703125	0.00833333333333333	0	30	3.6875	2	0.5654296875
4719.671875	0.00833333333333333	0	30	3.5625	2	0.6611328125
4722.697265625	0.00833333333333333	0	30	3.5625	1	0.8037109375
4725.9228515625	0.00833333333333333	0	30	3.5625	1	0.546875
4728.6806640625	0.00833333333333333	0	-30	-5.8	2	0.5732421875
4731.697265625	0.00833333333333333	0	30	3.5625	1	0.556640625
4734.5478515625	0.00833333333333333	0	-30	-5.8	1	0.505859375
4737.22265625	0.00833333333333333	0	30	3.5625	1	0.6396484375
4740.0302734375	0.00833333333333333	0	30	3.5625	1	0.4873046875
4743.046875	0.00833333333333333	0	-30	-5.8	1	0.5595703125
4745.9892578125	0.00833333333333333	0	-30	-5.8	1	0.4404296875
4748.8798828125	0.00833333333333333	0	30	3.6875	2	0.8623046875
4751.9716796875	0.00833333333333333	0	30	3.6875	2	0.5390625
4754.9638671875	0.00833333333333333	0	30	3.6875	2	0.650390625
4758.0625	0.00833333333333333	0	30	3.6875	2	0.576171875
4760.8466796875	0.00833333333333333	0	-30	-5.8	1	0.4638671875
4763.5546875	0.00833333333333333	0	30	3.6875	2	0.3642578125
4766.0966796875	0.00833333333333333	0	30	3.5625	2	0.6865234375
4768.9794921875	0.00833333333333333	0	30	3.5625	2	0.5234375
4771.9873046875	0.00833333333333333	0	30	3.5625	2	0.5166015625
4774.5556640625	0.00833333333333333	0	30	3.5625	2	0.7080078125
4777.6376953125	0.00833333333333333	0	-30	-5.8	1	0.513671875
4780.595703125	0.00833333333333333	0	30	3.5625	2	0.763671875
4783.5625	0.00833333333333333	0	-30	-5.675	1	0.5810546875
4786.4296875	0.00833333333333333	0	30	3.4375	2	0.498046875
4789.2119140625	0.00833333333333333	0	30	3.4375	2	0.5078125
4792.1875	0.00833333333333333	0	-30	-5.675	2	1.091796875
4795.5458984375	0.00833333333333333	0	-30	-5.675	1	0.5341796875
4798.3798828125	0.00833333333333333	0	-30	-5.675	1	0.5
4801.2119140625	0.00833333333333333	0	-30	-5.675	1	0.564453125
4804.1455078125	0.00833333333333333	0	-30	-5.675	1	0.462890625
4806.7958984375	0.00833333333333333	0	-30	-5.675	1	0.5078125
4809.353515625	0.00833333333333333	0	30	3.4375	2	0.8623046875
4812.720703125	0.00833333333333333	0	30	3.4375	1	0.591796875
4815.462890625	0.00833333333333333	0	-30	-5.55	1	2.6259765625
4820.2373046875	0.00833333333333333	0	-30	-5.55	1	0.4033203125
4822.9365234375	0.00833333333333333	0	30	3.4375	2	0.4716796875
4825.88671875	0.00833333333333333	0	30	3.4375	2	1.0498046875
4829.2197265625	0.00833333333333333	0	30	3.4375	1	0.7333984375
4831.9951171875	0.00833333333333333	0	30	3.4375	1	0.830078125
4834.9033203125	0.00833333333333333	0	-30	-5.55	2	0.6494140625
4838.1787109375	0.00833333333333333	0	30	3.4375	1	0.654296875
4841.162109375	0.00833333333333333	0	30	3.4375	2	0.7431640625
4844.3115234375	0.00833333333333333	0	30	3.4375	2	0.7216796875
4847.0615234375	0.00833333333333333	0	-30	-5.55	1	0.6357421875
4849.7119140625	0.00833333333333333	0	30	3.4375	2	1.009765625
4853.220703125	0.00833333333333333	0	30	3.4375	2	0.892578125
4856.4375	0.00833333333333333	0	30	3.4375	2	1.572265625
4870.90234375	0.00833333333333333	0	-30	-5.55	1	0.67578125
4873.89453125	0.00833333333333333	0	30	3.3125	1	1.419921875
4877.677734375	0.00833333333333333	0	-30	-5.55	1	0.541015625
4880.478515625	0.00833333333333333	0	-30	-5.55	2	0.6279296875
4883.4287109375	0.00833333333333333	0	-30	-5.55	1	0.509765625
4886.3857421875	0.00833333333333333	0	-30	-5.55	2	0.5849609375
4889.0947265625	0.00833333333333333	0	30	3.3125	2	0.4599609375
4891.9365234375	0.00833333333333333	0	-30	-5.55	2	0.650390625
4894.9775390625	0.00833333333333333	0	-30	-5.55	2	0.8818359375
4898.1103515625	0.00833333333333333	0	-30	-5.55	2	0.63671875
4901.02734375	0.00833333333333333	0	-30	-5.55	2	0.583984375
4903.6611328125	0.00833333333333333	0	-30	-5.675	2	0.87890625
4906.7861328125	0.00833333333333333	0	-30	-5.675	2	0.6494140625
4909.677734375	0.00833333333333333	0	30	3.3125	1	2.4853515625
4914.560546875	0.00833333333333333	0	-30	-5.675	1	0.5625
4917.376953125	0.00833333333333333	0	30	3.3125	2	1.3310546875
4920.935546875	0.00833333333333333	0	-30	-5.675	2	0.7802734375
4924.0693359375	0.00833333333333333	0	30	3.3125	2	0.8232421875
4927.3857421875	0.00833333333333333	0	-30	-5.675	2	1.73828125
4931.5517578125	0.00833333333333333	0	-30	-5.675	1	0.6123046875
4934.1357421875	0.00833333333333333	0	30	3.3125	2	0.5166015625
4936.9931640625	0.00833333333333333	0	-30	-5.675	2	0.4912109375
4939.9267578125	0.00833333333333333	0	-30	-5.675	1	0.4453125
4942.4189453125	0.00833333333333333	0	30	3.3125	2	0.9697265625
4945.7265625	0.00833333333333333	0	-30	-5.675	2	0.509765625
4948.2685546875	0.00833333333333333	0	-30	-5.675	1	0.7919921875
4951.5185546875	0.00833333333333333	0	30	3.3125	1	0.8857421875
4954.685546875	0.00833333333333333	0	-30	-5.675	1	0.5517578125
4957.6689453125	0.00833333333333333	0	-30	-5.675	1	0.49609375
4960.6845703125	0.00833333333333333	0	-30	-5.675	1	0.5283203125
4963.7265625	0.00833333333333333	0	30	3.3125	2	0.5029296875
4966.4521484375	0.00833333333333333	0	-30	-5.675	1	1.017578125
4969.4609375	0.00833333333333333	0	-30	-5.55	1	0.48046875
4972.3935546875	0.00833333333333333	0	30	3.3125	1	0.755859375
4975.443359375	0.00833333333333333	0	-30	-5.55	1	0.5302734375
4978.4853515625	0.00833333333333333	0	30	3.3125	2	0.46484375
4981.017578125	0.00833333333333333	0	30	3.3125	2	0.7724609375
4984.259765625	0.00833333333333333	0	-30	-5.55	1	1.5224609375
4987.8681640625	0.00833333333333333	0	-30	-5.55	1	1.017578125
4991.1259765625	0.00833333333333333	0	-30	-5.55	2	0.984375
4994.3095703125	0.00833333333333333	0	30	3.3125	2	0.7763671875
4997.3095703125	0.00833333333333333	0	-30	-5.55	1	1.041015625
5000.7509765625	0.00833333333333333	0	30	3.3125	1	0.8876953125
5003.984375	0.00833333333333333	0	-30	-5.55	1	0.470703125
5006.6103515625	0.00833333333333333	0	-30	-5.55	1	0.587890625
5009.2099609375	0.00833333333333333	0	30	3.3125	1	0.5810546875
5011.92578125	0.00833333333333333	0	30	3.3125	1	0.544921875
5014.984375	0.00833333333333333	0	-30	-5.55	1	0.5908203125
5017.701171875	0.00833333333333333	0	30	3.3125	2	0.841796875
5020.67578125	0.00833333333333333	0	-30	-5.55	2	0.5634765625
5023.5087890625	0.00833333333333333	0	30	3.3125	2	0.5224609375
5026.4013671875	0.00833333333333333	0	30	3.3125	2	0.6943359375
5029.4677734375	0.00833333333333333	0	30	3.3125	2	1.1875
5033.1591796875	0.00833333333333333	0	-30	-5.55	2	0.720703125
5036.216796875	0.00833333333333333	0	30	3.3125	1	0.623046875
5039.0673828125	0.00833333333333333	0	30	3.3125	1	0.5556640625
5041.7763671875	0.00833333333333333	0	30	3.3125	1	1.3115234375
5045.6259765625	0.00833333333333333	0	30	3.3125	1	0.58984375
5048.400390625	0.00833333333333333	0	-30	-5.55	1	0.615234375
5051.091796875	0.00833333333333333	0	30	3.3125	1	0.5166015625
5053.693359375	0.00833333333333333	0	-30	-5.55	1	0.603515625
5056.283203125	0.00833333333333333	0	-30	-5.55	1	0.6533203125
5059.125	0.00833333333333333	0	-30	-5.55	1	0.7392578125
5062.025390625	0.00833333333333333	0	-30	-5.55	1	0.798828125
5065.0419921875	0.00833333333333333	0	30	3.4375	1	0.822265625
5068.19140625	0.00833333333333333	0	-30	-5.425	1	1.537109375
5072.0419921875	0.00833333333333333	0	-30	-5.425	1	0.951171875
5075.267578125	0.00833333333333333	0	30	3.4375	2	0.59765625
5078.05859375	0.00833333333333333	0	30	3.4375	2	0.6064453125
5080.75	0.00833333333333333	0	30	3.4375	2	0.763671875
5083.5087890625	0.00833333333333333	0	-30	-5.425	1	0.62890625
5086.2001953125	0.00833333333333333	0	30	3.4375	2	0.625
5089.0087890625	0.00833333333333333	0	-30	-5.425	2	0.6005859375
5092.0576171875	0.00833333333333333	0	30	3.4375	2	0.671875
5095.0078125	0.00833333333333333	0	-30	-5.425	2	0.5859375
5097.8408203125	0.00833333333333333	0	-30	-5.425	2	0.9453125
5101.166015625	0.00833333333333333	0	30	3.3125	1	0.5634765625
5103.8916015625	0.00833333333333333	0	30	3.3125	1	0.6865234375
5106.916015625	0.00833333333333333	0	-30	-5.425	2	0.7421875
5110.0498046875	0.00833333333333333	0	30	3.3125	1	0.81640625
