onset	duration	titr	surround	centre	response	rt
0.3046875	0.00833333333333333	1	NaN	-15	1	0.4794921875
3.00390625	0.00833333333333333	1	NaN	-14	1	0.5
6.080078125	0.00833333333333333	1	-30	-15	1	0.5751953125
8.8037109375	0.00833333333333333	1	NaN	15	2	0.66015625
11.6455078125	0.00833333333333333	1	NaN	-13	1	0.5703125
14.287109375	0.00833333333333333	1	NaN	14	2	0.513671875
16.9287109375	0.00833333333333333	1	NaN	13	2	0.576171875
19.728515625	0.00833333333333333	1	-30	-14	1	0.6884765625
22.669921875	0.00833333333333333	1	30	13	2	0.5224609375
25.6455078125	0.00833333333333333	1	30	-15	1	0.5556640625
28.37890625	0.00833333333333333	1	30	-14	1	0.7333984375
31.2705078125	0.00833333333333333	1	NaN	12	2	0.6337890625
34.095703125	0.00833333333333333	1	-30	15	2	0.9287109375
37.4873046875	0.00833333333333333	1	-30	14	2	0.658203125
40.4619140625	0.00833333333333333	1	NaN	11	2	0.603515625
43.3701171875	0.00833333333333333	1	-30	13	2	0.5751953125
46.2119140625	0.00833333333333333	1	-30	-13	1	0.62890625
48.986328125	0.00833333333333333	1	-30	-12	1	1.0869140625
52.38671875	0.00833333333333333	1	-30	-11	2	2.1982421875
56.794921875	0.00833333333333333	1	NaN	-12	1	0.6787109375
59.5615234375	0.00833333333333333	1	-30	-12	1	0.728515625
62.5869140625	0.00833333333333333	1	-30	-11	1	0.6708984375
65.4365234375	0.00833333333333333	1	30	-13	1	0.7490234375
68.3271484375	0.00833333333333333	1	-30	-10	1	0.7783203125
71.6025390625	0.00833333333333333	1	-30	-9	1	1.2080078125
74.89453125	0.00833333333333333	1	NaN	10	2	0.763671875
78.0517578125	0.00833333333333333	1	-30	12	2	0.88671875
81.369140625	0.00833333333333333	1	30	-12	1	0.705078125
84.14453125	0.00833333333333333	1	30	-11	1	0.76171875
86.953125	0.00833333333333333	1	NaN	-11	1	0.6572265625
89.9013671875	0.00833333333333333	1	NaN	-10	1	0.6533203125
93.0439453125	0.00833333333333333	1	-30	-8	2	0.87109375
96.4521484375	0.00833333333333333	1	NaN	9	2	0.8544921875
99.7197265625	0.00833333333333333	1	NaN	8	2	0.763671875
102.677734375	0.00833333333333333	1	NaN	-9	1	0.693359375
105.4609375	0.00833333333333333	1	-30	11	2	0.56640625
108.4775390625	0.00833333333333333	1	-30	-9	1	0.693359375
111.4765625	0.00833333333333333	1	-30	-8	2	0.7353515625
114.376953125	0.00833333333333333	1	NaN	-8	1	0.73046875
117.6435546875	0.00833333333333333	1	30	12	2	0.7197265625
120.67578125	0.00833333333333333	1	NaN	-7	1	0.751953125
123.59375	0.00833333333333333	1	NaN	7	2	0.673828125
126.4013671875	0.00833333333333333	1	NaN	-6	1	0.9541015625
129.376953125	0.00833333333333333	1	30	11	2	0.642578125
132.4775390625	0.00833333333333333	1	30	-10	1	0.91015625
135.443359375	0.00833333333333333	1	-30	10	2	0.6806640625
138.46875	0.00833333333333333	1	NaN	-5	1	0.6474609375
141.53515625	0.00833333333333333	1	-30	9	2	0.5732421875
144.251953125	0.00833333333333333	1	30	10	2	0.6650390625
147.03515625	0.00833333333333333	1	NaN	6	2	0.537109375
149.6181640625	0.00833333333333333	1	NaN	-4	2	1.3388671875
153.443359375	0.00833333333333333	1	30	9	2	0.8095703125
156.6513671875	0.00833333333333333	1	-30	-9	1	1.841796875
161.0517578125	0.00833333333333333	1	-30	8	2	0.5849609375
164.126953125	0.00833333333333333	1	NaN	5	2	0.92578125
167.2177734375	0.00833333333333333	1	30	8	2	0.859375
170.3759765625	0.00833333333333333	1	NaN	-5	1	0.9970703125
173.509765625	0.00833333333333333	1	-30	-8	2	0.927734375
176.759765625	0.00833333333333333	1	NaN	4	2	0.7822265625
180.03515625	0.00833333333333333	1	NaN	3	2	0.6259765625
183.0009765625	0.00833333333333333	1	NaN	2	2	0.732421875
186.201171875	0.00833333333333333	1	30	7	2	0.7646484375
189.3759765625	0.00833333333333333	1	30	6	2	0.830078125
192.4248046875	0.00833333333333333	1	30	5	2	0.97265625
195.9599609375	0.00833333333333333	1	-30	7	2	0.6787109375
198.9677734375	0.00833333333333333	1	NaN	1	2	0.806640625
201.9013671875	0.00833333333333333	1	30	4	2	0.8173828125
205.0673828125	0.00833333333333333	1	-30	6	2	0.5224609375
207.80078125	0.00833333333333333	1	30	3	2	0.94921875
210.9423828125	0.00833333333333333	1	30	2	2	0.7998046875
214.076171875	0.00833333333333333	1	-30	5	2	0.642578125
216.7421875	0.00833333333333333	1	NaN	0	2	0.9296875
219.91796875	0.00833333333333333	1	-30	4	2	0.7685546875
223.0419921875	0.00833333333333333	1	NaN	-4	1	1.62890625
227.0751953125	0.00833333333333333	1	30	-9	1	0.740234375
230.2421875	0.00833333333333333	1	30	1	2	0.9248046875
233.55859375	0.00833333333333333	1	30	-8	1	0.8251953125
236.8505859375	0.00833333333333333	1	30	-7	1	0.900390625
240.1328125	0.00833333333333333	1	30	0	1	0.875
243.1591796875	0.00833333333333333	1	30	-6	1	0.736328125
246.05078125	0.00833333333333333	1	NaN	-3	1	0.9970703125
249.5087890625	0.00833333333333333	1	30	1	1	0.5869140625
252.6083984375	0.00833333333333333	1	-30	3	2	0.83203125
255.6171875	0.00833333333333333	1	NaN	-1	2	0.87890625
258.69140625	0.00833333333333333	1	30	-5	1	0.8369140625
261.69140625	0.00833333333333333	1	30	2	2	7.0126953125
271.125	0.00833333333333333	1	NaN	-2	1	0.947265625
274.4833984375	0.00833333333333333	1	30	-4	1	0.62890625
277.30859375	0.00833333333333333	1	NaN	-2	1	1.1884765625
280.7744140625	0.00833333333333333	1	-30	-9	1	0.818359375
283.6416015625	0.00833333333333333	1	NaN	-1	1	0.9833984375
286.724609375	0.00833333333333333	1	NaN	0	2	0.7890625
289.9248046875	0.00833333333333333	1	NaN	-1	1	1.0205078125
293.25	0.00833333333333333	1	NaN	0	2	1.4873046875
368.7822265625	0.00833333333333333	1	-30	-8	1	0.9970703125
372.0732421875	0.00833333333333333	1	NaN	-1	2	0.8583984375
375.0732421875	0.00833333333333333	1	30	1	2	0.802734375
377.9404296875	0.00833333333333333	1	-30	-7	1	0.83203125
380.9560546875	0.00833333333333333	1	-30	2	2	0.759765625
384.0146484375	0.00833333333333333	1	30	0	2	0.998046875
387.2822265625	0.00833333333333333	1	NaN	-1	2	1.345703125
390.83984375	0.00833333333333333	1	30	-3	1	0.65234375
393.865234375	0.00833333333333333	1	NaN	-2	1	1.1796875
397.490234375	0.00833333333333333	1	30	-1	1	0.73046875
400.5478515625	0.00833333333333333	1	30	0	1	0.9453125
403.681640625	0.00833333333333333	1	30	-2	1	0.7392578125
406.931640625	0.00833333333333333	1	-30	-6	1	0.7529296875
410.248046875	0.00833333333333333	1	NaN	-1	1	0.6845703125
413.064453125	0.00833333333333333	1	NaN	-2	1	0.8603515625
416.1142578125	0.00833333333333333	1	-30	1	2	0.859375
419.09765625	0.00833333333333333	1	-30	0	2	0.8193359375
422.2978515625	0.00833333333333333	1	30	1	2	0.9716796875
425.58984375	0.00833333333333333	1	NaN	-1	2	0.8642578125
428.4814453125	0.00833333333333333	1	NaN	0	2	0.7646484375
431.7890625	0.00833333333333333	1	-30	-1	2	0.640625
434.5888671875	0.00833333333333333	1	-30	-5	2	0.9052734375
437.623046875	0.00833333333333333	1	NaN	-1	2	0.7431640625
440.564453125	0.00833333333333333	1	30	0	1	1.0654296875
443.755859375	0.00833333333333333	1	30	1	2	0.8427734375
447.0556640625	0.00833333333333333	1	NaN	-2	1	1.142578125
450.439453125	0.00833333333333333	1	30	-1	1	0.87109375
453.630859375	0.00833333333333333	1	30	0	1	1.3994140625
457.2470703125	0.00833333333333333	1	NaN	-1	2	1.767578125
461.1220703125	0.00833333333333333	1	-30	-6	1	1.93359375
465.064453125	0.00833333333333333	1	NaN	-2	2	1.5185546875
469.005859375	0.00833333333333333	1	NaN	-2	1	2.59375
473.705078125	0.00833333333333333	1	30	0	1	0.814453125
476.6298828125	0.00833333333333333	1	-30	-2	2	0.8896484375
479.6552734375	0.00833333333333333	1	NaN	-3	1	1.5517578125
483.4296875	0.00833333333333333	1	NaN	-2	1	0.9140625
486.6640625	0.00833333333333333	1	NaN	-1	2	1.84765625
490.796875	0.00833333333333333	1	NaN	-2	2	2.4912109375
495.4296875	0.00833333333333333	1	-30	-3	2	1.498046875
498.98046875	0.00833333333333333	1	NaN	-3	1	0.8271484375
501.9052734375	0.00833333333333333	1	NaN	-1	1	2.462890625
506.4130859375	0.00833333333333333	1	-30	-4	2	2.8671875
511.587890625	0.00833333333333333	1	NaN	0	1	1.892578125
515.73828125	0.00833333333333333	1	30	1	1	1.134765625
518.9384765625	0.00833333333333333	1	-30	-5	2	1.3662109375
522.5380859375	0.00833333333333333	1	-30	-6	1	0.9501953125
525.9296875	0.00833333333333333	1	30	1	2	1.1748046875
529.330078125	0.00833333333333333	1	NaN	-2	2	4.5673828125
536.12109375	0.00833333333333333	1	NaN	-3	1	0.80859375
539.4462890625	0.00833333333333333	1	30	2	2	1.130859375
542.6376953125	0.00833333333333333	1	30	1	1	0.8759765625
545.6298828125	0.00833333333333333	1	30	2	2	1.068359375
548.9130859375	0.00833333333333333	1	-30	-5	1	1.10546875
552.212890625	0.00833333333333333	1	30	0	2	3.205078125
557.8876953125	0.00833333333333333	1	NaN	1	2	0.6904296875
560.7958984375	0.00833333333333333	1	30	1	1	0.9501953125
564.24609375	0.00833333333333333	1	NaN	0	2	0.9326171875
567.6708984375	0.00833333333333333	1	-30	-4	2	1.04296875
571.0537109375	0.00833333333333333	1	30	2	1	1.7490234375
574.8876953125	0.00833333333333333	1	30	3	2	1.2265625
578.3876953125	0.00833333333333333	1	30	-1	1	1.2470703125
581.7041015625	0.00833333333333333	1	-30	-5	2	4.634765625
588.5791015625	0.00833333333333333	1	30	0	2	1.263671875
592.3369140625	0.00833333333333333	1	-30	-6	2	0.8662109375
595.3291015625	0.00833333333333333	1	-30	-7	2	3.08203125
600.63671875	0.00833333333333333	1	NaN	-1	2	0.8466796875
603.720703125	0.00833333333333333	1	30	2	2	2.3232421875
608.1025390625	0.00833333333333333	1	30	1	2	1.0048828125
611.5947265625	0.00833333333333333	1	-30	-8	1	1.10546875
615.169921875	0.00833333333333333	1	NaN	-2	1	0.681640625
618.0205078125	0.00833333333333333	1	30	0	1	0.7275390625
621.26171875	0.00833333333333333	1	30	1	2	0.814453125
624.5029296875	0.00833333333333333	1	30	0	1	1.205078125
628.0947265625	0.00833333333333333	1	NaN	-1	2	0.861328125
631.5283203125	0.00833333333333333	1	30	1	1	0.9560546875
634.6943359375	0.00833333333333333	1	-30	-7	2	1.638671875
638.7939453125	0.00833333333333333	1	30	2	2	3.0107421875
643.8857421875	0.00833333333333333	1	30	1	2	1.20703125
647.169921875	0.00833333333333333	1	30	0	2	0.8193359375
650.3779296875	0.00833333333333333	1	30	-1	1	1.6748046875
654.494140625	0.00833333333333333	1	-30	-8	2	0.783203125
657.578125	0.00833333333333333	1	-30	-9	2	0.8515625
660.9697265625	0.00833333333333333	1	-30	-10	2	2.00390625
665.0849609375	0.00833333333333333	1	-30	-11	2	1.2802734375
668.703125	0.00833333333333333	1	-30	-12	2	1.3740234375
755.66015625	0.00833333333333333	1	-30	-13	2	0.009765625
758.001953125	0.00833333333333333	1	-30	-14	1	0.990234375
761.4091796875	0.00833333333333333	1	-30	-13	1	0.703125
764.4345703125	0.00833333333333333	1	-30	-12	1	0.58203125
767.41796875	0.00833333333333333	1	-30	-11	1	1.279296875
771.0673828125	0.00833333333333333	1	-30	-10	1	1.3896484375
774.55078125	0.00833333333333333	1	-30	-9	1	0.6826171875
777.759765625	0.00833333333333333	1	-30	-8	1	1.337890625
781.2509765625	0.00833333333333333	1	-30	-7	2	1.0625
784.451171875	0.00833333333333333	1	-30	-8	2	1.0703125
787.66796875	0.00833333333333333	1	-30	-9	1	1.40625
791.5498046875	0.00833333333333333	1	-30	-8	2	1.515625
795.4345703125	0.00833333333333333	1	-30	-9	1	1.1435546875
798.7177734375	0.00833333333333333	1	-30	-8	1	1.251953125
802.2255859375	0.00833333333333333	1	-30	-7	1	0.9609375
805.3671875	0.00833333333333333	1	-30	-6	1	0.947265625
808.68359375	0.00833333333333333	1	-30	-5	2	2.22265625
813.0751953125	0.00833333333333333	1	30	1	1	0.86328125
816.392578125	0.00833333333333333	1	NaN	-1.08333333333333	1	0.7939453125
819.42578125	0.00833333333333333	1	30	0	1	0.689453125
822.5751953125	0.00833333333333333	1	30	1.125	1	0.916015625
825.9677734375	0.00833333333333333	1	30	0.125	1	0.9716796875
829.025390625	0.00833333333333333	1	NaN	-0.958333333333333	1	0.7294921875
832.05078125	0.00833333333333333	1	NaN	-0.833333333333333	2	0.7919921875
834.9169921875	0.00833333333333333	1	-30	-8.58333333333333	1	1.1181640625
838.4833984375	0.00833333333333333	1	-30	-7.58333333333333	1	0.759765625
841.625	0.00833333333333333	1	30	0.25	1	0.73828125
844.8671875	0.00833333333333333	1	NaN	-2.08333333333333	1	0.81640625
848.25	0.00833333333333333	1	NaN	-0.958333333333333	1	1.4169921875
852.19140625	0.00833333333333333	1	NaN	-1.95833333333333	1	0.9404296875
855.650390625	0.00833333333333333	1	NaN	-0.833333333333333	2	0.9609375
859.1337890625	0.00833333333333333	1	30	1.25	2	0.822265625
862.3916015625	0.00833333333333333	1	-30	-7.45833333333333	2	0.66015625
865.2666015625	0.00833333333333333	1	30	1.125	2	0.76171875
868.2333984375	0.00833333333333333	1	-30	-8.45833333333333	1	1.138671875
871.8916015625	0.00833333333333333	1	NaN	-1.83333333333333	2	0.728515625
875.033203125	0.00833333333333333	1	NaN	-1.95833333333333	1	0.7392578125
877.94140625	0.00833333333333333	1	-30	-8.33333333333333	1	0.8232421875
881.091796875	0.00833333333333333	1	-30	-8.20833333333333	2	2.857421875
886.31640625	0.00833333333333333	1	30	0.375	1	0.9521484375
889.4326171875	0.00833333333333333	1	30	0.5	1	1.8525390625
893.7744140625	0.00833333333333333	1	-30	-8.33333333333333	2	1.22265625
897.158203125	0.00833333333333333	1	NaN	-1.83333333333333	2	1.23828125
900.5244140625	0.00833333333333333	1	30	0.625	2	1.056640625
903.94921875	0.00833333333333333	1	NaN	-1.95833333333333	2	1.064453125
907.44921875	0.00833333333333333	1	NaN	-2.08333333333333	2	0.99609375
910.474609375	0.00833333333333333	1	NaN	-0.958333333333333	2	1.0986328125
913.8662109375	0.00833333333333333	1	NaN	-2.20833333333333	2	1.236328125
917.3408203125	0.00833333333333333	1	NaN	-1.08333333333333	2	1.2890625
920.857421875	0.00833333333333333	1	-30	-8.45833333333333	1	1.1083984375
924.1328125	0.00833333333333333	1	-30	-7.58333333333333	1	1.1611328125
927.7490234375	0.00833333333333333	1	-30	-8.33333333333333	1	1.2333984375
931.240234375	0.00833333333333333	1	NaN	-1.20833333333333	1	1.1416015625
934.57421875	0.00833333333333333	1	-30	-8.20833333333333	2	13.6240234375
950.58984375	0.00833333333333333	1	30	0.5	2	7.720703125
960.5234375	0.00833333333333333	1	30	0.375	1	0.916015625
963.740234375	0.00833333333333333	1	-30	-7.45833333333333	2	0.71484375
966.6572265625	0.00833333333333333	1	30	1	1	0.91015625
969.931640625	0.00833333333333333	1	NaN	-1.08333333333333	1	0.8115234375
973.1728515625	0.00833333333333333	1	30	0.5	1	1.2109375
976.6650390625	0.00833333333333333	1	-30	-8.33333333333333	1	0.8232421875
980.0068359375	0.00833333333333333	1	-30	-7.58333333333333	2	1.3369140625
983.615234375	0.00833333333333333	1	-30	-8.20833333333333	2	3.1767578125
989.08984375	0.00833333333333333	1	30	0.625	1	0.88671875
992.4384765625	0.00833333333333333	1	30	1.125	1	1.177734375
995.939453125	0.00833333333333333	1	NaN	-2.33333333333333	2	1.4130859375
999.5390625	0.00833333333333333	1	-30	-8.33333333333333	1	1.3017578125
1002.90625	0.00833333333333333	1	30	1.25	1	0.9423828125
1006.09765625	0.00833333333333333	1	NaN	-0.958333333333333	2	0.86328125
1009.0810546875	0.00833333333333333	1	30	0.75	1	1.1279296875
1012.47265625	0.00833333333333333	1	30	1.375	2	0.7685546875
1015.380859375	0.00833333333333333	1	30	0.875	2	0.9482421875
1018.5634765625	0.00833333333333333	1	NaN	-1.08333333333333	2	1.2216796875
1022.171875	0.00833333333333333	1	NaN	-1.20833333333333	2	0.861328125
1025.0810546875	0.00833333333333333	1	-30	-7.70833333333333	1	1.2724609375
1028.7138671875	0.00833333333333333	1	-30	-8.20833333333333	1	0.703125
1031.9140625	0.00833333333333333	1	30	1.25	1	1.15234375
1035.138671875	0.00833333333333333	1	-30	-7.58333333333333	1	1.56640625
1039.064453125	0.00833333333333333	1	-30	-8.08333333333333	1	1.0087890625
1042.404296875	0.00833333333333333	1	-30	-7.45833333333333	2	1.75
1046.34765625	0.00833333333333333	1	-30	-7.58333333333333	2	1.0068359375
1049.755859375	0.00833333333333333	1	-30	-7.70833333333333	1	1.326171875
1053.5224609375	0.00833333333333333	1	NaN	-2.45833333333333	1	0.6396484375
1152.3212890625	0.00833333333333333	1	30	0.75	2	1.1484375
1155.654296875	0.00833333333333333	1	-30	-7.58333333333333	1	1.287109375
1159.2373046875	0.00833333333333333	1	NaN	-1.33333333333333	2	1.6005859375
1163.029296875	0.00833333333333333	1	-30	-7.45833333333333	1	1.369140625
1166.5458984375	0.00833333333333333	1	-30	-7.33333333333333	1	1.1796875
1170.00390625	0.00833333333333333	1	-30	-7.20833333333333	2	1.177734375
1173.3037109375	0.00833333333333333	1	-30	-7.95833333333333	2	1.5029296875
1177.1201171875	0.00833333333333333	1	30	0.625	1	1.1181640625
1180.345703125	0.00833333333333333	1	-30	-7.33333333333333	2	1.4208984375
1184.3037109375	0.00833333333333333	1	-30	-8.08333333333333	2	0.814453125
1187.5703125	0.00833333333333333	1	-30	-7.45833333333333	2	0.8837890625
1190.5947265625	0.00833333333333333	1	30	1.375	2	1.435546875
1194.26171875	0.00833333333333333	1	-30	-7.58333333333333	2	0.9853515625
1197.537109375	0.00833333333333333	1	30	0.75	1	1.158203125
1201.13671875	0.00833333333333333	1	NaN	-1.45833333333333	2	1.134765625
1204.64453125	0.00833333333333333	1	30	1.25	2	1.8427734375
1208.7119140625	0.00833333333333333	1	-30	-7.70833333333333	1	1.3349609375
1212.5537109375	0.00833333333333333	1	NaN	-2.33333333333333	1	1.181640625
1215.9365234375	0.00833333333333333	1	NaN	-1.58333333333333	2	1.5751953125
1219.677734375	0.00833333333333333	1	-30	-8.20833333333333	1	1.7939453125
1223.544921875	0.00833333333333333	1	30	1.125	1	1.4228515625
1227.1201171875	0.00833333333333333	1	-30	-8.08333333333333	1	1.4794921875
1230.7861328125	0.00833333333333333	1	NaN	-2.20833333333333	1	1.078125
1234.119140625	0.00833333333333333	1	30	1.25	1	1.0732421875
1237.2607421875	0.00833333333333333	1	-30	-7.58333333333333	1	1.4833984375
1240.9111328125	0.00833333333333333	1	NaN	-1.70833333333333	1	0.9775390625
1244.169921875	0.00833333333333333	1	NaN	-1.58333333333333	1	2.806640625
1249.1025390625	0.00833333333333333	1	-30	-7.45833333333333	2	1.6025390625
1253.361328125	0.00833333333333333	1	NaN	-1.45833333333333	2	0.8876953125
1256.560546875	0.00833333333333333	1	NaN	-2.08333333333333	2	1.4638671875
1260.1943359375	0.00833333333333333	1	30	1.375	2	1.20703125
1263.64453125	0.00833333333333333	1	NaN	-2.20833333333333	2	1.2841796875
1267.14453125	0.00833333333333333	1	-30	-7.58333333333333	2	1.3603515625
1271.0361328125	0.00833333333333333	1	30	0.875	2	1.005859375
1274.4521484375	0.00833333333333333	1	-30	-7.95833333333333	2	1.78125
1278.7509765625	0.00833333333333333	1	NaN	-2.33333333333333	2	1.291015625
1282.1015625	0.00833333333333333	1	-30	-8.08333333333333	1	1.828125
1286.443359375	0.00833333333333333	1	-30	-7.95833333333333	2	1.150390625
1289.943359375	0.00833333333333333	1	NaN	-2.45833333333333	1	2.71484375
1295.060546875	0.00833333333333333	1	30	1.25	2	1.09375
1298.3857421875	0.00833333333333333	1	30	1.125	1	1.0166015625
1301.685546875	0.00833333333333333	1	NaN	-1.58333333333333	2	1.28515625
1305.484375	0.00833333333333333	1	NaN	-1.70833333333333	2	0.91796875
1308.6767578125	0.00833333333333333	1	NaN	-1.83333333333333	1	1.7255859375
1312.818359375	0.00833333333333333	1	30	1.25	1	1.904296875
1316.91015625	0.00833333333333333	1	30	1.375	1	1.1640625
1320.29296875	0.00833333333333333	1	30	0.75	1	1.0380859375
1323.576171875	0.00833333333333333	1	NaN	-1.70833333333333	1	1.0986328125
1327.001953125	0.00833333333333333	1	-30	-7.70833333333333	2	2.09765625
1331.359375	0.00833333333333333	1	-30	-8.08333333333333	2	3.33984375
1337.068359375	0.00833333333333333	1	-30	-7.83333333333333	1	1.5107421875
1340.79296875	0.00833333333333333	1	-30	-8.20833333333333	1	0.994140625
1344.0595703125	0.00833333333333333	1	-30	-7.70833333333333	2	1.50390625
1347.8095703125	0.00833333333333333	1	-30	-8.08333333333333	1	1.1220703125
1351.1083984375	0.00833333333333333	1	-30	-7.83333333333333	1	1.7998046875
1355.1513671875	0.00833333333333333	1	30	0.875	1	0.98828125
1358.3173828125	0.00833333333333333	1	-30	-7.95833333333333	2	2.958984375
1363.55078125	0.00833333333333333	1	NaN	-2.33333333333333	1	1.181640625
1367.1513671875	0.00833333333333333	1	30	1	2	1.517578125
1370.9345703125	0.00833333333333333	1	30	0.875	1	1.349609375
1374.54296875	0.00833333333333333	1	NaN	-2.20833333333333	2	0.8701171875
1377.9091796875	0.00833333333333333	1	-30	-8.08333333333333	1	1.359375
1381.3505859375	0.00833333333333333	1	-30	-7.95833333333333	2	1.486328125
1385.2587890625	0.00833333333333333	1	NaN	-1.58333333333333	2	0.986328125
1388.7255859375	0.00833333333333333	1	30	1	2	2.16796875
1393.0009765625	0.00833333333333333	1	NaN	-2.33333333333333	2	1.484375
1396.8173828125	0.00833333333333333	1	30	0.875	2	1.7802734375
1400.9921875	0.00833333333333333	1	NaN	-2.45833333333333	2	2.4052734375
1405.9501953125	0.00833333333333333	1	NaN	-2.58333333333333	2	3.2080078125
1411.68359375	0.00833333333333333	1	NaN	-1.70833333333333	2	1.2666015625
1415.3173828125	0.00833333333333333	1	NaN	-2.70833333333333	2	1.48828125
1419.0087890625	0.00833333333333333	1	NaN	-1.83333333333333	2	1.333984375
1422.5654296875	0.00833333333333333	1	-30	-7.70833333333333	1	1.0888671875
1425.841796875	0.00833333333333333	1	NaN	-1.95833333333333	1	1.396484375
1429.6669921875	0.00833333333333333	1	30	0.75	1	1.6513671875
1433.408203125	0.00833333333333333	1	-30	-7.58333333333333	1	2.7109375
1438.2001953125	0.00833333333333333	1	30	0.875	2	1.57421875
1441.9912109375	0.00833333333333333	1	30	1.5	1	1.9677734375
1446.158203125	0.00833333333333333	1	30	0.75	2	1.056640625
1449.7158203125	0.00833333333333333	1	-30	-7.45833333333333	1	1.3876953125
1546.08984375	0.00833333333333333	1	30	0.625	1	1.080078125
1549.5654296875	0.00833333333333333	1	NaN	-2.83333333333333	1	0.716796875
1552.46484375	0.00833333333333333	1	30	0.75	2	1.4814453125
1556.056640625	0.00833333333333333	1	NaN	-2.70833333333333	1	0.74609375
1559.2646484375	0.00833333333333333	1	-30	-7.33333333333333	2	1.4580078125
1563.33984375	0.00833333333333333	1	NaN	-2.58333333333333	1	0.6474609375
1566.40625	0.00833333333333333	1	-30	-7.45833333333333	1	0.7255859375
1569.2802734375	0.00833333333333333	1	-30	-7.33333333333333	1	0.9306640625
1572.505859375	0.00833333333333333	1	-30	-7.20833333333333	2	1.8173828125
1576.8896484375	0.00833333333333333	1	NaN	-1.83333333333333	2	2.337890625
1581.3974609375	0.00833333333333333	1	NaN	-1.95833333333333	1	1.0859375
1584.6474609375	0.00833333333333333	1	NaN	-1.83333333333333	1	0.892578125
1588.0390625	0.00833333333333333	1	30	1.625	1	2.5888671875
1593.08984375	0.00833333333333333	1	30	0.625	2	1.2744140625
1596.8564453125	0.00833333333333333	1	NaN	-2.45833333333333	1	0.8837890625
1600.064453125	0.00833333333333333	1	30	0.5	2	1.251953125
1603.6728515625	0.00833333333333333	1	30	1.75	2	1.267578125
1607.0810546875	0.00833333333333333	1	NaN	-1.70833333333333	2	1.8115234375
1611.3056640625	0.00833333333333333	1	NaN	-2.33333333333333	1	0.71484375
1614.072265625	0.00833333333333333	1	NaN	-1.83333333333333	2	1.548828125
1618.171875	0.00833333333333333	1	30	0.375	1	0.9443359375
1621.49609375	0.00833333333333333	1	30	0.5	1	2.5087890625
1626.263671875	0.00833333333333333	1	30	0.625	1	1.2216796875
1629.580078125	0.00833333333333333	1	30	1.625	2	1.8251953125
1633.6640625	0.00833333333333333	1	NaN	-1.95833333333333	1	1.533203125
1637.6640625	0.00833333333333333	1	NaN	-2.20833333333333	1	0.765625
1640.8466796875	0.00833333333333333	1	NaN	-2.08333333333333	1	4.046875
1647.36328125	0.00833333333333333	1	NaN	-1.95833333333333	1	1.498046875
1651.1298828125	0.00833333333333333	1	30	1.5	1	2.33984375
1655.5966796875	0.00833333333333333	1	NaN	-1.83333333333333	1	3.5849609375
1661.671875	0.00833333333333333	1	30	0.75	1	0.91796875
1664.6376953125	0.00833333333333333	1	30	0.875	1	0.912109375
1667.62890625	0.00833333333333333	1	NaN	-1.83333333333333	2	1.033203125
1670.962890625	0.00833333333333333	1	30	1	1	1.9638671875
1675.1552734375	0.00833333333333333	1	NaN	-1.70833333333333	2	2.7548828125
1680.36328125	0.00833333333333333	1	30	1.125	2	1.7392578125
1684.5546875	0.00833333333333333	1	NaN	-1.83333333333333	2	0.9326171875
1687.6630859375	0.00833333333333333	1	NaN	-1.95833333333333	2	0.8720703125
1690.6123046875	0.00833333333333333	1	NaN	-2.08333333333333	2	0.73046875
1693.74609375	0.00833333333333333	1	NaN	-2.20833333333333	2	0.94140625
1696.896484375	0.00833333333333333	1	30	1.625	2	1.2705078125
1700.4541015625	0.00833333333333333	1	30	1.5	2	0.76953125
1703.62109375	0.00833333333333333	1	NaN	-2.33333333333333	2	3.658203125
1709.6123046875	0.00833333333333333	1	NaN	-2.45833333333333	1	2.859375
1714.6962890625	0.00833333333333333	1	NaN	-2.33333333333333	2	2.3994140625
1719.470703125	0.00833333333333333	1	NaN	-2.45833333333333	1	3.2890625
1725.1875	0.00833333333333333	1	30	1.375	1	0.9404296875
1728.2294921875	0.00833333333333333	1	NaN	-2.33333333333333	2	0.9228515625
1731.5126953125	0.00833333333333333	1	NaN	-2.45833333333333	2	0.9833984375
1734.62109375	0.00833333333333333	1	NaN	-2.58333333333333	1	1.31640625
1738.3125	0.00833333333333333	1	30	1.5	1	2.6318359375
1743.12890625	0.00833333333333333	1	NaN	-2.45833333333333	2	0.9833984375
1746.5625	0.00833333333333333	1	30	1.625	2	6.4228515625
1755.5703125	0.00833333333333333	1	30	1.5	1	2.4228515625
1760.1455078125	0.00833333333333333	1	30	1.625	2	0.80859375
1763.345703125	0.00833333333333333	0	30	1.1375	2	0.65625
1766.5703125	0.00833333333333333	0	-30	-7.80833333333333	1	0.8076171875
1769.4541015625	0.00833333333333333	0	30	1.1375	2	1.1396484375
1772.861328125	0.00833333333333333	0	-30	-7.80833333333333	1	1.5966796875
1776.7197265625	0.00833333333333333	0	30	1.1375	1	1.162109375
1780.0029296875	0.00833333333333333	0	-30	-7.80833333333333	1	2.5751953125
1784.7119140625	0.00833333333333333	0	30	1.1375	1	2.2587890625
1789.2021484375	0.00833333333333333	0	30	1.1375	1	6.224609375
1797.6025390625	0.00833333333333333	0	30	1.1375	2	5.1044921875
1804.9365234375	0.00833333333333333	0	30	1.1375	2	2.5146484375
1809.986328125	0.00833333333333333	0	-30	-7.80833333333333	1	3.0244140625
1815.3857421875	0.00833333333333333	0	-30	-7.80833333333333	1	1.12109375
1818.9697265625	0.00833333333333333	0	-30	-7.68333333333333	1	1.673828125
1823.0771484375	0.00833333333333333	0	-30	-7.68333333333333	1	2.0546875
1827.52734375	0.00833333333333333	0	-30	-7.68333333333333	1	0.9326171875
1830.90234375	0.00833333333333333	0	30	1.1375	1	4.5810546875
1838.1103515625	0.00833333333333333	0	30	1.1375	1	0.27734375
1840.7939453125	0.00833333333333333	0	-30	-7.68333333333333	1	1.322265625
1844.21875	0.00833333333333333	0	30	1.1375	1	1.79296875
1848.4267578125	0.00833333333333333	0	-30	-7.68333333333333	1	2.345703125
1853.21875	0.00833333333333333	0	-30	-7.55833333333333	1	4.025390625
1859.751953125	0.00833333333333333	0	-30	-7.55833333333333	2	0.8369140625
1863.1435546875	0.00833333333333333	0	30	1.1375	1	3.869140625
1869.2841796875	0.00833333333333333	0	30	1.1375	2	1.80859375
1873.560546875	0.00833333333333333	0	-30	-7.55833333333333	2	2.97265625
1878.8017578125	0.00833333333333333	0	-30	-7.55833333333333	1	2.8271484375
1883.810546875	0.00833333333333333	0	-30	-7.55833333333333	2	4.875
1891.0771484375	0.00833333333333333	0	30	1.1375	2	3.3125
1896.4521484375	0.00833333333333333	0	30	1.1375	1	3.033203125
1901.66015625	0.00833333333333333	0	30	1.1375	2	1.5615234375
1905.693359375	0.00833333333333333	0	-30	-7.55833333333333	2	2.1044921875
1910.9755859375	0.00833333333333333	0	30	1.1375	1	1.294921875
1914.41796875	0.00833333333333333	0	-30	-7.55833333333333	2	1.46875
1918.2265625	0.00833333333333333	0	-30	-7.55833333333333	2	8.8681640625
1929.4599609375	0.00833333333333333	0	30	1.1375	1	2.451171875
1934.0341796875	0.00833333333333333	0	-30	-7.55833333333333	2	0.7646484375
1937.1591796875	0.00833333333333333	0	30	1.1375	2	0.927734375
1940.451171875	0.00833333333333333	0	30	1.1375	2	0.7958984375
1943.3505859375	0.00833333333333333	0	30	1.1375	2	2.873046875
1948.66796875	0.00833333333333333	0	-30	-7.68333333333333	2	5.7158203125
1956.900390625	0.00833333333333333	0	-30	-7.68333333333333	2	3.275390625
1962.326171875	0.00833333333333333	0	30	1.1375	2	10.169921875
1974.734375	0.00833333333333333	0	-30	-7.68333333333333	2	4.6982421875
1981.8251953125	0.00833333333333333	0	-30	-7.68333333333333	2	5.6240234375
1989.7587890625	0.00833333333333333	0	30	1.1375	2	1.5380859375
1993.3173828125	0.00833333333333333	0	-30	-7.68333333333333	1	0.8759765625
1996.525390625	0.00833333333333333	0	30	1.0125	2	1.203125
2000.1416015625	0.00833333333333333	0	-30	-7.68333333333333	1	0.947265625
2003.3583984375	0.00833333333333333	0	-30	-7.68333333333333	1	2.107421875
2007.875	0.00833333333333333	0	-30	-7.68333333333333	1	1.1259765625
2011.408203125	0.00833333333333333	0	-30	-7.68333333333333	1	1.017578125
2014.6494140625	0.00833333333333333	0	-30	-7.55833333333333	1	0.8330078125
2017.81640625	0.00833333333333333	0	30	1.0125	2	2.7294921875
2022.6328125	0.00833333333333333	0	-30	-7.55833333333333	1	1.44140625
2026.158203125	0.00833333333333333	0	30	1.0125	1	0.0361328125
2028.5830078125	0.00833333333333333	0	-30	-7.55833333333333	1	4.5712890625
2035.474609375	0.00833333333333333	0	-30	-7.55833333333333	2	0.86328125
2038.6162109375	0.00833333333333333	0	-30	-7.55833333333333	1	3.8583984375
2044.96484375	0.00833333333333333	0	30	1.0125	1	1.2939453125
2048.3330078125	0.00833333333333333	0	-30	-7.55833333333333	1	1.173828125
2051.57421875	0.00833333333333333	0	30	1.0125	1	0.884765625
2054.7744140625	0.00833333333333333	0	30	1.0125	1	1.1083984375
2058.166015625	0.00833333333333333	0	30	1.0125	1	2.685546875
2063.291015625	0.00833333333333333	0	30	1.1375	1	3.5283203125
2069.2490234375	0.00833333333333333	0	30	1.1375	2	4.875
2076.5654296875	0.00833333333333333	0	-30	-7.55833333333333	1	1.0224609375
2080.056640625	0.00833333333333333	0	-30	-7.55833333333333	1	0.8349609375
2083.423828125	0.00833333333333333	0	-30	-7.55833333333333	2	0.8203125
2086.57421875	0.00833333333333333	0	30	1.1375	1	0.75
2089.666015625	0.00833333333333333	0	-30	-7.55833333333333	1	2.3623046875
2094.4990234375	0.00833333333333333	0	-30	-7.55833333333333	1	1.10546875
2098.0654296875	0.00833333333333333	0	30	1.1375	2	7.4912109375
2108.048828125	0.00833333333333333	0	-30	-7.55833333333333	1	0.7880859375
2111.365234375	0.00833333333333333	0	30	1.1375	2	1.7197265625
2115.2060546875	0.00833333333333333	0	-30	-7.55833333333333	1	0.8466796875
2118.2568359375	0.00833333333333333	0	30	1.1375	2	14.7724609375
2135.3564453125	0.00833333333333333	0	30	1.1375	1	0.78515625
2138.3896484375	0.00833333333333333	0	30	1.1375	1	0.6396484375
2141.439453125	0.00833333333333333	0	30	1.1375	1	1.1181640625
2144.6650390625	0.00833333333333333	0	-30	-7.55833333333333	2	2.197265625
2264.2958984375	0.00833333333333333	0	30	1.1375	2	0.009765625
2266.3125	0.00833333333333333	0	30	1.1375	2	0.857421875
2269.7548828125	0.00833333333333333	0	-30	-7.55833333333333	1	0.9990234375
2273.3046875	0.00833333333333333	0	30	1.1375	1	0.6494140625
2276.154296875	0.00833333333333333	0	30	1.1375	1	0.6875
2278.919921875	0.00833333333333333	0	-30	-7.55833333333333	1	0.978515625
2282.078125	0.00833333333333333	0	-30	-7.55833333333333	1	0.65234375
2284.8955078125	0.00833333333333333	0	-30	-7.55833333333333	1	0.71484375
2287.919921875	0.00833333333333333	0	-30	-7.55833333333333	1	0.72265625
2290.904296875	0.00833333333333333	0	30	1.1375	1	0.673828125
2293.794921875	0.00833333333333333	0	-30	-7.43333333333333	1	0.6875
2296.8623046875	0.00833333333333333	0	-30	-7.43333333333333	1	0.716796875
2299.74609375	0.00833333333333333	0	30	1.1375	1	0.78515625
2302.8291015625	0.00833333333333333	0	-30	-7.43333333333333	2	0.822265625
2305.9873046875	0.00833333333333333	0	30	1.1375	1	0.8798828125
2309.37890625	0.00833333333333333	0	30	1.2625	1	0.82421875
2312.662109375	0.00833333333333333	0	30	1.2625	1	0.861328125
2315.99609375	0.00833333333333333	0	30	1.2625	1	1.630859375
2319.853515625	0.00833333333333333	0	30	1.2625	1	0.75
2322.9951171875	0.00833333333333333	0	30	1.2625	1	0.6650390625
2326.1455078125	0.00833333333333333	0	-30	-7.43333333333333	1	0.7060546875
2328.9375	0.00833333333333333	0	-30	-7.43333333333333	1	0.8349609375
2332.1953125	0.00833333333333333	0	-30	-7.43333333333333	1	1.0244140625
2335.4365234375	0.00833333333333333	0	-30	-7.43333333333333	1	0.7353515625
2338.578125	0.00833333333333333	0	30	1.3875	1	1.8818359375
2342.7861328125	0.00833333333333333	0	-30	-7.43333333333333	2	0.8505859375
2346.26953125	0.00833333333333333	0	30	1.3875	2	5.8388671875
2354.353515625	0.00833333333333333	0	30	1.3875	2	2.779296875
2359.2529296875	0.00833333333333333	0	-30	-7.43333333333333	2	4.51953125
2366.3359375	0.00833333333333333	0	30	1.3875	2	1.4931640625
2369.953125	0.00833333333333333	0	-30	-7.43333333333333	2	1.580078125
2373.7197265625	0.00833333333333333	0	-30	-7.43333333333333	2	1.25390625
2377.01953125	0.00833333333333333	0	-30	-7.43333333333333	2	1.001953125
2380.544921875	0.00833333333333333	0	-30	-7.55833333333333	2	1.1650390625
2383.9609375	0.00833333333333333	0	30	1.3875	2	0.98046875
2387.361328125	0.00833333333333333	0	-30	-7.55833333333333	1	1.388671875
2391.0859375	0.00833333333333333	0	30	1.3875	1	0.8955078125
2394.3447265625	0.00833333333333333	0	30	1.3875	2	0.94140625
2397.828125	0.00833333333333333	0	30	1.3875	2	0.9775390625
2401.060546875	0.00833333333333333	0	30	1.3875	2	0.9541015625
2404.3779296875	0.00833333333333333	0	30	1.3875	2	3.3330078125
2409.9853515625	0.00833333333333333	0	-30	-7.55833333333333	2	0.9892578125
2413.494140625	0.00833333333333333	0	30	1.3875	1	1.5126953125
2417.3359375	0.00833333333333333	0	30	1.3875	2	1.3193359375
2420.8681640625	0.00833333333333333	0	-30	-7.55833333333333	2	1.1943359375
2424.4443359375	0.00833333333333333	0	30	1.3875	2	0.955078125
2427.52734375	0.00833333333333333	0	30	1.3875	2	1.0078125
2431.009765625	0.00833333333333333	0	30	1.3875	2	0.845703125
2434.2939453125	0.00833333333333333	0	30	1.3875	2	0.865234375
2437.21875	0.00833333333333333	0	-30	-7.55833333333333	2	1.0126953125
2440.3271484375	0.00833333333333333	0	30	1.2625	2	1.080078125
2443.8935546875	0.00833333333333333	0	-30	-7.55833333333333	2	1.314453125
2447.4765625	0.00833333333333333	0	-30	-7.55833333333333	2	0.771484375
2450.6015625	0.00833333333333333	0	-30	-7.68333333333333	2	2.0224609375
2454.90234375	0.00833333333333333	0	-30	-7.68333333333333	2	0.9853515625
2458.400390625	0.00833333333333333	0	-30	-7.68333333333333	2	3.935546875
2464.7099609375	0.00833333333333333	0	-30	-7.68333333333333	2	1.25
2468.1435546875	0.00833333333333333	0	30	1.2625	2	0.8408203125
2471.1015625	0.00833333333333333	0	30	1.2625	2	1.4912109375
2474.9599609375	0.00833333333333333	0	-30	-7.68333333333333	2	6.2490234375
2483.568359375	0.00833333333333333	0	-30	-7.80833333333333	2	0.9208984375
2486.6845703125	0.00833333333333333	0	-30	-7.80833333333333	2	0.908203125
2490.1171875	0.00833333333333333	0	-30	-7.80833333333333	2	1.01171875
2493.55859375	0.00833333333333333	0	-30	-7.80833333333333	2	1.275390625
2497.0849609375	0.00833333333333333	0	30	1.2625	1	1.8046875
2501.3671875	0.00833333333333333	0	30	1.2625	1	1.1142578125
2504.7763671875	0.00833333333333333	0	-30	-7.80833333333333	1	0.8408203125
2507.6923828125	0.00833333333333333	0	-30	-7.80833333333333	1	1.0048828125
2511.2255859375	0.00833333333333333	0	-30	-7.80833333333333	1	0.904296875
2514.234375	0.00833333333333333	0	-30	-7.80833333333333	1	1.359375
2517.6923828125	0.00833333333333333	0	-30	-7.80833333333333	1	0.765625
2520.9345703125	0.00833333333333333	0	-30	-7.68333333333333	1	2.443359375
2525.5673828125	0.00833333333333333	0	-30	-7.68333333333333	2	3.9150390625
2531.9921875	0.00833333333333333	0	30	1.2625	2	1.578125
2535.658203125	0.00833333333333333	0	30	1.2625	1	3.4169921875
2541.341796875	0.00833333333333333	0	-30	-7.68333333333333	2	2.9248046875
2546.400390625	0.00833333333333333	0	30	1.2625	2	0.9306640625
2549.5087890625	0.00833333333333333	0	-30	-7.68333333333333	2	0.91015625
2552.8583984375	0.00833333333333333	0	-30	-7.68333333333333	2	0.625
2555.7841796875	0.00833333333333333	0	-30	-7.68333333333333	2	0.8115234375
2601.0166015625	0.00833333333333333	0	30	1.2625	2	1.068359375
2604.166015625	0.00833333333333333	0	-30	-7.80833333333333	2	1.6552734375
2608.125	0.00833333333333333	0	30	1.2625	2	1.072265625
2611.3916015625	0.00833333333333333	0	30	1.2625	1	1.0693359375
2614.5986328125	0.00833333333333333	0	30	1.2625	2	1.0302734375
2617.8076171875	0.00833333333333333	0	30	1.2625	2	1.8857421875
2621.974609375	0.00833333333333333	0	-30	-7.80833333333333	1	1.126953125
2625.32421875	0.00833333333333333	0	30	1.2625	2	1.513671875
2629.2490234375	0.00833333333333333	0	-30	-7.80833333333333	2	0.97265625
2632.7822265625	0.00833333333333333	0	-30	-7.80833333333333	2	0.984375
2635.873046875	0.00833333333333333	0	30	1.2625	2	1.060546875
2639.0576171875	0.00833333333333333	0	-30	-7.80833333333333	2	0.828125
2641.9912109375	0.00833333333333333	0	-30	-7.80833333333333	2	0.7265625
2645.1318359375	0.00833333333333333	0	-30	-7.80833333333333	2	0.474609375
2647.857421875	0.00833333333333333	0	30	1.2625	1	0.533203125
2650.857421875	0.00833333333333333	0	30	1.2625	1	0.6611328125
2653.7236328125	0.00833333333333333	0	30	1.2625	1	0.546875
2656.83203125	0.00833333333333333	0	30	1.2625	1	0.5830078125
2659.765625	0.00833333333333333	0	30	1.2625	1	0.521484375
2662.4990234375	0.00833333333333333	0	30	1.3875	1	0.65234375
2665.4990234375	0.00833333333333333	0	-30	-7.93333333333333	1	0.67578125
2668.44921875	0.00833333333333333	0	30	1.3875	1	0.453125
2671.390625	0.00833333333333333	0	-30	-7.93333333333333	1	0.552734375
2674.3154296875	0.00833333333333333	0	30	1.3875	1	0.443359375
2677.1064453125	0.00833333333333333	0	-30	-7.93333333333333	1	0.4853515625
2679.9736328125	0.00833333333333333	0	30	1.3875	1	0.8740234375
2683.1484375	0.00833333333333333	0	30	1.3875	1	0.626953125
2685.939453125	0.00833333333333333	0	30	1.5125	1	0.65234375
2688.6318359375	0.00833333333333333	0	30	1.5125	1	0.583984375
2691.5068359375	0.00833333333333333	0	-30	-7.93333333333333	1	0.6611328125
2694.33984375	0.00833333333333333	0	-30	-7.93333333333333	1	0.84375
2697.3818359375	0.00833333333333333	0	30	1.5125	1	0.5146484375
2699.95703125	0.00833333333333333	0	30	1.5125	1	0.5146484375
2702.7236328125	0.00833333333333333	0	30	1.5125	1	0.4921875
2705.4150390625	0.00833333333333333	0	-30	-7.80833333333333	1	1.7529296875
2709.6064453125	0.00833333333333333	0	30	1.6375	1	0.5615234375
2712.5732421875	0.00833333333333333	0	-30	-7.80833333333333	1	0.619140625
2715.40625	0.00833333333333333	0	30	1.6375	1	0.474609375
2718.0302734375	0.00833333333333333	0	-30	-7.80833333333333	1	0.4189453125
2720.5810546875	0.00833333333333333	0	-30	-7.80833333333333	1	0.37109375
2723.3232421875	0.00833333333333333	0	-30	-7.80833333333333	1	0.869140625
2726.71484375	0.00833333333333333	0	-30	-7.68333333333333	1	0.677734375
2729.72265625	0.00833333333333333	0	-30	-7.68333333333333	1	0.837890625
2732.6982421875	0.00833333333333333	0	-30	-7.68333333333333	1	1.447265625
2736.2314453125	0.00833333333333333	0	30	1.6375	1	1.1220703125
2739.47265625	0.00833333333333333	0	30	1.6375	1	1.12890625
2743.0810546875	0.00833333333333333	0	30	1.6375	1	1.7841796875
2747.1064453125	0.00833333333333333	0	30	1.7625	1	0.703125
2750.0302734375	0.00833333333333333	0	30	1.7625	1	0.794921875
2753.0712890625	0.00833333333333333	0	30	1.7625	1	0.71484375
2755.98046875	0.00833333333333333	0	30	1.7625	1	0.701171875
2758.8720703125	0.00833333333333333	0	30	1.7625	2	0.74609375
2762.005859375	0.00833333333333333	0	30	1.7625	1	1.5078125
2765.8974609375	0.00833333333333333	0	-30	-7.68333333333333	1	1.9365234375
2770.2392578125	0.00833333333333333	0	30	1.7625	2	1.6025390625
2773.9560546875	0.00833333333333333	0	30	1.7625	2	1.5986328125
2778.1376953125	0.00833333333333333	0	-30	-7.68333333333333	2	4.1689453125
2784.6806640625	0.00833333333333333	0	30	1.7625	2	0.9384765625
2787.7041015625	0.00833333333333333	0	30	1.7625	2	0.8505859375
2790.6630859375	0.00833333333333333	0	30	1.7625	2	0.771484375
2793.85546875	0.00833333333333333	0	30	1.6375	2	0.8994140625
2796.8466796875	0.00833333333333333	0	30	1.6375	2	1.572265625
2800.4638671875	0.00833333333333333	0	-30	-7.68333333333333	2	0.8271484375
2803.595703125	0.00833333333333333	0	30	1.6375	2	0.8798828125
2806.48046875	0.00833333333333333	0	30	1.6375	2	1.04296875
2809.6630859375	0.00833333333333333	0	30	1.6375	2	0.724609375
2812.888671875	0.00833333333333333	0	-30	-7.68333333333333	2	0.9228515625
2816.12109375	0.00833333333333333	0	30	1.5125	2	2.6591796875
2821.2216796875	0.00833333333333333	0	30	1.5125	2	0.837890625
2824.3046875	0.00833333333333333	0	-30	-7.68333333333333	2	0.939453125
2827.4384765625	0.00833333333333333	0	30	1.5125	2	0.7978515625
2830.5126953125	0.00833333333333333	0	30	1.5125	1	1.5556640625
2834.5380859375	0.00833333333333333	0	-30	-7.68333333333333	2	0.9140625
2837.9716796875	0.00833333333333333	0	30	1.5125	2	0.7607421875
2840.9716796875	0.00833333333333333	0	-30	-7.80833333333333	2	0.8408203125
2844.11328125	0.00833333333333333	0	30	1.5125	2	0.8193359375
2847.23828125	0.00833333333333333	0	-30	-7.80833333333333	2	0.798828125
2850.345703125	0.00833333333333333	0	-30	-7.80833333333333	1	1.2666015625
2853.962890625	0.00833333333333333	0	-30	-7.80833333333333	2	6.6259765625
2862.8046875	0.00833333333333333	0	30	1.5125	2	7.0244140625
2936.294921875	0.00833333333333333	0	30	1.5125	2	0.7529296875
2939.3603515625	0.00833333333333333	0	-30	-7.80833333333333	1	0.607421875
2942.1279296875	0.00833333333333333	0	30	1.5125	1	0.80859375
2945.453125	0.00833333333333333	0	30	1.5125	1	0.70703125
2948.39453125	0.00833333333333333	0	-30	-7.80833333333333	1	0.6376953125
2951.51171875	0.00833333333333333	0	30	1.5125	1	0.8486328125
2954.677734375	0.00833333333333333	0	30	1.5125	1	0.5947265625
2957.8359375	0.00833333333333333	0	30	1.5125	1	0.63671875
2960.986328125	0.00833333333333333	0	-30	-7.80833333333333	1	0.58984375
2963.7275390625	0.00833333333333333	0	30	1.6375	1	0.7529296875
2966.8779296875	0.00833333333333333	0	30	1.6375	1	0.6748046875
2970.02734375	0.00833333333333333	0	30	1.6375	1	0.4775390625
2972.6611328125	0.00833333333333333	0	-30	-7.80833333333333	1	0.5634765625
2975.3271484375	0.00833333333333333	0	30	1.6375	1	0.41015625
2977.9609375	0.00833333333333333	0	30	1.6375	1	0.5517578125
2980.64453125	0.00833333333333333	0	30	1.7625	1	0.572265625
2983.46875	0.00833333333333333	0	30	1.7625	1	0.4765625
2986.2177734375	0.00833333333333333	0	30	1.7625	1	0.439453125
2988.8271484375	0.00833333333333333	0	-30	-7.80833333333333	1	1.4541015625
2992.7021484375	0.00833333333333333	0	30	1.7625	1	0.939453125
2996.1025390625	0.00833333333333333	0	-30	-7.68333333333333	1	0.5869140625
2999.001953125	0.00833333333333333	0	30	1.7625	1	1.0400390625
3002.251953125	0.00833333333333333	0	30	1.8875	1	1.61328125
3005.884765625	0.00833333333333333	0	-30	-7.68333333333333	1	0.6611328125
3008.7109375	0.00833333333333333	0	30	1.8875	1	0.6357421875
3011.5595703125	0.00833333333333333	0	30	1.8875	1	0.5859375
3014.4189453125	0.00833333333333333	0	-30	-7.68333333333333	1	0.6630859375
3017.3603515625	0.00833333333333333	0	30	1.8875	1	0.642578125
3020.185546875	0.00833333333333333	0	-30	-7.68333333333333	1	0.7294921875
3023.3681640625	0.00833333333333333	0	-30	-7.68333333333333	1	0.5302734375
3026.42578125	0.00833333333333333	0	-30	-7.55833333333333	1	0.46484375
3029.2685546875	0.00833333333333333	0	-30	-7.55833333333333	1	0.5419921875
3032.142578125	0.00833333333333333	0	-30	-7.55833333333333	1	0.580078125
3035.0849609375	0.00833333333333333	0	30	1.8875	1	0.998046875
3038.5849609375	0.00833333333333333	0	30	2.0125	1	0.994140625
3041.9521484375	0.00833333333333333	0	-30	-7.55833333333333	1	1.4033203125
3045.759765625	0.00833333333333333	0	30	2.0125	2	1.8193359375
3049.7685546875	0.00833333333333333	0	-30	-7.55833333333333	1	0.72265625
3052.8515625	0.00833333333333333	0	30	2.0125	1	0.927734375
3055.9013671875	0.00833333333333333	0	-30	-7.43333333333333	1	0.654296875
3058.9853515625	0.00833333333333333	0	-30	-7.43333333333333	1	2.41796875
3063.701171875	0.00833333333333333	0	30	2.0125	1	0.7109375
3066.859375	0.00833333333333333	0	-30	-7.43333333333333	1	0.5927734375
3069.759765625	0.00833333333333333	0	-30	-7.43333333333333	1	0.5322265625
3072.6767578125	0.00833333333333333	0	30	2.0125	1	0.55078125
3075.716796875	0.00833333333333333	0	-30	-7.43333333333333	1	0.51171875
3078.7421875	0.00833333333333333	0	-30	-7.30833333333333	1	0.58203125
3081.509765625	0.00833333333333333	0	-30	-7.30833333333333	1	0.3984375
3084.29296875	0.00833333333333333	0	30	2.0125	1	0.6953125
3087.142578125	0.00833333333333333	0	30	2.0125	1	0.4384765625
3090.017578125	0.00833333333333333	0	30	2.1375	1	0.4345703125
3092.734375	0.00833333333333333	0	-30	-7.30833333333333	1	0.4140625
3095.525390625	0.00833333333333333	0	30	2.1375	1	0.607421875
3098.451171875	0.00833333333333333	0	-30	-7.30833333333333	1	1.0654296875
3101.9423828125	0.00833333333333333	0	30	2.1375	1	1.0224609375
3105.25	0.00833333333333333	0	-30	-7.30833333333333	1	0.794921875
3108.5341796875	0.00833333333333333	0	-30	-7.18333333333333	1	0.630859375
3111.2421875	0.00833333333333333	0	-30	-7.18333333333333	1	0.8515625
3114.6171875	0.00833333333333333	0	30	2.1375	1	1.4765625
3118.3173828125	0.00833333333333333	0	-30	-7.18333333333333	1	0.8876953125
3121.359375	0.00833333333333333	0	-30	-7.18333333333333	2	2.4541015625
3126.3759765625	0.00833333333333333	0	30	2.1375	1	0.9814453125
3129.8994140625	0.00833333333333333	0	-30	-7.18333333333333	1	0.7548828125
3133.1005859375	0.00833333333333333	0	-30	-7.18333333333333	1	0.79296875
3136.30078125	0.00833333333333333	0	30	2.2625	1	0.8017578125
3139.25	0.00833333333333333	0	30	2.2625	1	0.7802734375
3142.4990234375	0.00833333333333333	0	30	2.2625	1	0.5634765625
3145.4501953125	0.00833333333333333	0	30	2.2625	1	0.5322265625
3148.2490234375	0.00833333333333333	0	30	2.2625	1	0.7978515625
3151.5830078125	0.00833333333333333	0	30	2.3875	1	0.5751953125
3154.5166015625	0.00833333333333333	0	30	2.3875	1	0.5625
3157.4658203125	0.00833333333333333	0	30	2.3875	1	0.6611328125
3160.2666015625	0.00833333333333333	0	30	2.3875	1	0.7490234375
3163.140625	0.00833333333333333	0	30	2.3875	1	0.5224609375
3165.9169921875	0.00833333333333333	0	30	2.5125	1	0.4736328125
3168.673828125	0.00833333333333333	0	-30	-7.18333333333333	1	0.533203125
3171.541015625	0.00833333333333333	0	-30	-7.18333333333333	1	0.5634765625
3174.3740234375	0.00833333333333333	0	-30	-7.18333333333333	1	0.609375
3177.423828125	0.00833333333333333	0	30	2.5125	2	0.9521484375
3180.56640625	0.00833333333333333	0	30	2.5125	1	0.6650390625
3238.9072265625	0.00833333333333333	0	30	2.5125	1	0.638671875
3242.0234375	0.00833333333333333	0	30	2.5125	2	1.3623046875
3245.9990234375	0.00833333333333333	0	-30	-7.05833333333333	2	0.73828125
3249.240234375	0.00833333333333333	0	-30	-7.05833333333333	2	0.6416015625
3252.265625	0.00833333333333333	0	30	2.5125	2	1.1201171875
3255.5986328125	0.00833333333333333	0	-30	-7.05833333333333	2	1.099609375
3259.1728515625	0.00833333333333333	0	30	2.5125	2	0.8134765625
3262.306640625	0.00833333333333333	0	30	2.5125	1	0.703125
3265.2646484375	0.00833333333333333	0	30	2.5125	1	1.162109375
3268.6064453125	0.00833333333333333	0	-30	-7.05833333333333	1	0.8603515625
3271.6982421875	0.00833333333333333	0	-30	-7.05833333333333	2	1.064453125
3275.048828125	0.00833333333333333	0	-30	-7.05833333333333	1	0.7939453125
3278.130859375	0.00833333333333333	0	30	2.5125	2	1.0078125
3281.7392578125	0.00833333333333333	0	-30	-7.05833333333333	2	1.095703125
3284.9560546875	0.00833333333333333	0	-30	-7.05833333333333	2	1.3828125
3288.615234375	0.00833333333333333	0	30	2.5125	2	0.908203125
3291.6640625	0.00833333333333333	0	-30	-7.05833333333333	2	1.02734375
3294.8466796875	0.00833333333333333	0	-30	-7.05833333333333	2	0.9091796875
3297.8642578125	0.00833333333333333	0	-30	-7.05833333333333	2	0.8671875
3301.005859375	0.00833333333333333	0	30	2.5125	2	1.150390625
3304.6396484375	0.00833333333333333	0	-30	-7.18333333333333	2	0.6767578125
3307.630859375	0.00833333333333333	0	30	2.5125	2	0.716796875
3310.763671875	0.00833333333333333	0	-30	-7.18333333333333	2	1.263671875
3314.4306640625	0.00833333333333333	0	30	2.5125	2	0.7890625
3317.7392578125	0.00833333333333333	0	-30	-7.18333333333333	2	0.728515625
3320.955078125	0.00833333333333333	0	-30	-7.18333333333333	2	0.712890625
3323.8310546875	0.00833333333333333	0	30	2.3875	2	0.765625
3326.97265625	0.00833333333333333	0	-30	-7.18333333333333	2	0.8232421875
3330.28125	0.00833333333333333	0	-30	-7.30833333333333	2	0.634765625
3333.0556640625	0.00833333333333333	0	-30	-7.30833333333333	2	0.7568359375
3336.1552734375	0.00833333333333333	0	30	2.3875	2	0.5302734375
3339.271484375	0.00833333333333333	0	-30	-7.30833333333333	2	0.9658203125
3342.6796875	0.00833333333333333	0	-30	-7.30833333333333	2	0.59765625
3345.3720703125	0.00833333333333333	0	30	2.3875	2	0.697265625
3348.3046875	0.00833333333333333	0	30	2.3875	2	1.33203125
3352.046875	0.00833333333333333	0	-30	-7.30833333333333	2	0.7421875
3354.99609375	0.00833333333333333	0	-30	-7.43333333333333	2	0.6728515625
3357.9716796875	0.00833333333333333	0	-30	-7.43333333333333	2	0.6826171875
3361.0556640625	0.00833333333333333	0	-30	-7.43333333333333	2	3.3740234375
3366.630859375	0.00833333333333333	0	30	2.3875	2	0.8232421875
3369.904296875	0.00833333333333333	0	-30	-7.43333333333333	2	4.1572265625
3376.3798828125	0.00833333333333333	0	-30	-7.43333333333333	2	0.689453125
3379.35546875	0.00833333333333333	0	-30	-7.55833333333333	2	1.3544921875
3383.046875	0.00833333333333333	0	-30	-7.55833333333333	2	0.615234375
3385.9970703125	0.00833333333333333	0	-30	-7.55833333333333	1	1.2490234375
3389.388671875	0.00833333333333333	0	30	2.2625	2	1.017578125
3392.580078125	0.00833333333333333	0	30	2.2625	1	1.1064453125
3395.87109375	0.00833333333333333	0	30	2.2625	2	0.8876953125
3399.1796875	0.00833333333333333	0	-30	-7.55833333333333	2	1.1875
3402.5546875	0.00833333333333333	0	30	2.2625	1	1.068359375
3406.1884765625	0.00833333333333333	0	30	2.2625	1	0.8427734375
3409.279296875	0.00833333333333333	0	-30	-7.55833333333333	1	0.81640625
3412.6875	0.00833333333333333	0	-30	-7.55833333333333	1	0.7197265625
3415.8544921875	0.00833333333333333	0	30	2.2625	1	0.728515625
3418.86328125	0.00833333333333333	0	-30	-7.55833333333333	1	0.767578125
3421.962890625	0.00833333333333333	0	-30	-7.55833333333333	1	0.7724609375
3425.2548828125	0.00833333333333333	0	-30	-7.55833333333333	2	3.4482421875
3431.0625	0.00833333333333333	0	-30	-7.55833333333333	2	0.193359375
3433.75390625	0.00833333333333333	0	-30	-7.55833333333333	1	1.0537109375
3436.9541015625	0.00833333333333333	0	30	2.2625	1	0.8134765625
3439.9794921875	0.00833333333333333	0	30	2.2625	1	0.62890625
3443.0361328125	0.00833333333333333	0	30	2.3875	1	0.6123046875
3446.0205078125	0.00833333333333333	0	-30	-7.55833333333333	1	0.8115234375
3449.1455078125	0.00833333333333333	0	-30	-7.55833333333333	1	0.646484375
3452.1611328125	0.00833333333333333	0	-30	-7.55833333333333	1	0.9833984375
3455.552734375	0.00833333333333333	0	-30	-7.55833333333333	1	1.2314453125
3459.162109375	0.00833333333333333	0	-30	-7.43333333333333	1	0.6630859375
3462.103515625	0.00833333333333333	0	-30	-7.43333333333333	1	0.6015625
3465.1123046875	0.00833333333333333	0	30	2.3875	1	0.5927734375
3467.8037109375	0.00833333333333333	0	-30	-7.43333333333333	1	0.6689453125
3470.6201171875	0.00833333333333333	0	-30	-7.43333333333333	1	0.6533203125
3473.8037109375	0.00833333333333333	0	-30	-7.43333333333333	1	1.044921875
3476.9111328125	0.00833333333333333	0	30	2.3875	2	2.666015625
3482.095703125	0.00833333333333333	0	-30	-7.30833333333333	1	0.9462890625
3485.203125	0.00833333333333333	0	-30	-7.30833333333333	2	2.9501953125
3490.5361328125	0.00833333333333333	0	30	2.3875	1	0.689453125
3493.51171875	0.00833333333333333	0	-30	-7.30833333333333	1	2.4345703125
3498.328125	0.00833333333333333	0	-30	-7.30833333333333	1	0.74609375
3501.25390625	0.00833333333333333	0	30	2.3875	1	1.4365234375
3504.9033203125	0.00833333333333333	0	30	2.3875	1	0.875
3630.775390625	0.00833333333333333	0	-30	-7.30833333333333	2	1.2314453125
3634.2587890625	0.00833333333333333	0	30	2.3875	1	1.00390625
3637.80078125	0.00833333333333333	0	30	2.3875	1	0.6298828125
3640.875	0.00833333333333333	0	-30	-7.30833333333333	1	0.626953125
3643.8671875	0.00833333333333333	0	-30	-7.30833333333333	1	0.68359375
3647.033203125	0.00833333333333333	0	30	2.5125	1	1.013671875
3650.44140625	0.00833333333333333	0	30	2.5125	1	0.6611328125
3653.4921875	0.00833333333333333	0	-30	-7.30833333333333	1	0.8271484375
3656.599609375	0.00833333333333333	0	-30	-7.30833333333333	2	0.8388671875
3659.650390625	0.00833333333333333	0	-30	-7.30833333333333	1	0.6611328125
3662.8671875	0.00833333333333333	0	30	2.5125	1	0.9404296875
3666.091796875	0.00833333333333333	0	-30	-7.30833333333333	1	1.35546875
3669.7578125	0.00833333333333333	0	-30	-7.30833333333333	1	4.0654296875
3676.3916015625	0.00833333333333333	0	30	2.5125	1	0.7919921875
3679.68359375	0.00833333333333333	0	-30	-7.30833333333333	1	1.0126953125
3682.833984375	0.00833333333333333	0	30	2.5125	1	0.662109375
3685.9833984375	0.00833333333333333	0	30	2.6375	1	3.9931640625
3692.17578125	0.00833333333333333	0	-30	-7.30833333333333	1	0.6240234375
3695.1162109375	0.00833333333333333	0	-30	-7.18333333333333	2	1.236328125
3698.93359375	0.00833333333333333	0	-30	-7.18333333333333	1	0.7548828125
3701.8828125	0.00833333333333333	0	-30	-7.18333333333333	1	1.0458984375
3705.416015625	0.00833333333333333	0	30	2.6375	1	2.9287109375
3710.69140625	0.00833333333333333	0	30	2.6375	2	0.8056640625
3714.0244140625	0.00833333333333333	0	-30	-7.18333333333333	2	0.8486328125
3717.1826171875	0.00833333333333333	0	30	2.6375	2	1.130859375
3720.6162109375	0.00833333333333333	0	30	2.6375	2	1.9609375
3724.673828125	0.00833333333333333	0	30	2.6375	2	0.83203125
3727.9326171875	0.00833333333333333	0	-30	-7.18333333333333	2	0.8125
3730.857421875	0.00833333333333333	0	30	2.6375	2	1.14453125
3734.44921875	0.00833333333333333	0	30	2.5125	2	0.8720703125
3737.8818359375	0.00833333333333333	0	-30	-7.18333333333333	1	0.767578125
3741.20703125	0.00833333333333333	0	30	2.5125	2	0.71484375
3744.0986328125	0.00833333333333333	0	30	2.5125	1	0.87890625
3747.5	0.00833333333333333	0	30	2.5125	2	0.845703125
3750.6484375	0.00833333333333333	0	-30	-7.18333333333333	1	0.7060546875
3753.9736328125	0.00833333333333333	0	-30	-7.18333333333333	1	1.125
3757.423828125	0.00833333333333333	0	-30	-7.18333333333333	1	0.9140625
3760.5078125	0.00833333333333333	0	30	2.5125	1	1.7744140625
3764.6904296875	0.00833333333333333	0	-30	-7.18333333333333	2	1.3203125
3768.4814453125	0.00833333333333333	0	30	2.5125	2	2.10546875
3772.998046875	0.00833333333333333	0	-30	-7.18333333333333	1	0.9248046875
3776.1650390625	0.00833333333333333	0	-30	-7.18333333333333	1	0.8701171875
3779.306640625	0.00833333333333333	0	-30	-7.18333333333333	1	1.1123046875
3783.0654296875	0.00833333333333333	0	-30	-7.18333333333333	1	0.90625
3786.46484375	0.00833333333333333	0	30	2.5125	1	0.833984375
3789.59765625	0.00833333333333333	0	-30	-7.18333333333333	2	5.60546875
3797.755859375	0.00833333333333333	0	30	2.5125	1	0.9033203125
3801.306640625	0.00833333333333333	0	-30	-7.18333333333333	1	1.6015625
3805.4404296875	0.00833333333333333	0	30	2.5125	1	0.794921875
3808.689453125	0.00833333333333333	0	-30	-7.18333333333333	1	0.7861328125
3812.0400390625	0.00833333333333333	0	30	2.5125	1	0.595703125
3815.0390625	0.00833333333333333	0	30	2.5125	1	0.724609375
3818.0322265625	0.00833333333333333	0	-30	-7.18333333333333	1	0.66015625
3820.998046875	0.00833333333333333	0	-30	-7.18333333333333	1	0.7744140625
3824.2646484375	0.00833333333333333	0	-30	-7.18333333333333	1	0.5234375
3826.9970703125	0.00833333333333333	0	30	2.6375	1	0.5595703125
3830.013671875	0.00833333333333333	0	30	2.6375	1	0.4384765625
3832.59765625	0.00833333333333333	0	30	2.6375	1	0.53515625
3835.4482421875	0.00833333333333333	0	-30	-7.05833333333333	1	0.5322265625
3838.564453125	0.00833333333333333	0	-30	-7.05833333333333	1	0.640625
3841.7392578125	0.00833333333333333	0	-30	-7.05833333333333	1	0.5458984375
3844.8388671875	0.00833333333333333	0	-30	-7.05833333333333	1	0.478515625
3847.6552734375	0.00833333333333333	0	30	2.6375	1	0.6220703125
3850.5390625	0.00833333333333333	0	-30	-7.05833333333333	1	0.642578125
3853.421875	0.00833333333333333	0	-30	-6.93333333333333	1	0.455078125
3856.0986328125	0.00833333333333333	0	-30	-6.93333333333333	1	0.474609375
3859.1220703125	0.00833333333333333	0	30	2.6375	1	0.5712890625
3862.10546875	0.00833333333333333	0	30	2.7625	1	0.6201171875
3865.080078125	0.00833333333333333	0	-30	-6.93333333333333	1	0.4619140625
3867.6728515625	0.00833333333333333	0	-30	-6.93333333333333	1	0.5888671875
3870.5224609375	0.00833333333333333	0	30	2.7625	1	0.5556640625
3873.388671875	0.00833333333333333	0	30	2.7625	1	0.44140625
3876.064453125	0.00833333333333333	0	-30	-6.93333333333333	1	0.4697265625
3878.9384765625	0.00833333333333333	0	-30	-6.80833333333333	1	0.6357421875
3881.9130859375	0.00833333333333333	0	30	2.7625	1	1.7412109375
3885.896484375	0.00833333333333333	0	30	2.7625	2	0.646484375
3888.9296875	0.00833333333333333	0	-30	-6.80833333333333	1	1.052734375
3892.388671875	0.00833333333333333	0	30	2.7625	1	1.314453125
3895.86328125	0.00833333333333333	0	30	2.7625	1	0.6630859375
3898.646484375	0.00833333333333333	0	30	2.7625	1	0.8564453125
3909.546875	0.00833333333333333	0	30	2.7625	1	1.068359375
3913.3798828125	0.00833333333333333	0	30	2.7625	2	1.443359375
3917.0380859375	0.00833333333333333	0	-30	-6.80833333333333	2	0.9296875
3920.1796875	0.00833333333333333	0	30	2.7625	2	0.7001953125
3922.9384765625	0.00833333333333333	0	30	2.7625	2	0.6533203125
3925.9794921875	0.00833333333333333	0	-30	-6.80833333333333	2	0.5478515625
3928.9794921875	0.00833333333333333	0	-30	-6.80833333333333	1	0.716796875
3931.7373046875	0.00833333333333333	0	30	2.7625	1	0.56640625
3934.5380859375	0.00833333333333333	0	-30	-6.80833333333333	2	0.7978515625
3937.7880859375	0.00833333333333333	0	30	2.7625	2	0.7724609375
3940.74609375	0.00833333333333333	0	30	2.7625	2	0.56640625
3943.6298828125	0.00833333333333333	0	-30	-6.80833333333333	2	1.0029296875
3946.9541015625	0.00833333333333333	0	30	2.7625	2	0.6142578125
3949.8291015625	0.00833333333333333	0	-30	-6.80833333333333	2	0.6357421875
3952.6962890625	0.00833333333333333	0	30	2.7625	2	0.560546875
3955.7880859375	0.00833333333333333	0	30	2.7625	2	0.62890625
3958.6630859375	0.00833333333333333	0	30	2.6375	2	2.1455078125
3963.2626953125	0.00833333333333333	0	-30	-6.80833333333333	2	0.986328125
3966.48828125	0.00833333333333333	0	-30	-6.80833333333333	2	0.76953125
3969.8291015625	0.00833333333333333	0	-30	-6.93333333333333	2	2.083984375
3974.37890625	0.00833333333333333	0	30	2.6375	2	2.87109375
3979.6787109375	0.00833333333333333	0	30	2.6375	1	1.1142578125
3982.9033203125	0.00833333333333333	0	-30	-6.93333333333333	2	0.9140625
3986.1875	0.00833333333333333	0	-30	-6.93333333333333	2	0.7666015625
3989.12890625	0.00833333333333333	0	30	2.6375	2	1.11328125
3992.845703125	0.00833333333333333	0	-30	-6.93333333333333	1	0.5478515625
3995.76171875	0.00833333333333333	0	-30	-6.93333333333333	1	0.744140625
3998.7451171875	0.00833333333333333	0	30	2.6375	1	0.873046875
4001.845703125	0.00833333333333333	0	30	2.6375	1	0.884765625
4004.87890625	0.00833333333333333	0	30	2.6375	1	0.6435546875
4007.6201171875	0.00833333333333333	0	-30	-6.93333333333333	1	0.7744140625
4010.63671875	0.00833333333333333	0	-30	-6.93333333333333	1	1.0380859375
4013.736328125	0.00833333333333333	0	-30	-6.93333333333333	1	0.5869140625
4016.7451171875	0.00833333333333333	0	30	2.6375	1	0.7060546875
4019.861328125	0.00833333333333333	0	-30	-6.80833333333333	1	0.7890625
4022.853515625	0.00833333333333333	0	-30	-6.80833333333333	1	0.6689453125
4025.5947265625	0.00833333333333333	0	-30	-6.80833333333333	1	0.6484375
4028.611328125	0.00833333333333333	0	30	2.6375	2	0.83984375
4032.0283203125	0.00833333333333333	0	30	2.6375	1	0.6064453125
4034.8115234375	0.00833333333333333	0	-30	-6.80833333333333	2	0.935546875
4037.904296875	0.00833333333333333	0	30	2.6375	2	1.458984375
4041.6357421875	0.00833333333333333	0	-30	-6.80833333333333	1	0.9521484375
4044.802734375	0.00833333333333333	0	-30	-6.80833333333333	1	0.9931640625
4047.986328125	0.00833333333333333	0	-30	-6.80833333333333	1	0.921875
4050.953125	0.00833333333333333	0	30	2.6375	1	0.794921875
4054.287109375	0.00833333333333333	0	-30	-6.80833333333333	1	1.7412109375
4058.1533203125	0.00833333333333333	0	-30	-6.80833333333333	1	0.5546875
4060.8779296875	0.00833333333333333	0	30	2.6375	2	0.8857421875
4063.9443359375	0.00833333333333333	0	30	2.6375	2	0.763671875
4066.9443359375	0.00833333333333333	0	-30	-6.68333333333333	1	1.205078125
4070.2607421875	0.00833333333333333	0	30	2.6375	2	0.912109375
4073.486328125	0.00833333333333333	0	-30	-6.68333333333333	2	0.646484375
4076.5859375	0.00833333333333333	0	-30	-6.68333333333333	2	0.8828125
4079.6103515625	0.00833333333333333	0	-30	-6.68333333333333	2	1.8984375
4084.119140625	0.00833333333333333	0	30	2.6375	2	0.6142578125
4086.876953125	0.00833333333333333	0	30	2.6375	2	1.767578125
4090.9267578125	0.00833333333333333	0	-30	-6.68333333333333	2	0.6787109375
4093.751953125	0.00833333333333333	0	30	2.5125	2	0.94921875
4097.0107421875	0.00833333333333333	0	30	2.5125	2	0.9228515625
4100.27734375	0.00833333333333333	0	-30	-6.68333333333333	2	0.912109375
4103.3271484375	0.00833333333333333	0	30	2.5125	1	1.302734375
4106.861328125	0.00833333333333333	0	-30	-6.80833333333333	2	0.6083984375
4110.03515625	0.00833333333333333	0	30	2.5125	1	1.298828125
4113.7021484375	0.00833333333333333	0	-30	-6.80833333333333	2	2.0478515625
4118.068359375	0.00833333333333333	0	30	2.5125	1	2.9697265625
4123.2685546875	0.00833333333333333	0	30	2.5125	1	0.75390625
4126.318359375	0.00833333333333333	0	-30	-6.80833333333333	2	0.6962890625
4129.3359375	0.00833333333333333	0	30	2.5125	1	1.2626953125
4132.8095703125	0.00833333333333333	0	30	2.6375	1	0.861328125
4135.9599609375	0.00833333333333333	0	30	2.6375	2	0.87890625
4139.16015625	0.00833333333333333	0	30	2.6375	2	0.6064453125
4142.2265625	0.00833333333333333	0	-30	-6.80833333333333	1	0.724609375
4145.443359375	0.00833333333333333	0	30	2.6375	1	3.68359375
4151.310546875	0.00833333333333333	0	-30	-6.80833333333333	1	0.544921875
4153.9765625	0.00833333333333333	0	-30	-6.80833333333333	1	0.5908203125
4156.8759765625	0.00833333333333333	0	30	2.6375	1	0.4599609375
4159.8759765625	0.00833333333333333	0	-30	-6.80833333333333	1	0.4677734375
4162.42578125	0.00833333333333333	0	-30	-6.80833333333333	1	0.7822265625
4165.6591796875	0.00833333333333333	0	30	2.6375	1	0.484375
4168.693359375	0.00833333333333333	0	-30	-6.68333333333333	1	0.5302734375
4209.1171875	0.00833333333333333	0	30	2.6375	2	3.236328125
4214.6416015625	0.00833333333333333	0	-30	-6.68333333333333	2	0.84765625
4217.8916015625	0.00833333333333333	0	30	2.6375	2	0.830078125
4221.04296875	0.00833333333333333	0	30	2.6375	2	0.7021484375
4223.900390625	0.00833333333333333	0	-30	-6.68333333333333	2	0.8369140625
4226.892578125	0.00833333333333333	0	-30	-6.68333333333333	2	0.61328125
4230.0830078125	0.00833333333333333	0	-30	-6.68333333333333	2	0.623046875
4232.8916015625	0.00833333333333333	0	-30	-6.68333333333333	2	0.7177734375
4235.908203125	0.00833333333333333	0	30	2.6375	2	0.7333984375
4239.216796875	0.00833333333333333	0	-30	-6.80833333333333	2	0.880859375
4242.2744140625	0.00833333333333333	0	-30	-6.80833333333333	1	3.408203125
4247.80859375	0.00833333333333333	0	-30	-6.80833333333333	2	1.42578125
4251.55078125	0.00833333333333333	0	30	2.6375	2	0.611328125
4254.5419921875	0.00833333333333333	0	30	2.5125	2	0.5322265625
4257.4248046875	0.00833333333333333	0	30	2.5125	2	0.6015625
4260.6337890625	0.00833333333333333	0	-30	-6.80833333333333	2	0.5205078125
4263.6923828125	0.00833333333333333	0	30	2.5125	2	0.55078125
4266.8583984375	0.00833333333333333	0	-30	-6.80833333333333	2	0.5283203125
4269.44140625	0.00833333333333333	0	-30	-6.80833333333333	2	0.6572265625
4272.55859375	0.00833333333333333	0	-30	-6.80833333333333	2	0.5888671875
4275.3408203125	0.00833333333333333	0	-30	-6.93333333333333	2	0.8623046875
4278.5419921875	0.00833333333333333	0	-30	-6.93333333333333	2	0.57421875
4281.3408203125	0.00833333333333333	0	-30	-6.93333333333333	2	0.7021484375
4284.5908203125	0.00833333333333333	0	30	2.5125	2	0.5322265625
4287.599609375	0.00833333333333333	0	30	2.5125	2	0.64453125
4290.6416015625	0.00833333333333333	0	-30	-6.93333333333333	2	1.1142578125
4294.291015625	0.00833333333333333	0	30	2.3875	2	0.896484375
4297.607421875	0.00833333333333333	0	30	2.3875	2	0.8603515625
4300.69921875	0.00833333333333333	0	30	2.3875	2	1.896484375
4305.0498046875	0.00833333333333333	0	-30	-6.93333333333333	2	0.818359375
4308.4404296875	0.00833333333333333	0	30	2.3875	2	0.771484375
4311.5166015625	0.00833333333333333	0	30	2.3875	2	0.615234375
4314.283203125	0.00833333333333333	0	30	2.2625	1	0.8251953125
4317.5986328125	0.00833333333333333	0	-30	-7.05833333333333	2	0.517578125
4320.5	0.00833333333333333	0	30	2.2625	2	1.0966796875
4324.1494140625	0.00833333333333333	0	-30	-7.05833333333333	2	0.943359375
4327.4736328125	0.00833333333333333	0	30	2.2625	2	1.955078125
4331.6484375	0.00833333333333333	0	-30	-7.05833333333333	2	0.7490234375
4334.7900390625	0.00833333333333333	0	30	2.2625	2	6.8076171875
4344.048828125	0.00833333333333333	0	30	2.2625	2	1.556640625
4348.240234375	0.00833333333333333	0	30	2.2625	2	1.59765625
4352.1396484375	0.00833333333333333	0	-30	-7.05833333333333	2	0.8896484375
4355.21484375	0.00833333333333333	0	-30	-7.05833333333333	1	1.23046875
4358.615234375	0.00833333333333333	0	-30	-7.05833333333333	1	1.5263671875
4362.3896484375	0.00833333333333333	0	-30	-7.05833333333333	2	1.12890625
4365.8486328125	0.00833333333333333	0	-30	-7.05833333333333	1	0.9814453125
4369.2734375	0.00833333333333333	0	-30	-7.05833333333333	2	1.1728515625
4372.97265625	0.00833333333333333	0	-30	-7.05833333333333	1	0.9619140625
4376.4736328125	0.00833333333333333	0	-30	-7.05833333333333	2	6.013671875
4385.0478515625	0.00833333333333333	0	30	2.1375	2	0.951171875
4388.1142578125	0.00833333333333333	0	-30	-7.05833333333333	1	0.8369140625
4391.240234375	0.00833333333333333	0	-30	-7.05833333333333	1	0.87890625
4394.5234375	0.00833333333333333	0	30	2.1375	1	0.7392578125
4397.6396484375	0.00833333333333333	0	-30	-7.05833333333333	1	0.6630859375
4400.4560546875	0.00833333333333333	0	-30	-7.05833333333333	2	1.119140625
4403.9892578125	0.00833333333333333	0	-30	-7.05833333333333	2	0.681640625
4407.1396484375	0.00833333333333333	0	30	2.1375	2	0.931640625
4410.6396484375	0.00833333333333333	0	-30	-7.05833333333333	1	1.2802734375
4414.1728515625	0.00833333333333333	0	-30	-7.05833333333333	1	0.787109375
4417.3642578125	0.00833333333333333	0	-30	-7.05833333333333	2	0.8515625
4420.490234375	0.00833333333333333	0	-30	-7.05833333333333	1	1.005859375
4423.7802734375	0.00833333333333333	0	-30	-7.05833333333333	2	0.595703125
4426.6142578125	0.00833333333333333	0	-30	-7.05833333333333	2	6.5380859375
4435.6552734375	0.00833333333333333	0	-30	-7.05833333333333	2	0.76953125
4438.580078125	0.00833333333333333	0	-30	-7.05833333333333	2	1.33203125
4442.330078125	0.00833333333333333	0	30	2.1375	2	0.7666015625
4445.505859375	0.00833333333333333	0	30	2.1375	2	0.958984375
4448.7802734375	0.00833333333333333	0	30	2.1375	2	0.6201171875
4451.572265625	0.00833333333333333	0	-30	-7.05833333333333	2	1.205078125
4455.3798828125	0.00833333333333333	0	-30	-7.18333333333333	2	0.64453125
4458.296875	0.00833333333333333	0	30	2.1375	2	1.3046875
4461.8798828125	0.00833333333333333	0	30	2.0125	2	0.8017578125
4464.896484375	0.00833333333333333	0	-30	-7.18333333333333	2	0.9609375
4467.98828125	0.00833333333333333	0	-30	-7.18333333333333	2	0.7890625
4471.1474609375	0.00833333333333333	0	30	2.0125	2	0.998046875
4474.3798828125	0.00833333333333333	0	30	2.0125	2	0.6533203125
4477.4296875	0.00833333333333333	0	30	2.0125	2	0.6123046875
4480.1884765625	0.00833333333333333	0	30	2.0125	1	1.453125
4483.830078125	0.00833333333333333	0	30	2.0125	2	1.00390625
4487.2626953125	0.00833333333333333	0	-30	-7.18333333333333	1	6.1318359375
4538.7626953125	0.00833333333333333	0	-30	-7.18333333333333	2	1.2734375
4542.154296875	0.00833333333333333	0	-30	-7.18333333333333	2	0.7939453125
4545.3037109375	0.00833333333333333	0	30	2.0125	2	1.3486328125
4548.9375	0.00833333333333333	0	30	2.0125	2	2.619140625
4554.1298828125	0.00833333333333333	0	30	2.0125	2	1.642578125
4558.2783203125	0.00833333333333333	0	30	2.0125	1	0.7900390625
4561.662109375	0.00833333333333333	0	30	2.0125	2	1.462890625
4565.287109375	0.00833333333333333	0	-30	-7.18333333333333	1	0.94140625
4568.595703125	0.00833333333333333	0	30	2.0125	2	0.849609375
4571.7783203125	0.00833333333333333	0	-30	-7.18333333333333	2	1.8349609375
4575.8369140625	0.00833333333333333	0	30	2.0125	1	1.087890625
4579.203125	0.00833333333333333	0	-30	-7.18333333333333	1	0.9619140625
4582.2783203125	0.00833333333333333	0	-30	-7.18333333333333	2	2.0546875
4586.64453125	0.00833333333333333	0	-30	-7.18333333333333	2	0.8564453125
4589.7861328125	0.00833333333333333	0	-30	-7.18333333333333	2	0.779296875
4592.861328125	0.00833333333333333	0	-30	-7.18333333333333	2	0.560546875
4595.7197265625	0.00833333333333333	0	30	2.0125	2	0.677734375
4598.8115234375	0.00833333333333333	0	30	2.0125	2	0.5458984375
4601.486328125	0.00833333333333333	0	-30	-7.18333333333333	2	0.607421875
4604.611328125	0.00833333333333333	0	30	2.0125	2	0.658203125
4607.8359375	0.00833333333333333	0	30	2.0125	2	1.169921875
4611.25390625	0.00833333333333333	0	-30	-7.30833333333333	2	2.4482421875
4615.9111328125	0.00833333333333333	0	-30	-7.30833333333333	2	1.7587890625
4620.1025390625	0.00833333333333333	0	30	2.0125	1	1.3515625
4623.953125	0.00833333333333333	0	-30	-7.30833333333333	2	0.95703125
4627.169921875	0.00833333333333333	0	30	2.0125	2	0.62109375
4630.3115234375	0.00833333333333333	0	30	2.0125	2	0.6953125
4633.287109375	0.00833333333333333	0	30	2.0125	2	1.0400390625
4636.5947265625	0.00833333333333333	0	-30	-7.30833333333333	2	1.884765625
4640.59375	0.00833333333333333	0	-30	-7.30833333333333	2	3.4208984375
4646.1689453125	0.00833333333333333	0	30	2.0125	1	1.294921875
4649.619140625	0.00833333333333333	0	30	2.0125	2	2.01171875
4653.7109375	0.00833333333333333	0	-30	-7.43333333333333	1	1.8330078125
4657.9853515625	0.00833333333333333	0	30	2.0125	1	1.2705078125
4661.685546875	0.00833333333333333	0	-30	-7.43333333333333	1	7.39453125
4671.2685546875	0.00833333333333333	0	-30	-7.43333333333333	1	1.267578125
4675.0107421875	0.00833333333333333	0	30	2.0125	2	0.685546875
4678.3017578125	0.00833333333333333	0	-30	-7.43333333333333	1	1.5224609375
4681.9189453125	0.00833333333333333	0	30	2.0125	1	0.9375
4685.15234375	0.00833333333333333	0	-30	-7.43333333333333	2	3.2724609375
4690.8271484375	0.00833333333333333	0	30	2.0125	1	1.7978515625
4694.943359375	0.00833333333333333	0	-30	-7.43333333333333	1	1.0732421875
4698.494140625	0.00833333333333333	0	30	2.0125	2	1.2587890625
4702.001953125	0.00833333333333333	0	-30	-7.43333333333333	1	0.791015625
4705.28515625	0.00833333333333333	0	30	2.0125	2	0.900390625
4708.609375	0.00833333333333333	0	-30	-7.43333333333333	1	1.6875
4712.884765625	0.00833333333333333	0	30	2.0125	2	5.6123046875
4720.9765625	0.00833333333333333	0	-30	-7.43333333333333	1	0.78515625
4724.109375	0.00833333333333333	0	-30	-7.43333333333333	1	0.740234375
4727.1767578125	0.00833333333333333	0	-30	-7.30833333333333	1	0.6337890625
4730.2431640625	0.00833333333333333	0	-30	-7.30833333333333	1	0.6630859375
4733.1513671875	0.00833333333333333	0	30	2.0125	1	0.6103515625
4736.0009765625	0.00833333333333333	0	-30	-7.30833333333333	1	0.7373046875
4739.16796875	0.00833333333333333	0	30	2.0125	1	0.650390625
4742.1259765625	0.00833333333333333	0	-30	-7.30833333333333	1	1.1806640625
4745.5849609375	0.00833333333333333	0	30	2.0125	1	0.6572265625
4748.576171875	0.00833333333333333	0	30	2.0125	1	0.6513671875
4751.326171875	0.00833333333333333	0	30	2.0125	1	3.4765625
4757.208984375	0.00833333333333333	0	-30	-7.30833333333333	2	5.0576171875
4764.7919921875	0.00833333333333333	0	-30	-7.30833333333333	1	0.859375
4767.9921875	0.00833333333333333	0	-30	-7.30833333333333	2	2.7548828125
4772.958984375	0.00833333333333333	0	30	2.1375	2	7.8125
4783.18359375	0.00833333333333333	0	-30	-7.30833333333333	1	1.2119140625
4786.54296875	0.00833333333333333	0	30	2.1375	1	0.64453125
4789.4423828125	0.00833333333333333	0	30	2.1375	1	0.6337890625
4792.591796875	0.00833333333333333	0	30	2.1375	1	0.892578125
4795.775390625	0.00833333333333333	0	30	2.1375	1	4.373046875
4802.6005859375	0.00833333333333333	0	-30	-7.30833333333333	2	0.9716796875
4806.05859375	0.00833333333333333	0	30	2.1375	2	3.7060546875
4811.974609375	0.00833333333333333	0	30	2.1375	2	3.1103515625
4817.2666015625	0.00833333333333333	0	-30	-7.30833333333333	1	0.994140625
4820.666015625	0.00833333333333333	0	30	2.1375	2	1.05078125
4824.2080078125	0.00833333333333333	0	30	2.1375	1	2.60546875
4829.033203125	0.00833333333333333	0	-30	-7.30833333333333	2	8.236328125
4839.82421875	0.00833333333333333	0	-30	-7.30833333333333	1	0.7412109375
4843.0830078125	0.00833333333333333	0	-30	-7.30833333333333	2	0.9228515625
4846.2412109375	0.00833333333333333	0	-30	-7.30833333333333	1	1.0283203125
4849.3994140625	0.00833333333333333	0	30	2.1375	2	5.57421875
4857.19921875	0.00833333333333333	0	30	2.1375	1	15.087890625
4874.4326171875	0.00833333333333333	0	30	2.1375	1	1.7421875
4904.556640625	0.00833333333333333	0	30	2.1375	2	1.1474609375
4908.1572265625	0.00833333333333333	0	-30	-7.30833333333333	2	0.9150390625
4911.4990234375	0.00833333333333333	0	-30	-7.30833333333333	2	0.6689453125
4914.2822265625	0.00833333333333333	0	-30	-7.30833333333333	2	0.7099609375
4917.2412109375	0.00833333333333333	0	30	2.1375	2	0.783203125
4920.1748046875	0.00833333333333333	0	30	2.1375	2	0.6015625
4923.08984375	0.00833333333333333	0	30	2.1375	2	0.5341796875
4926.0908203125	0.00833333333333333	0	-30	-7.30833333333333	2	0.4619140625
4928.998046875	0.00833333333333333	0	30	2.1375	2	0.658203125
4931.83203125	0.00833333333333333	0	30	2.0125	2	0.6083984375
4934.90625	0.00833333333333333	0	-30	-7.30833333333333	2	0.501953125
4937.57421875	0.00833333333333333	0	-30	-7.43333333333333	2	0.6982421875
4940.5478515625	0.00833333333333333	0	30	2.0125	2	0.78125
4943.681640625	0.00833333333333333	0	30	2.0125	2	0.5751953125
4946.548828125	0.00833333333333333	0	30	2.0125	2	0.5322265625
4949.1904296875	0.00833333333333333	0	-30	-7.43333333333333	2	0.6826171875
4952.181640625	0.00833333333333333	0	-30	-7.43333333333333	2	0.7724609375
4955.47265625	0.00833333333333333	0	30	2.0125	2	1.400390625
4959.291015625	0.00833333333333333	0	30	1.8875	2	1.078125
4962.6728515625	0.00833333333333333	0	-30	-7.43333333333333	2	3.0810546875
4967.9306640625	0.00833333333333333	0	30	1.8875	1	0.85546875
4970.9482421875	0.00833333333333333	0	-30	-7.43333333333333	1	0.7890625
4974.2724609375	0.00833333333333333	0	30	1.8875	1	0.6572265625
4977.2138671875	0.00833333333333333	0	-30	-7.43333333333333	1	2.2119140625
4981.6474609375	0.00833333333333333	0	-30	-7.43333333333333	1	0.5390625
4984.65625	0.00833333333333333	0	30	1.8875	1	1.6259765625
4988.814453125	0.00833333333333333	0	30	1.8875	1	1.01171875
4991.8642578125	0.00833333333333333	0	-30	-7.43333333333333	1	2.818359375
4996.888671875	0.00833333333333333	0	-30	-7.43333333333333	1	0.73828125
4999.6884765625	0.00833333333333333	0	30	1.8875	1	0.642578125
5002.5146484375	0.00833333333333333	0	30	2.0125	1	2.2724609375
5006.98046875	0.00833333333333333	0	-30	-7.30833333333333	1	0.630859375
5010.0556640625	0.00833333333333333	0	30	2.0125	1	7.3876953125
5019.955078125	0.00833333333333333	0	30	2.0125	1	0.9365234375
5022.9560546875	0.00833333333333333	0	30	2.0125	1	0.7197265625
5026.1552734375	0.00833333333333333	0	-30	-7.30833333333333	1	0.6240234375
5029.28125	0.00833333333333333	0	-30	-7.30833333333333	1	0.810546875
5032.34765625	0.00833333333333333	0	-30	-7.30833333333333	1	0.6884765625
5035.10546875	0.00833333333333333	0	30	2.0125	1	0.8505859375
5038.10546875	0.00833333333333333	0	-30	-7.30833333333333	1	0.890625
5041.48046875	0.00833333333333333	0	-30	-7.18333333333333	1	0.779296875
5044.3212890625	0.00833333333333333	0	30	2.1375	2	3.0751953125
5049.86328125	0.00833333333333333	0	30	2.1375	2	0.6611328125
5052.6630859375	0.00833333333333333	0	-30	-7.18333333333333	2	0.7177734375
5055.580078125	0.00833333333333333	0	-30	-7.18333333333333	2	0.5849609375
5058.396484375	0.00833333333333333	0	30	2.1375	1	1.0322265625
5061.796875	0.00833333333333333	0	30	2.1375	1	0.9599609375
5065.2724609375	0.00833333333333333	0	30	2.1375	1	1.2041015625
5068.8876953125	0.00833333333333333	0	-30	-7.18333333333333	1	3.533203125
5074.6875	0.00833333333333333	0	30	2.1375	1	0.8056640625
5077.712890625	0.00833333333333333	0	30	2.1375	2	1.060546875
5081.0712890625	0.00833333333333333	0	-30	-7.18333333333333	2	1.1904296875
5084.6142578125	0.00833333333333333	0	-30	-7.18333333333333	1	1.046875
5088.0458984375	0.00833333333333333	0	30	2.1375	2	0.84765625
5091.23828125	0.00833333333333333	0	-30	-7.18333333333333	1	4.16796875
5097.62890625	0.00833333333333333	0	30	2.1375	2	0.8408203125
5100.970703125	0.00833333333333333	0	-30	-7.18333333333333	1	1.0517578125
5104.513671875	0.00833333333333333	0	30	2.1375	2	3.9169921875
5110.8369140625	0.00833333333333333	0	-30	-7.18333333333333	1	0.8330078125
5114.2216796875	0.00833333333333333	0	30	2.1375	1	0.8330078125
5117.3876953125	0.00833333333333333	0	30	2.1375	1	7.8671875
5127.63671875	0.00833333333333333	0	30	2.1375	2	0.9541015625
5130.7451171875	0.00833333333333333	0	30	2.1375	2	1.3896484375
5134.5703125	0.00833333333333333	0	30	2.1375	2	0.7412109375
5137.8037109375	0.00833333333333333	0	30	2.1375	1	2.0673828125
5142.11328125	0.00833333333333333	0	-30	-7.18333333333333	2	0.7578125
5145.3701171875	0.00833333333333333	0	30	2.1375	2	4.1416015625
5151.8955078125	0.00833333333333333	0	-30	-7.18333333333333	2	0.640625
5154.771484375	0.00833333333333333	0	30	2.1375	2	0.6845703125
5157.6953125	0.00833333333333333	0	-30	-7.18333333333333	2	1.13671875
5161.1787109375	0.00833333333333333	0	30	2.1375	2	0.8212890625
5164.3291015625	0.00833333333333333	0	30	2.1375	1	2.7587890625
5169.2783203125	0.00833333333333333	0	-30	-7.18333333333333	1	3.7060546875
5175.50390625	0.00833333333333333	0	30	2.1375	2	2.80078125
5180.8447265625	0.00833333333333333	0	30	2.1375	2	0.7080078125
5183.703125	0.00833333333333333	0	30	2.1375	2	8.482421875
5194.7607421875	0.00833333333333333	0	30	2.1375	1	1.0888671875
5198.0029296875	0.00833333333333333	0	30	2.1375	2	1.9501953125
5202.27734375	0.00833333333333333	0	-30	-7.18333333333333	2	4.6357421875
5209.1943359375	0.00833333333333333	0	30	2.1375	2	1.6796875
