onset	duration	titr	surround	centre	response	rt
294.9541015625	0.00833333333333333	1	30	-15	2	0.7548828125
298.01171875	0.00833333333333333	1	30	15	2	0.369140625
300.63671875	0.00833333333333333	1	NaN	15	2	0.5283203125
303.1953125	0.00833333333333333	1	NaN	14	2	0.44140625
306.01953125	0.00833333333333333	1	NaN	-15	1	0.4423828125
308.861328125	0.00833333333333333	1	30	-16	1	1.087890625
311.9609375	0.00833333333333333	1	30	14	2	0.6357421875
314.818359375	0.00833333333333333	1	30	13	2	0.619140625
317.7451171875	0.00833333333333333	1	-30	-15	1	0.5322265625
320.5283203125	0.00833333333333333	1	30	-15	1	0.517578125
323.203125	0.00833333333333333	1	30	12	2	0.6982421875
326.078125	0.00833333333333333	1	30	11	2	0.53515625
328.8193359375	0.00833333333333333	1	NaN	-14	1	0.4580078125
331.578125	0.00833333333333333	1	-30	15	2	0.6201171875
334.5107421875	0.00833333333333333	1	-30	-14	1	0.54296875
337.2099609375	0.00833333333333333	1	-30	-13	1	0.7236328125
340.14453125	0.00833333333333333	1	30	-14	1	0.533203125
342.861328125	0.00833333333333333	1	-30	14	2	0.47265625
345.736328125	0.00833333333333333	1	NaN	-13	1	0.4462890625
348.6611328125	0.00833333333333333	1	NaN	13	2	0.3134765625
351.494140625	0.00833333333333333	1	-30	13	2	0.5205078125
354.4111328125	0.00833333333333333	1	NaN	-12	1	0.4189453125
356.869140625	0.00833333333333333	1	30	10	2	28.5869140625
387.77734375	0.00833333333333333	1	-30	-12	2	4.998046875
395.2177734375	0.00833333333333333	1	NaN	-11	1	0.5419921875
398.16015625	0.00833333333333333	1	NaN	-10	1	0.5595703125
401.09375	0.00833333333333333	1	NaN	12	2	0.5380859375
403.8515625	0.00833333333333333	1	-30	-13	1	0.8603515625
407.2265625	0.00833333333333333	1	NaN	11	2	0.421875
410.150390625	0.00833333333333333	1	NaN	10	2	0.4658203125
412.9765625	0.00833333333333333	1	-30	-12	2	0.84765625
416.0009765625	0.00833333333333333	1	-30	-13	1	0.703125
419.1591796875	0.00833333333333333	1	30	9	2	0.625
422.0517578125	0.00833333333333333	1	-30	12	2	0.5810546875
424.693359375	0.00833333333333333	1	30	-13	1	0.580078125
427.7763671875	0.00833333333333333	1	NaN	-9	1	0.5439453125
430.4345703125	0.00833333333333333	1	-30	11	2	0.4462890625
432.9501953125	0.00833333333333333	1	-30	-12	1	0.5791015625
436.009765625	0.00833333333333333	1	30	-12	1	0.431640625
438.484375	0.00833333333333333	1	30	-11	1	0.4609375
441.234375	0.00833333333333333	1	NaN	-8	1	0.4072265625
443.7421875	0.00833333333333333	1	NaN	-7	1	0.4755859375
446.392578125	0.00833333333333333	1	NaN	-6	1	0.537109375
449.30859375	0.00833333333333333	1	NaN	9	2	0.5009765625
452.30078125	0.00833333333333333	1	30	8	2	0.63671875
455.2421875	0.00833333333333333	1	30	7	2	0.4873046875
458.0498046875	0.00833333333333333	1	NaN	8	2	0.4794921875
460.6591796875	0.00833333333333333	1	NaN	-5	1	0.470703125
463.2255859375	0.00833333333333333	1	-30	10	2	0.408203125
466.142578125	0.00833333333333333	1	30	-10	1	0.5478515625
468.80078125	0.00833333333333333	1	-30	-11	2	0.650390625
471.55078125	0.00833333333333333	1	30	-9	1	0.4189453125
474.291015625	0.00833333333333333	1	30	6	2	0.5908203125
477.341796875	0.00833333333333333	1	30	-8	1	0.4365234375
480.30078125	0.00833333333333333	1	30	5	2	0.58203125
483.0673828125	0.00833333333333333	1	NaN	-4	1	0.4794921875
485.7998046875	0.00833333333333333	1	NaN	-3	1	0.619140625
488.650390625	0.00833333333333333	1	NaN	-2	1	0.6328125
491.43359375	0.00833333333333333	1	NaN	7	2	0.44921875
494.1923828125	0.00833333333333333	1	NaN	6	1	0.41015625
497.06640625	0.00833333333333333	1	NaN	7	2	0.552734375
500.099609375	0.00833333333333333	1	-30	-12	1	0.50390625
502.841796875	0.00833333333333333	1	30	4	2	0.7060546875
506.099609375	0.00833333333333333	1	30	3	1	0.607421875
508.900390625	0.00833333333333333	1	NaN	-1	2	0.5986328125
511.70703125	0.00833333333333333	1	NaN	6	2	0.640625
514.6328125	0.00833333333333333	1	-30	-11	1	0.6669921875
517.6748046875	0.00833333333333333	1	-30	9	2	0.4404296875
520.3916015625	0.00833333333333333	1	NaN	-2	1	1.140625
523.6162109375	0.00833333333333333	1	30	-7	1	0.748046875
526.591796875	0.00833333333333333	1	NaN	5	2	0.484375
529.5830078125	0.00833333333333333	1	-30	8	2	0.5087890625
532.25	0.00833333333333333	1	30	4	2	0.7138671875
535.4580078125	0.00833333333333333	1	NaN	-1	2	0.5146484375
538.08203125	0.00833333333333333	1	NaN	4	2	0.6103515625
541.2080078125	0.00833333333333333	1	NaN	-2	1	0.62890625
544.015625	0.00833333333333333	1	30	3	2	0.685546875
547.1826171875	0.00833333333333333	1	30	2	2	0.677734375
550.2744140625	0.00833333333333333	1	30	-6	1	0.4912109375
553.107421875	0.00833333333333333	1	NaN	3	2	0.4736328125
556.0830078125	0.00833333333333333	1	30	-5	1	0.5380859375
558.7734375	0.00833333333333333	1	-30	-10	2	0.6484375
561.7822265625	0.00833333333333333	1	-30	-11	1	0.6318359375
564.8662109375	0.00833333333333333	1	NaN	2	2	0.4921875
567.8564453125	0.00833333333333333	1	NaN	-1	2	0.4765625
570.69921875	0.00833333333333333	1	NaN	1	2	0.482421875
573.4912109375	0.00833333333333333	1	NaN	-2	2	0.8583984375
576.4736328125	0.00833333333333333	1	-30	-10	2	0.7724609375
579.640625	0.00833333333333333	1	30	-4	1	0.6767578125
582.70703125	0.00833333333333333	1	NaN	0	2	0.466796875
585.4990234375	0.00833333333333333	1	NaN	-1	2	0.5869140625
588.4326171875	0.00833333333333333	1	30	1	2	0.7490234375
591.5068359375	0.00833333333333333	1	NaN	-3	2	0.6279296875
594.431640625	0.00833333333333333	1	30	-3	1	0.630859375
622.4814453125	0.00833333333333333	1	-30	-11	1	0.6220703125
625.40625	0.00833333333333333	1	NaN	-2	2	0.5048828125
627.9736328125	0.00833333333333333	1	30	-2	2	0.5771484375
630.9482421875	0.00833333333333333	1	NaN	-3	1	0.8671875
634.1650390625	0.00833333333333333	1	NaN	-4	1	0.666015625
637.1728515625	0.00833333333333333	1	NaN	-3	1	0.6181640625
639.9482421875	0.00833333333333333	1	NaN	-2	2	0.7392578125
642.96484375	0.00833333333333333	1	NaN	-3	2	0.603515625
645.78125	0.00833333333333333	1	30	-3	1	0.826171875
648.8232421875	0.00833333333333333	1	NaN	-2	2	0.544921875
651.4384765625	0.00833333333333333	1	30	0	1	0.5458984375
654.421875	0.00833333333333333	1	NaN	-4	1	0.6025390625
657.1806640625	0.00833333333333333	1	NaN	-3	1	0.6357421875
660.1552734375	0.00833333333333333	1	30	1	1	0.525390625
663.189453125	0.00833333333333333	1	30	2	2	0.546875
665.9794921875	0.00833333333333333	1	30	-2	1	0.62109375
668.888671875	0.00833333333333333	1	-30	7	2	0.4716796875
671.7294921875	0.00833333333333333	1	30	-1	1	0.5673828125
674.78125	0.00833333333333333	1	NaN	-3	2	0.619140625
677.7978515625	0.00833333333333333	1	30	0	2	0.546875
680.880859375	0.00833333333333333	1	-30	6	2	0.4482421875
683.880859375	0.00833333333333333	1	NaN	-2	1	0.6962890625
686.6474609375	0.00833333333333333	1	30	1	1	0.59375
689.3388671875	0.00833333333333333	1	30	-1	2	0.6064453125
692.212890625	0.00833333333333333	1	NaN	-1	2	0.5400390625
695.263671875	0.00833333333333333	1	NaN	-4	2	0.5380859375
698.1884765625	0.00833333333333333	1	NaN	-5	1	0.548828125
701.072265625	0.00833333333333333	1	30	2	2	1.0654296875
704.5048828125	0.00833333333333333	1	NaN	-4	1	0.7685546875
707.771484375	0.00833333333333333	1	30	-2	1	0.55859375
710.73046875	0.00833333333333333	1	30	-1	1	0.7431640625
713.697265625	0.00833333333333333	1	30	1	1	0.5927734375
716.4052734375	0.00833333333333333	1	-30	5	2	0.4443359375
719.3134765625	0.00833333333333333	1	-30	4	2	0.4482421875
722.146484375	0.00833333333333333	1	30	0	1	0.408203125
724.6298828125	0.00833333333333333	1	30	1	1	0.580078125
727.638671875	0.00833333333333333	1	NaN	-3	1	0.9638671875
730.8212890625	0.00833333333333333	1	30	2	2	0.517578125
733.8212890625	0.00833333333333333	1	30	1	1	0.61328125
736.4716796875	0.00833333333333333	1	30	2	1	0.7236328125
739.412109375	0.00833333333333333	1	NaN	-2	2	0.5908203125
742.37890625	0.00833333333333333	1	NaN	-3	2	0.5595703125
745.0791015625	0.00833333333333333	1	NaN	-4	1	0.8359375
748.095703125	0.00833333333333333	1	30	3	2	0.626953125
750.904296875	0.00833333333333333	1	NaN	-2	1	0.71484375
753.74609375	0.00833333333333333	1	-30	3	2	0.5927734375
756.8291015625	0.00833333333333333	1	30	2	1	0.58203125
759.712890625	0.00833333333333333	1	30	3	1	0.7548828125
762.9794921875	0.00833333333333333	1	30	2	2	22.625
787.87109375	0.00833333333333333	1	NaN	-1	2	0.708984375
790.646484375	0.00833333333333333	1	30	1	2	0.7177734375
793.8291015625	0.00833333333333333	1	30	4	2	0.6474609375
796.552734375	0.00833333333333333	1	30	0	2	0.6357421875
799.6787109375	0.00833333333333333	1	30	-1	2	0.6064453125
802.6201171875	0.00833333333333333	1	-30	2	2	0.45703125
805.5869140625	0.00833333333333333	1	NaN	-2	2	0.490234375
808.4453125	0.00833333333333333	1	30	-2	1	0.759765625
811.6875	0.00833333333333333	1	30	-1	1	0.7578125
814.802734375	0.00833333333333333	1	-30	1	2	0.4580078125
817.287109375	0.00833333333333333	1	-30	0	2	0.375
820.169921875	0.00833333333333333	1	NaN	-3	1	0.771484375
823.419921875	0.00833333333333333	1	30	0	1	0.4658203125
825.912109375	0.00833333333333333	1	-30	-1	2	0.4052734375
828.787109375	0.00833333333333333	1	-30	-2	2	0.5146484375
831.5205078125	0.00833333333333333	1	-30	-3	2	0.5009765625
834.2275390625	0.00833333333333333	1	NaN	-2	2	0.5068359375
837.0029296875	0.00833333333333333	1	30	1	2	0.5712890625
840.0703125	0.00833333333333333	1	-30	-4	2	0.3837890625
842.5205078125	0.00833333333333333	1	-30	-5	2	0.525390625
845.0869140625	0.00833333333333333	1	-30	-6	2	0.4951171875
847.9697265625	0.00833333333333333	1	-30	-7	2	0.5009765625
850.9033203125	0.00833333333333333	1	-30	-8	2	0.3271484375
853.703125	0.00833333333333333	1	-30	-9	2	0.3916015625
856.5947265625	0.00833333333333333	1	-30	-10	2	0.580078125
859.6533203125	0.00833333333333333	1	-30	-11	1	0.6494140625
862.6103515625	0.00833333333333333	1	-30	-10	2	0.4365234375
865.552734375	0.00833333333333333	1	-30	-11	2	4.822265625
872.51953125	0.00833333333333333	1	-30	-12	2	0.9833984375
876.03515625	0.00833333333333333	1	-30	-13	1	1.076171875
879.1865234375	0.00833333333333333	1	-30	-12	2	1.197265625
882.6611328125	0.00833333333333333	1	-30	-13	1	0.8740234375
885.869140625	0.00833333333333333	1	-30	-12	2	0.474609375
888.8193359375	0.00833333333333333	1	-30	-13	1	0.7724609375
891.6943359375	0.00833333333333333	1	-30	-12	2	0.59375
894.5107421875	0.00833333333333333	1	-30	-13	1	0.8251953125
897.4853515625	0.00833333333333333	1	-30	-12	2	0.994140625
900.6201171875	0.00833333333333333	1	-30	-12.1666666666667	1	0.755859375
903.64453125	0.00833333333333333	1	NaN	-3.25	2	0.427734375
906.5859375	0.00833333333333333	1	-30	-12.0416666666667	1	0.5341796875
909.4521484375	0.00833333333333333	1	30	0.75	2	0.6279296875
912.5517578125	0.00833333333333333	1	30	0.625	2	0.544921875
915.251953125	0.00833333333333333	1	30	0.5	2	0.564453125
918.0693359375	0.00833333333333333	1	NaN	-2.25	2	0.38671875
920.5771484375	0.00833333333333333	1	30	1.75	2	0.3193359375
950.2841796875	0.00833333333333333	1	-30	-11.1666666666667	2	4.4697265625
957.1435546875	0.00833333333333333	1	30	0.375	2	0.994140625
960.251953125	0.00833333333333333	1	-30	-11.9166666666667	1	0.58203125
963.076171875	0.00833333333333333	1	-30	-11.7916666666667	1	0.5419921875
966.009765625	0.00833333333333333	1	30	1.625	1	0.82421875
969.0751953125	0.00833333333333333	1	30	0.25	2	0.6552734375
971.9345703125	0.00833333333333333	1	30	0.125	2	0.763671875
975.1015625	0.00833333333333333	1	-30	-11.6666666666667	1	0.556640625
977.701171875	0.00833333333333333	1	-30	-11.2916666666667	2	0.4931640625
980.6171875	0.00833333333333333	1	-30	-11.4166666666667	1	0.537109375
983.208984375	0.00833333333333333	1	NaN	-2.375	2	0.8017578125
986.333984375	0.00833333333333333	1	30	0	2	0.556640625
989.0009765625	0.00833333333333333	1	-30	-11.2916666666667	1	0.490234375
991.7509765625	0.00833333333333333	1	NaN	-3.375	2	3.419921875
997.2421875	0.00833333333333333	1	30	1.75	2	0.5927734375
1000.267578125	0.00833333333333333	1	30	-0.125	1	0.9033203125
1003.6591796875	0.00833333333333333	1	30	1.625	2	2.919921875
1008.701171875	0.00833333333333333	1	NaN	-3.5	2	0.7900390625
1011.55078125	0.00833333333333333	1	NaN	-2.5	2	0.453125
1014.0341796875	0.00833333333333333	1	NaN	-2.625	2	0.4814453125
1016.859375	0.00833333333333333	1	NaN	-2.75	2	3.12890625
1022.3505859375	0.00833333333333333	1	30	1.5	1	0.78125
1025.5009765625	0.00833333333333333	1	NaN	-2.875	2	0.470703125
1028.2919921875	0.00833333333333333	1	NaN	-3	2	0.599609375
1031.150390625	0.00833333333333333	1	-30	-11.1666666666667	2	0.93359375
1034.642578125	0.00833333333333333	1	-30	-11.5416666666667	1	0.6259765625
1037.30859375	0.00833333333333333	1	30	0	2	1.17578125
1040.7333984375	0.00833333333333333	1	30	-0.125	1	0.7509765625
1043.75	0.00833333333333333	1	NaN	-3.125	2	0.662109375
1046.583984375	0.00833333333333333	1	-30	-11.2916666666667	1	0.5166015625
1049.6240234375	0.00833333333333333	1	30	1.625	2	0.556640625
1052.4990234375	0.00833333333333333	1	30	0	1	0.6103515625
1055.6748046875	0.00833333333333333	1	-30	-11.4166666666667	1	1.3779296875
1059.6171875	0.00833333333333333	1	-30	-11.2916666666667	2	0.7236328125
1062.6005859375	0.00833333333333333	1	NaN	-3.25	2	0.4921875
1065.5419921875	0.00833333333333333	1	-30	-11.4166666666667	2	1.1669921875
1068.9169921875	0.00833333333333333	1	NaN	-3.375	1	0.5361328125
1071.7998046875	0.00833333333333333	1	30	0.125	2	0.5576171875
1074.4580078125	0.00833333333333333	1	30	1.5	2	0.5390625
1077.31640625	0.00833333333333333	1	30	0	2	0.529296875
1079.865234375	0.00833333333333333	1	-30	-11.1666666666667	1	0.5087890625
1082.6494140625	0.00833333333333333	1	30	1.375	2	0.46875
1085.408203125	0.00833333333333333	1	-30	-11.5416666666667	1	0.6298828125
1088.19140625	0.00833333333333333	1	30	-0.125	2	0.4794921875
1091.0751953125	0.00833333333333333	1	NaN	-3.25	2	0.4111328125
1093.6748046875	0.00833333333333333	1	30	-0.25	2	0.4677734375
1096.32421875	0.00833333333333333	1	-30	-11.0416666666667	1	0.490234375
1099.0498046875	0.00833333333333333	1	NaN	-3.375	2	0.4921875
1101.658203125	0.00833333333333333	1	30	1.25	2	0.5400390625
1104.408203125	0.00833333333333333	1	30	1.125	2	0.390625
1107.166015625	0.00833333333333333	1	-30	-10.9166666666667	1	0.4248046875
1109.7734375	0.00833333333333333	1	-30	-10.7916666666667	1	0.513671875
1112.740234375	0.00833333333333333	1	NaN	-3.625	2	0.490234375
1115.5078125	0.00833333333333333	1	NaN	-3.75	1	0.619140625
1118.357421875	0.00833333333333333	1	NaN	-3.5	2	0.9619140625
1121.6328125	0.00833333333333333	1	NaN	-3.625	1	0.7666015625
1124.798828125	0.00833333333333333	1	-30	-10.6666666666667	1	0.568359375
1127.865234375	0.00833333333333333	1	30	1	2	0.58203125
1130.6240234375	0.00833333333333333	1	NaN	-3.625	2	0.447265625
1133.4404296875	0.00833333333333333	1	-30	-10.5416666666667	1	0.52734375
1136.140625	0.00833333333333333	1	NaN	-3.75	1	0.6826171875
1139.33984375	0.00833333333333333	1	NaN	-3.5	1	0.5078125
1142.0244140625	0.00833333333333333	1	-30	-10.4166666666667	1	0.439453125
1144.8740234375	0.00833333333333333	1	-30	-10.2916666666667	1	0.501953125
1147.765625	0.00833333333333333	1	NaN	-3.625	1	0.73046875
1150.6318359375	0.00833333333333333	1	-30	-11.4166666666667	2	2.8564453125
1156.0576171875	0.00833333333333333	1	-30	-11.5416666666667	2	0.822265625
1159.0068359375	0.00833333333333333	1	NaN	-3.375	2	1.0810546875
1162.548828125	0.00833333333333333	1	30	-0.375	1	1.1240234375
1165.7314453125	0.00833333333333333	1	NaN	-3.5	1	1.1259765625
1169.0986328125	0.00833333333333333	1	-30	-10.1666666666667	1	0.58203125
1171.7314453125	0.00833333333333333	1	-30	-10.0416666666667	2	0.8134765625
1174.939453125	0.00833333333333333	1	30	-0.25	2	0.533203125
1177.931640625	0.00833333333333333	1	NaN	-3.5	1	0.9970703125
1181.4736328125	0.00833333333333333	1	-30	-11.6666666666667	1	0.9033203125
1184.8486328125	0.00833333333333333	1	-30	-10.1666666666667	1	0.83203125
1188.1650390625	0.00833333333333333	1	NaN	-3.375	2	0.5244140625
1191.189453125	0.00833333333333333	1	NaN	-3.5	2	0.6123046875
1194.3056640625	0.00833333333333333	1	-30	-10.0416666666667	2	2.359375
1198.822265625	0.00833333333333333	1	NaN	-3.375	2	0.779296875
1201.748046875	0.00833333333333333	1	-30	-11.5416666666667	2	0.4697265625
1204.2900390625	0.00833333333333333	1	-30	-10.1666666666667	1	0.7119140625
1207.46484375	0.00833333333333333	1	NaN	-3.625	1	0.6728515625
1210.630859375	0.00833333333333333	1	30	-0.375	1	1.04296875
1213.8896484375	0.00833333333333333	1	-30	-10.0416666666667	2	0.7841796875
1216.9306640625	0.00833333333333333	1	30	-0.25	1	0.671875
1220.064453125	0.00833333333333333	1	30	0.875	1	0.76953125
1223.3310546875	0.00833333333333333	1	-30	-10.1666666666667	1	0.5830078125
1226.03125	0.00833333333333333	1	NaN	-3.5	2	0.6591796875
1228.9140625	0.00833333333333333	1	30	1	2	0.728515625
1231.96484375	0.00833333333333333	1	30	0.875	2	0.6376953125
1235.1630859375	0.00833333333333333	1	30	0.75	1	0.7119140625
1238.314453125	0.00833333333333333	1	-30	-10.0416666666667	2	0.552734375
1241.2724609375	0.00833333333333333	1	NaN	-3.5	1	1.5224609375
1245.0888671875	0.00833333333333333	1	-30	-11.6666666666667	2	15.0341796875
1274.546875	0.00833333333333333	1	-30	-10.1666666666667	1	0.6171875
1277.48046875	0.00833333333333333	1	30	0.875	2	1.1875
1280.9384765625	0.00833333333333333	1	NaN	-3.625	1	0.7138671875
1284.205078125	0.00833333333333333	1	-30	-10.0416666666667	1	0.4794921875
1286.921875	0.00833333333333333	1	30	-0.125	1	0.7470703125
1289.9384765625	0.00833333333333333	1	NaN	-3.375	1	0.8095703125
1293.1787109375	0.00833333333333333	1	-30	-9.91666666666667	1	0.578125
1295.9296875	0.00833333333333333	1	30	0	1	0.6669921875
1298.6220703125	0.00833333333333333	1	30	0.125	2	1.1025390625
1301.8134765625	0.00833333333333333	1	30	0	1	0.6875
1304.888671875	0.00833333333333333	1	-30	-11.7916666666667	1	0.66796875
1307.8876953125	0.00833333333333333	1	-30	-9.79166666666667	1	0.55859375
1310.796875	0.00833333333333333	1	NaN	-3.5	2	9.4404296875
1322.73828125	0.00833333333333333	1	-30	-11.6666666666667	1	0.5068359375
1325.5966796875	0.00833333333333333	1	-30	-9.66666666666667	1	0.865234375
1328.896484375	0.00833333333333333	1	30	0.75	1	0.5732421875
1331.9716796875	0.00833333333333333	1	NaN	-3.625	1	0.4345703125
1334.904296875	0.00833333333333333	1	30	0.125	1	0.494140625
1337.4619140625	0.00833333333333333	1	30	0.25	1	0.5205078125
1340.0380859375	0.00833333333333333	1	-30	-11.5416666666667	1	0.8876953125
1343.345703125	0.00833333333333333	1	-30	-11.4166666666667	1	0.64453125
1346.0458984375	0.00833333333333333	1	NaN	-3.5	2	0.6728515625
1348.89453125	0.00833333333333333	1	NaN	-3.25	2	0.599609375
1351.5712890625	0.00833333333333333	1	NaN	-3.625	1	0.572265625
1354.611328125	0.00833333333333333	1	NaN	-3.375	1	0.4833984375
1357.3876953125	0.00833333333333333	1	-30	-9.54166666666667	1	0.458984375
1360.1123046875	0.00833333333333333	1	NaN	-3.5	1	2.486328125
1365.00390625	0.00833333333333333	1	NaN	-3.25	1	4.763671875
1371.9375	0.00833333333333333	1	NaN	-3.125	2	1.0615234375
1375.220703125	0.00833333333333333	1	NaN	-3.375	1	0.666015625
1378.26171875	0.00833333333333333	1	NaN	-3.25	1	0.6015625
1380.9453125	0.00833333333333333	1	30	0.875	2	0.6064453125
1383.75390625	0.00833333333333333	1	-30	-9.41666666666667	1	0.5654296875
1386.603515625	0.00833333333333333	1	30	0.375	2	0.587890625
1389.6279296875	0.00833333333333333	1	-30	-9.29166666666667	1	0.5322265625
1392.4619140625	0.00833333333333333	1	30	0.75	2	0.5380859375
1395.50390625	0.00833333333333333	1	NaN	-3.125	1	0.984375
1398.6201171875	0.00833333333333333	1	NaN	-3	2	0.5
1401.5537109375	0.00833333333333333	1	-30	-11.2916666666667	1	0.56640625
1404.169921875	0.00833333333333333	1	NaN	-3.125	2	0.470703125
1407.0703125	0.00833333333333333	1	30	0.25	1	0.6982421875
1410.0771484375	0.00833333333333333	1	NaN	-3.25	1	0.7314453125
1413.2529296875	0.00833333333333333	1	30	0.625	1	0.9072265625
1416.5361328125	0.00833333333333333	1	NaN	-3.25	1	0.7041015625
1419.5615234375	0.00833333333333333	1	30	0.375	1	1.0390625
1422.9443359375	0.00833333333333333	1	NaN	-3.125	2	0.5361328125
1425.9111328125	0.00833333333333333	1	30	0.5	2	0.6982421875
1428.677734375	0.00833333333333333	1	-30	-9.16666666666667	2	6.8037109375
1437.953125	0.00833333333333333	1	-30	-11.1666666666667	1	0.927734375
1441.3193359375	0.00833333333333333	1	NaN	-3.125	1	0.8740234375
1444.5361328125	0.00833333333333333	1	30	0.375	2	3.6015625
1450.2861328125	0.00833333333333333	1	30	0.75	2	6.916015625
1459.5517578125	0.00833333333333333	1	NaN	-3	2	0.666015625
1462.5185546875	0.00833333333333333	1	NaN	-3.125	1	0.67578125
1465.259765625	0.00833333333333333	1	NaN	-3.25	1	0.638671875
1468.2939453125	0.00833333333333333	1	30	0.25	1	0.8203125
1471.4111328125	0.00833333333333333	1	30	0.625	1	0.5595703125
1474.2607421875	0.00833333333333333	1	-30	-9.29166666666667	1	0.4140625
1477.244140625	0.00833333333333333	1	30	0.375	1	0.501953125
1479.90234375	0.00833333333333333	1	30	0.75	1	2.98046875
1484.943359375	0.00833333333333333	1	30	0.5	1	1.123046875
1488.119140625	0.00833333333333333	1	-30	-9.16666666666667	1	0.7392578125
1491.0849609375	0.00833333333333333	1	30	0.625	1	0.5419921875
1493.935546875	0.00833333333333333	1	-30	-9.04166666666667	2	0.619140625
1496.9765625	0.00833333333333333	1	NaN	-3.125	2	0.6826171875
1500.1767578125	0.00833333333333333	1	-30	-11.0416666666667	2	0.634765625
1503.0517578125	0.00833333333333333	1	-30	-9.16666666666667	2	0.560546875
1505.78515625	0.00833333333333333	1	-30	-11.1666666666667	2	3.9541015625
1511.8271484375	0.00833333333333333	1	NaN	-3.25	2	0.6884765625
1514.8515625	0.00833333333333333	1	30	0.875	2	0.48046875
1517.7763671875	0.00833333333333333	1	-30	-9.29166666666667	1	0.7158203125
1520.66015625	0.00833333333333333	1	NaN	-3.375	2	0.4794921875
1523.4755859375	0.00833333333333333	1	-30	-11.2916666666667	1	0.6728515625
1526.2177734375	0.00833333333333333	1	30	0.75	1	0.6826171875
1529.333984375	0.00833333333333333	1	NaN	-3.5	1	0.478515625
1532.2421875	0.00833333333333333	1	-30	-11.1666666666667	1	0.6103515625
1535.05078125	0.00833333333333333	1	30	0.75	2	0.7451171875
1538.2421875	0.00833333333333333	1	30	0.625	2	1.2822265625
1541.7333984375	0.00833333333333333	1	-30	-11.0416666666667	1	0.607421875
1544.5751953125	0.00833333333333333	1	30	0.5	2	0.453125
1547.451171875	0.00833333333333333	1	-30	-10.9166666666667	1	0.6171875
1550.2177734375	0.00833333333333333	1	-30	-10.7916666666667	1	0.69921875
1553.150390625	0.00833333333333333	1	-30	-10.6666666666667	1	0.478515625
1555.6591796875	0.00833333333333333	1	-30	-10.5416666666667	2	1.10546875
1558.93359375	0.00833333333333333	1	-30	-10.6666666666667	2	2.599609375
1563.8681640625	0.00833333333333333	1	-30	-10.7916666666667	1	0.6416015625
1566.708984375	0.00833333333333333	1	30	0.375	2	0.65625
1569.5341796875	0.00833333333333333	1	30	0.25	1	0.8154296875
1572.8173828125	0.00833333333333333	1	-30	-10.6666666666667	2	122.6328125
1713.1904296875	0.00833333333333333	1	-30	-10.7916666666667	1	0.923828125
1716.08203125	0.00833333333333333	1	-30	-10.6666666666667	1	0.49609375
1718.70703125	0.00833333333333333	1	-30	-10.5416666666667	2	0.51953125
1721.71484375	0.00833333333333333	1	-30	-10.6666666666667	2	0.4794921875
1724.5908203125	0.00833333333333333	1	-30	-10.7916666666667	1	0.35546875
1727.0986328125	0.00833333333333333	1	-30	-10.6666666666667	2	1.1201171875
1730.5908203125	0.00833333333333333	0	-30	-10.3166666666667	2	0.580078125
1733.5654296875	0.00833333333333333	0	-30	-10.3166666666667	2	0.59765625
1736.34765625	0.00833333333333333	0	-30	-10.3166666666667	2	0.623046875
1739.3486328125	0.00833333333333333	0	-30	-10.3166666666667	2	0.5419921875
1742.2314453125	0.00833333333333333	0	-30	-10.3166666666667	2	0.4912109375
1745.15625	0.00833333333333333	0	30	0.4875	2	0.974609375
1748.53125	0.00833333333333333	0	30	0.4875	2	0.65625
1751.6982421875	0.00833333333333333	0	30	0.4875	2	1.1533203125
1755.3486328125	0.00833333333333333	0	-30	-10.4416666666667	1	0.8154296875
1758.28125	0.00833333333333333	0	-30	-10.4416666666667	2	0.5703125
1761.2646484375	0.00833333333333333	0	-30	-10.4416666666667	2	0.6591796875
1764.2646484375	0.00833333333333333	0	30	0.4875	1	0.6435546875
1767.0888671875	0.00833333333333333	0	30	0.4875	2	0.5390625
1769.9482421875	0.00833333333333333	0	-30	-10.4416666666667	2	4.51171875
1776.7392578125	0.00833333333333333	0	30	0.4875	1	0.736328125
1779.7978515625	0.00833333333333333	0	-30	-10.4416666666667	2	0.4462890625
1782.33984375	0.00833333333333333	0	-30	-10.4416666666667	2	0.576171875
1785.123046875	0.00833333333333333	0	-30	-10.5666666666667	2	0.45703125
1787.697265625	0.00833333333333333	0	-30	-10.5666666666667	2	0.5068359375
1790.505859375	0.00833333333333333	0	-30	-10.5666666666667	2	3.5625
1796.2890625	0.00833333333333333	0	-30	-10.5666666666667	2	0.5400390625
1799.3310546875	0.00833333333333333	0	-30	-10.5666666666667	1	0.6572265625
1802.23046875	0.00833333333333333	0	-30	-10.5666666666667	2	0.5107421875
1804.90625	0.00833333333333333	0	30	0.4875	2	0.5146484375
1807.8720703125	0.00833333333333333	0	-30	-10.5666666666667	2	0.62109375
1810.9638671875	0.00833333333333333	0	-30	-10.5666666666667	1	0.78515625
1814.0556640625	0.00833333333333333	0	30	0.4875	1	0.8134765625
1817.005859375	0.00833333333333333	0	-30	-10.5666666666667	2	0.49609375
1819.6220703125	0.00833333333333333	0	30	0.4875	1	0.85546875
1822.5888671875	0.00833333333333333	0	-30	-10.5666666666667	2	0.81640625
1825.7548828125	0.00833333333333333	0	-30	-10.5666666666667	2	0.6025390625
1828.4638671875	0.00833333333333333	0	-30	-10.5666666666667	2	0.669921875
1831.4306640625	0.00833333333333333	0	-30	-10.5666666666667	1	0.6630859375
1834.3798828125	0.00833333333333333	0	-30	-10.5666666666667	2	0.6181640625
1837.23828125	0.00833333333333333	0	-30	-10.5666666666667	1	1.0400390625
1840.8056640625	0.00833333333333333	0	-30	-10.5666666666667	2	0.44921875
1843.5634765625	0.00833333333333333	0	-30	-10.5666666666667	2	1.1708984375
1847.197265625	0.00833333333333333	0	30	0.4875	2	0.640625
1850.080078125	0.00833333333333333	0	-30	-10.5666666666667	2	0.6298828125
1853.0712890625	0.00833333333333333	0	-30	-10.5666666666667	2	4.1669921875
1859.5546875	0.00833333333333333	0	30	0.4875	2	0.8837890625
1862.6123046875	0.00833333333333333	0	30	0.4875	2	0.5791015625
1865.771484375	0.00833333333333333	0	-30	-10.5666666666667	2	0.859375
1869.021484375	0.00833333333333333	0	-30	-10.6916666666667	1	1.2578125
1872.4296875	0.00833333333333333	0	-30	-10.6916666666667	1	0.73828125
1875.36328125	0.00833333333333333	0	-30	-10.6916666666667	2	0.732421875
1878.1630859375	0.00833333333333333	0	30	0.4875	2	0.5
1881.1875	0.00833333333333333	0	-30	-10.6916666666667	1	0.7958984375
1884.0791015625	0.00833333333333333	0	-30	-10.6916666666667	1	0.6806640625
1887.0712890625	0.00833333333333333	0	30	0.4875	1	0.568359375
1889.8203125	0.00833333333333333	0	-30	-10.6916666666667	2	0.931640625
1893.25390625	0.00833333333333333	0	-30	-10.6916666666667	1	0.73828125
1896.1708984375	0.00833333333333333	0	-30	-10.6916666666667	1	0.8935546875
1899.37109375	0.00833333333333333	0	30	0.4875	1	0.796875
1902.712890625	0.00833333333333333	0	30	0.4875	1	0.6630859375
1905.8623046875	0.00833333333333333	0	-30	-10.6916666666667	2	1.08984375
1909.5126953125	0.00833333333333333	0	-30	-10.6916666666667	1	1.9677734375
1913.845703125	0.00833333333333333	0	30	0.4875	2	0.5625
1916.8125	0.00833333333333333	0	-30	-10.6916666666667	1	0.916015625
1919.75390625	0.00833333333333333	0	-30	-10.6916666666667	2	5.8466796875
1928.0458984375	0.00833333333333333	0	-30	-10.6916666666667	1	0.619140625
1930.9873046875	0.00833333333333333	0	30	0.4875	2	0.7333984375
1933.8369140625	0.00833333333333333	0	30	0.4875	1	4.3720703125
1940.3701171875	0.00833333333333333	0	-30	-10.6916666666667	1	0.6552734375
1943.37890625	0.00833333333333333	0	30	0.4875	1	0.9267578125
1946.720703125	0.00833333333333333	0	30	0.4875	1	0.7451171875
1949.662109375	0.00833333333333333	0	-30	-10.6916666666667	2	0.7470703125
1952.537109375	0.00833333333333333	0	30	0.4875	1	1.0322265625
1955.9873046875	0.00833333333333333	0	-30	-10.6916666666667	2	0.90234375
1959.0361328125	0.00833333333333333	0	30	0.4875	1	0.7177734375
1962.0703125	0.00833333333333333	0	30	0.6125	2	0.755859375
1965.26171875	0.00833333333333333	0	-30	-10.6916666666667	1	0.8525390625
1968.1953125	0.00833333333333333	0	-30	-10.6916666666667	1	0.86328125
1971.6279296875	0.00833333333333333	0	-30	-10.6916666666667	2	0.9345703125
1974.8193359375	0.00833333333333333	0	-30	-10.6916666666667	1	0.6552734375
1977.76953125	0.00833333333333333	0	-30	-10.6916666666667	1	0.77734375
1981.0693359375	0.00833333333333333	0	-30	-10.6916666666667	1	0.5654296875
1983.9775390625	0.00833333333333333	0	30	0.6125	2	0.7607421875
1986.8359375	0.00833333333333333	0	30	0.6125	2	0.638671875
1990.0283203125	0.00833333333333333	0	30	0.6125	2	0.5517578125
2047.16015625	0.00833333333333333	0	30	0.6125	2	25.5732421875
2074.818359375	0.00833333333333333	0	30	0.4875	1	1.1552734375
2078.509765625	0.00833333333333333	0	30	0.4875	1	0.7041015625
2081.384765625	0.00833333333333333	0	30	0.4875	1	0.5810546875
2084.4921875	0.00833333333333333	0	-30	-10.6916666666667	2	0.5615234375
2087.509765625	0.00833333333333333	0	30	0.4875	1	0.6005859375
2090.17578125	0.00833333333333333	0	-30	-10.6916666666667	2	0.6142578125
2093.0517578125	0.00833333333333333	0	-30	-10.6916666666667	1	0.6826171875
2096.1513671875	0.00833333333333333	0	30	0.4875	2	0.7431640625
2098.9931640625	0.00833333333333333	0	30	0.4875	1	0.5498046875
2101.6005859375	0.00833333333333333	0	-30	-10.6916666666667	1	0.9501953125
2105.033203125	0.00833333333333333	0	30	0.4875	1	0.62109375
2108.1845703125	0.00833333333333333	0	30	0.4875	1	0.57421875
2111.0341796875	0.00833333333333333	0	30	0.4875	2	1.4208984375
2114.66796875	0.00833333333333333	0	-30	-10.6916666666667	2	0.5869140625
2117.6005859375	0.00833333333333333	0	-30	-10.6916666666667	1	0.5419921875
2120.4931640625	0.00833333333333333	0	-30	-10.6916666666667	1	0.578125
2123.31640625	0.00833333333333333	0	-30	-10.6916666666667	2	1.9384765625
2127.4677734375	0.00833333333333333	0	30	0.4875	1	0.5556640625
2130.5341796875	0.00833333333333333	0	-30	-10.6916666666667	1	0.4814453125
2133.30078125	0.00833333333333333	0	-30	-10.6916666666667	1	0.482421875
2136.29296875	0.00833333333333333	0	-30	-10.6916666666667	1	0.634765625
2139.3671875	0.00833333333333333	0	-30	-10.6916666666667	2	7.185546875
2149.0673828125	0.00833333333333333	0	30	0.4875	2	1.3564453125
2152.69140625	0.00833333333333333	0	30	0.4875	1	0.6123046875
2155.55078125	0.00833333333333333	0	30	0.4875	1	0.5693359375
2158.2001953125	0.00833333333333333	0	30	0.4875	1	0.568359375
2160.892578125	0.00833333333333333	0	30	0.4875	1	0.7080078125
2164.1591796875	0.00833333333333333	0	30	0.4875	2	0.849609375
2167.2587890625	0.00833333333333333	0	30	0.4875	2	0.830078125
2170.68359375	0.00833333333333333	0	30	0.4875	1	0.63671875
2173.4921875	0.00833333333333333	0	30	0.4875	2	0.5400390625
2176.3671875	0.00833333333333333	0	-30	-10.6916666666667	1	0.490234375
2179.400390625	0.00833333333333333	0	30	0.4875	2	0.5048828125
2182.2744140625	0.00833333333333333	0	-30	-10.6916666666667	2	0.7265625
2185.1005859375	0.00833333333333333	0	-30	-10.6916666666667	2	0.732421875
2188.0830078125	0.00833333333333333	0	-30	-10.6916666666667	1	0.654296875
2191.06640625	0.00833333333333333	0	30	0.4875	1	0.6552734375
2194.275390625	0.00833333333333333	0	30	0.4875	1	0.6064453125
2197.107421875	0.00833333333333333	0	30	0.4875	2	0.58203125
2199.9833984375	0.00833333333333333	0	-30	-10.6916666666667	1	0.666015625
2202.8251953125	0.00833333333333333	0	-30	-10.6916666666667	1	0.6484375
2205.7412109375	0.00833333333333333	0	-30	-10.6916666666667	1	0.46875
2208.474609375	0.00833333333333333	0	30	0.4875	2	0.607421875
2211.2333984375	0.00833333333333333	0	-30	-10.6916666666667	1	0.6884765625
2214.07421875	0.00833333333333333	0	-30	-10.5666666666667	1	0.736328125
2216.94140625	0.00833333333333333	0	30	0.4875	2	0.716796875
2219.982421875	0.00833333333333333	0	30	0.4875	2	0.5556640625
2222.7666015625	0.00833333333333333	0	-30	-10.5666666666667	1	0.828125
2225.908203125	0.00833333333333333	0	30	0.4875	1	0.9267578125
2228.94921875	0.00833333333333333	0	-30	-10.5666666666667	1	0.734375
2232.140625	0.00833333333333333	0	30	0.4875	2	0.6708984375
2234.908203125	0.00833333333333333	0	-30	-10.5666666666667	2	6.111328125
2243.423828125	0.00833333333333333	0	30	0.4875	2	4.5478515625
2250.1572265625	0.00833333333333333	0	-30	-10.5666666666667	1	1.2705078125
2253.6826171875	0.00833333333333333	0	30	0.4875	1	0.8564453125
2256.5908203125	0.00833333333333333	0	-30	-10.5666666666667	1	0.453125
2259.140625	0.00833333333333333	0	30	0.4875	2	1.4951171875
2263.1328125	0.00833333333333333	0	30	0.4875	1	1.0146484375
2266.607421875	0.00833333333333333	0	30	0.4875	1	0.6767578125
2269.5576171875	0.00833333333333333	0	30	0.4875	2	1.0458984375
2272.765625	0.00833333333333333	0	30	0.4875	2	0.52734375
2275.70703125	0.00833333333333333	0	30	0.4875	2	0.6015625
2278.4814453125	0.00833333333333333	0	30	0.4875	1	0.818359375
2281.357421875	0.00833333333333333	0	30	0.4875	1	0.6943359375
2284.33203125	0.00833333333333333	0	-30	-10.5666666666667	1	0.6640625
2287.4072265625	0.00833333333333333	0	30	0.4875	1	0.8291015625
2290.58203125	0.00833333333333333	0	30	0.4875	1	0.6865234375
2293.4150390625	0.00833333333333333	0	30	0.4875	1	0.8056640625
2296.5986328125	0.00833333333333333	0	-30	-10.5666666666667	1	0.654296875
2299.306640625	0.00833333333333333	0	-30	-10.5666666666667	1	1.7861328125
2303.498046875	0.00833333333333333	0	-30	-10.4416666666667	2	0.7626953125
2306.5654296875	0.00833333333333333	0	-30	-10.4416666666667	2	0.607421875
2309.306640625	0.00833333333333333	0	30	0.6125	2	0.962890625
2312.5986328125	0.00833333333333333	0	30	0.6125	2	1.23046875
2315.9150390625	0.00833333333333333	0	-30	-10.4416666666667	2	0.6103515625
2318.740234375	0.00833333333333333	0	30	0.6125	2	0.689453125
2321.8486328125	0.00833333333333333	0	30	0.6125	1	0.7578125
2325.123046875	0.00833333333333333	0	-30	-10.4416666666667	2	0.6025390625
2327.84765625	0.00833333333333333	0	30	0.6125	1	0.58203125
2432.9873046875	0.00833333333333333	0	30	0.6125	2	1.0703125
2436.3876953125	0.00833333333333333	0	30	0.6125	1	1.0458984375
2439.587890625	0.00833333333333333	0	-30	-10.4416666666667	2	0.7255859375
2442.7958984375	0.00833333333333333	0	-30	-10.5666666666667	2	0.525390625
2445.6962890625	0.00833333333333333	0	-30	-10.5666666666667	2	0.45703125
2448.580078125	0.00833333333333333	0	30	0.6125	1	0.6376953125
2451.3876953125	0.00833333333333333	0	-30	-10.5666666666667	2	0.6220703125
2454.2041015625	0.00833333333333333	0	30	0.6125	2	0.59765625
2456.9794921875	0.00833333333333333	0	30	0.6125	1	0.55078125
2459.8876953125	0.00833333333333333	0	-30	-10.5666666666667	2	0.4658203125
2462.4541015625	0.00833333333333333	0	30	0.6125	1	0.7158203125
2465.412109375	0.00833333333333333	0	-30	-10.5666666666667	1	0.486328125
2468.3876953125	0.00833333333333333	0	30	0.6125	1	0.7509765625
2471.337890625	0.00833333333333333	0	-30	-10.5666666666667	2	0.4248046875
2474.1044921875	0.00833333333333333	0	30	0.6125	2	0.578125
2476.912109375	0.00833333333333333	0	30	0.6125	1	0.6181640625
2479.8447265625	0.00833333333333333	0	-30	-10.5666666666667	2	0.4775390625
2482.4208984375	0.00833333333333333	0	-30	-10.5666666666667	2	0.57421875
2485.478515625	0.00833333333333333	0	30	0.6125	1	0.4921875
2488.0712890625	0.00833333333333333	0	-30	-10.5666666666667	1	0.755859375
2491.0703125	0.00833333333333333	0	-30	-10.5666666666667	2	0.724609375
2494.095703125	0.00833333333333333	0	-30	-10.5666666666667	2	0.8994140625
2497.078125	0.00833333333333333	0	30	0.6125	2	0.861328125
2500.103515625	0.00833333333333333	0	30	0.6125	1	0.755859375
2503.3955078125	0.00833333333333333	0	-30	-10.5666666666667	1	0.6240234375
2506.3701171875	0.00833333333333333	0	30	0.6125	1	0.689453125
2509.2451171875	0.00833333333333333	0	30	0.6125	1	0.6142578125
2512.38671875	0.00833333333333333	0	30	0.6125	1	0.5771484375
2515.203125	0.00833333333333333	0	30	0.6125	1	1.2568359375
2518.5947265625	0.00833333333333333	0	30	0.7375	1	0.4892578125
2521.6533203125	0.00833333333333333	0	30	0.7375	1	0.55078125
2524.76171875	0.00833333333333333	0	30	0.7375	1	0.5546875
2527.6455078125	0.00833333333333333	0	-30	-10.5666666666667	1	0.5986328125
2530.478515625	0.00833333333333333	0	30	0.7375	1	0.58203125
2533.3857421875	0.00833333333333333	0	30	0.7375	1	0.71484375
2536.2529296875	0.00833333333333333	0	-30	-10.5666666666667	1	0.5751953125
2539.39453125	0.00833333333333333	0	30	0.8625	1	0.490234375
2542.3115234375	0.00833333333333333	0	-30	-10.5666666666667	1	0.5654296875
2545.0361328125	0.00833333333333333	0	-30	-10.5666666666667	1	0.6884765625
2548.0615234375	0.00833333333333333	0	-30	-10.4416666666667	1	0.439453125
2551.103515625	0.00833333333333333	0	30	0.8625	2	0.7099609375
2554.0361328125	0.00833333333333333	0	-30	-10.4416666666667	2	0.7685546875
2557.2197265625	0.00833333333333333	0	-30	-10.4416666666667	1	0.537109375
2559.853515625	0.00833333333333333	0	30	0.8625	2	0.5751953125
2562.7607421875	0.00833333333333333	0	-30	-10.4416666666667	2	0.6611328125
2565.486328125	0.00833333333333333	0	30	0.8625	2	0.703125
2568.3193359375	0.00833333333333333	0	-30	-10.4416666666667	1	6.9423828125
2577.568359375	0.00833333333333333	0	-30	-10.4416666666667	1	0.5654296875
2580.5771484375	0.00833333333333333	0	30	0.8625	2	3.64453125
2586.3359375	0.00833333333333333	0	30	0.8625	2	0.677734375
2589.1025390625	0.00833333333333333	0	-30	-10.4416666666667	2	0.85546875
2592.21875	0.00833333333333333	0	30	0.7375	2	0.7392578125
2595.27734375	0.00833333333333333	0	30	0.7375	2	0.697265625
2598.2353515625	0.00833333333333333	0	30	0.7375	2	0.546875
2600.84375	0.00833333333333333	0	30	0.7375	2	0.5224609375
2603.59375	0.00833333333333333	0	-30	-10.4416666666667	1	0.7568359375
2606.869140625	0.00833333333333333	0	30	0.7375	2	1.1455078125
2610.52734375	0.00833333333333333	0	30	0.6125	2	1.591796875
2614.2021484375	0.00833333333333333	0	30	0.6125	1	1.029296875
2617.619140625	0.00833333333333333	0	-30	-10.4416666666667	2	1.2275390625
2621.376953125	0.00833333333333333	0	30	0.6125	1	1.7744140625
2625.2939453125	0.00833333333333333	0	-30	-10.4416666666667	2	0.9130859375
2628.27734375	0.00833333333333333	0	-30	-10.4416666666667	1	1.234375
2632.009765625	0.00833333333333333	0	30	0.6125	1	0.9013671875
2635.2763671875	0.00833333333333333	0	-30	-10.4416666666667	1	0.5556640625
2637.984375	0.00833333333333333	0	30	0.6125	1	0.5595703125
2641.0849609375	0.00833333333333333	0	-30	-10.4416666666667	1	1.474609375
2645.0771484375	0.00833333333333333	0	-30	-10.4416666666667	1	0.619140625
2648.076171875	0.00833333333333333	0	-30	-10.4416666666667	1	0.6123046875
2650.8515625	0.00833333333333333	0	-30	-10.3166666666667	1	0.4609375
2653.7431640625	0.00833333333333333	0	-30	-10.3166666666667	1	0.4814453125
2656.509765625	0.00833333333333333	0	30	0.6125	1	0.482421875
2659.2099609375	0.00833333333333333	0	-30	-10.3166666666667	2	1.8466796875
2663.1181640625	0.00833333333333333	0	30	0.7375	1	0.75390625
2666.076171875	0.00833333333333333	0	-30	-10.3166666666667	2	2.3408203125
2670.75	0.00833333333333333	0	30	0.7375	2	0.6748046875
2673.8759765625	0.00833333333333333	0	30	0.7375	2	0.7890625
2677.109375	0.00833333333333333	0	-30	-10.3166666666667	1	0.5556640625
2679.9248046875	0.00833333333333333	0	-30	-10.3166666666667	1	0.5888671875
2682.642578125	0.00833333333333333	0	30	0.7375	1	0.5986328125
2692.109375	0.00833333333333333	0	-30	-10.3166666666667	2	7.228515625
2701.833984375	0.00833333333333333	0	30	0.7375	2	1.1923828125
2705.525390625	0.00833333333333333	0	30	0.7375	1	0.5322265625
2708.1083984375	0.00833333333333333	0	-30	-10.3166666666667	1	0.541015625
2710.9677734375	0.00833333333333333	0	30	0.7375	2	0.5703125
2713.875	0.00833333333333333	0	30	0.7375	2	0.4951171875
2716.80078125	0.00833333333333333	0	30	0.7375	1	0.59375
2719.4501953125	0.00833333333333333	0	-30	-10.3166666666667	1	0.560546875
2722.3759765625	0.00833333333333333	0	-30	-10.3166666666667	1	0.5625
2725.1171875	0.00833333333333333	0	30	0.7375	2	1.7734375
2729.2587890625	0.00833333333333333	0	-30	-10.3166666666667	1	0.591796875
2732.18359375	0.00833333333333333	0	-30	-10.3166666666667	2	3.099609375
2737.525390625	0.00833333333333333	0	-30	-10.3166666666667	1	0.701171875
2740.4169921875	0.00833333333333333	0	-30	-10.3166666666667	2	0.666015625
2743.6748046875	0.00833333333333333	0	30	0.7375	2	1.8720703125
2748.033203125	0.00833333333333333	0	30	0.7375	2	1.650390625
2752.033203125	0.00833333333333333	0	-30	-10.3166666666667	1	0.90625
2755.19140625	0.00833333333333333	0	-30	-10.3166666666667	2	0.755859375
2758.275390625	0.00833333333333333	0	-30	-10.3166666666667	1	0.6162109375
2761.1748046875	0.00833333333333333	0	-30	-10.3166666666667	2	0.6689453125
2764.091796875	0.00833333333333333	0	-30	-10.3166666666667	2	0.7119140625
2767.2158203125	0.00833333333333333	0	-30	-10.3166666666667	2	0.66015625
2770.173828125	0.00833333333333333	0	-30	-10.3166666666667	2	0.57421875
2773.2666015625	0.00833333333333333	0	30	0.7375	2	0.8818359375
2776.2080078125	0.00833333333333333	0	-30	-10.3166666666667	2	4.8203125
2783.416015625	0.00833333333333333	0	-30	-10.4416666666667	1	0.732421875
2786.640625	0.00833333333333333	0	30	0.7375	2	0.748046875
2789.5	0.00833333333333333	0	-30	-10.4416666666667	1	0.81640625
2792.6064453125	0.00833333333333333	0	30	0.6125	1	1.24609375
2796.3154296875	0.00833333333333333	0	30	0.6125	1	1.1533203125
2799.849609375	0.00833333333333333	0	30	0.6125	2	1.1396484375
2803.265625	0.00833333333333333	0	-30	-10.4416666666667	2	1.99609375
2807.724609375	0.00833333333333333	0	30	0.6125	1	0.6728515625
2810.5078125	0.00833333333333333	0	30	0.6125	1	0.513671875
2813.0830078125	0.00833333333333333	0	30	0.6125	2	0.5458984375
2816.0068359375	0.00833333333333333	0	30	0.6125	1	0.662109375
2818.798828125	0.00833333333333333	0	-30	-10.4416666666667	2	3.7587890625
2824.6826171875	0.00833333333333333	0	-30	-10.4416666666667	1	0.619140625
2827.615234375	0.00833333333333333	0	-30	-10.4416666666667	1	0.3505859375
2830.3828125	0.00833333333333333	0	-30	-10.4416666666667	1	0.55859375
2833.2734375	0.00833333333333333	0	30	0.6125	1	0.916015625
2836.4990234375	0.00833333333333333	0	-30	-10.4416666666667	1	0.5791015625
2839.6240234375	0.00833333333333333	0	30	0.6125	1	0.59765625
2842.265625	0.00833333333333333	0	-30	-10.4416666666667	1	0.541015625
2845.08203125	0.00833333333333333	0	30	0.6125	1	0.6923828125
2847.96484375	0.00833333333333333	0	30	0.6125	2	0.59375
2850.8232421875	0.00833333333333333	0	30	0.6125	1	0.615234375
2853.6396484375	0.00833333333333333	0	30	0.6125	2	0.6787109375
2856.5400390625	0.00833333333333333	0	30	0.6125	2	2.02734375
2860.70703125	0.00833333333333333	0	-30	-10.3166666666667	2	2.3154296875
2865.40625	0.00833333333333333	0	30	0.6125	2	0.728515625
2868.623046875	0.00833333333333333	0	-30	-10.3166666666667	1	0.50390625
2871.6396484375	0.00833333333333333	0	30	0.6125	2	0.935546875
2874.9482421875	0.00833333333333333	0	-30	-10.3166666666667	1	0.5791015625
2877.697265625	0.00833333333333333	0	-30	-10.3166666666667	2	0.478515625
2880.6484375	0.00833333333333333	0	30	0.6125	2	0.53515625
2883.421875	0.00833333333333333	0	-30	-10.3166666666667	2	2.2734375
2887.7978515625	0.00833333333333333	0	-30	-10.3166666666667	1	0.578125
2890.5234375	0.00833333333333333	0	-30	-10.3166666666667	1	0.7802734375
2893.3896484375	0.00833333333333333	0	-30	-10.3166666666667	1	2.890625
2898.47265625	0.00833333333333333	0	30	0.4875	2	0.7353515625
2901.505859375	0.00833333333333333	0	30	0.4875	1	1.0302734375
2904.748046875	0.00833333333333333	0	-30	-10.3166666666667	1	0.580078125
2907.505859375	0.00833333333333333	0	-30	-10.3166666666667	1	0.5185546875
2910.4716796875	0.00833333333333333	0	30	0.4875	2	1.6806640625
2914.72265625	0.00833333333333333	0	-30	-10.1916666666667	2	0.734375
2917.8564453125	0.00833333333333333	0	30	0.4875	2	3.984375
2924.22265625	0.00833333333333333	0	-30	-10.1916666666667	2	0.986328125
2927.5556640625	0.00833333333333333	0	30	0.4875	2	0.5654296875
2930.189453125	0.00833333333333333	0	30	0.4875	1	3.748046875
2936.4296875	0.00833333333333333	0	-30	-10.1916666666667	1	1.1474609375
2939.7392578125	0.00833333333333333	0	-30	-10.1916666666667	1	0.822265625
2942.7392578125	0.00833333333333333	0	-30	-10.1916666666667	1	3.0224609375
2948.1220703125	0.00833333333333333	0	-30	-10.1916666666667	2	5.03125
2955.455078125	0.00833333333333333	0	30	0.4875	2	1.53125
2959.146484375	0.00833333333333333	0	30	0.4875	2	0.943359375
2962.2470703125	0.00833333333333333	0	30	0.4875	1	1.4033203125
2966.10546875	0.00833333333333333	0	-30	-10.1916666666667	1	0.625
2968.8720703125	0.00833333333333333	0	30	0.4875	1	1.337890625
2972.671875	0.00833333333333333	0	30	0.4875	2	1.4267578125
3011.970703125	0.00833333333333333	0	-30	-10.1916666666667	1	0.9365234375
3015.11328125	0.00833333333333333	0	30	0.4875	2	0.4345703125
3017.603515625	0.00833333333333333	0	-30	-10.1916666666667	2	6.0087890625
3025.845703125	0.00833333333333333	0	30	0.4875	2	3.1025390625
3031.2880859375	0.00833333333333333	0	30	0.4875	2	1.9326171875
3035.544921875	0.00833333333333333	0	-30	-10.1916666666667	1	0.8671875
3038.87109375	0.00833333333333333	0	-30	-10.1916666666667	1	0.5263671875
3041.7041015625	0.00833333333333333	0	30	0.4875	2	0.64453125
3044.4541015625	0.00833333333333333	0	30	0.3625	1	0.5908203125
3047.220703125	0.00833333333333333	0	30	0.3625	2	0.744140625
3050.51171875	0.00833333333333333	0	-30	-10.1916666666667	2	0.876953125
3053.5625	0.00833333333333333	0	30	0.3625	2	0.642578125
3056.6953125	0.00833333333333333	0	-30	-10.1916666666667	2	1.8701171875
3060.8037109375	0.00833333333333333	0	-30	-10.1916666666667	2	0.7138671875
3063.662109375	0.00833333333333333	0	-30	-10.1916666666667	2	0.4873046875
3066.5703125	0.00833333333333333	0	-30	-10.1916666666667	2	2.1396484375
3070.8359375	0.00833333333333333	0	30	0.3625	2	0.76953125
3073.853515625	0.00833333333333333	0	30	0.3625	2	0.4326171875
3076.619140625	0.00833333333333333	0	-30	-10.3166666666667	2	0.146484375
3079.0361328125	0.00833333333333333	0	30	0.3625	2	1.09765625
3082.5869140625	0.00833333333333333	0	-30	-10.3166666666667	2	1.6748046875
3086.478515625	0.00833333333333333	0	-30	-10.3166666666667	1	0.607421875
3089.3955078125	0.00833333333333333	0	30	0.2375	2	2.7626953125
3094.6201171875	0.00833333333333333	0	-30	-10.3166666666667	2	2.322265625
3099.5537109375	0.00833333333333333	0	-30	-10.3166666666667	2	0.5732421875
3102.6279296875	0.00833333333333333	0	-30	-10.3166666666667	2	0.986328125
3106.1953125	0.00833333333333333	0	-30	-10.3166666666667	1	0.5234375
3108.8447265625	0.00833333333333333	0	30	0.2375	2	0.59375
3111.953125	0.00833333333333333	0	30	0.2375	2	1.5419921875
3115.919921875	0.00833333333333333	0	30	0.2375	1	0.8154296875
3118.9775390625	0.00833333333333333	0	30	0.2375	2	0.62109375
3122.169921875	0.00833333333333333	0	-30	-10.3166666666667	1	0.5576171875
3125.044921875	0.00833333333333333	0	-30	-10.3166666666667	1	0.658203125
3128.1357421875	0.00833333333333333	0	-30	-10.3166666666667	1	0.599609375
3131.0859375	0.00833333333333333	0	-30	-10.3166666666667	2	3.43359375
3136.669921875	0.00833333333333333	0	-30	-10.3166666666667	1	0.4814453125
3139.443359375	0.00833333333333333	0	30	0.2375	1	0.6279296875
3142.544921875	0.00833333333333333	0	-30	-10.3166666666667	1	0.783203125
3145.8779296875	0.00833333333333333	0	30	0.2375	2	0.9462890625
3149.0771484375	0.00833333333333333	0	30	0.2375	2	0.619140625
3151.9267578125	0.00833333333333333	0	-30	-10.3166666666667	1	0.4658203125
3154.810546875	0.00833333333333333	0	30	0.2375	2	0.6220703125
3157.84375	0.00833333333333333	0	30	0.2375	2	0.65234375
3160.71875	0.00833333333333333	0	-30	-10.3166666666667	2	1.7138671875
3164.8271484375	0.00833333333333333	0	-30	-10.3166666666667	1	0.59765625
3167.744140625	0.00833333333333333	0	-30	-10.3166666666667	1	0.5361328125
3170.4189453125	0.00833333333333333	0	-30	-10.3166666666667	1	0.60546875
3173.3935546875	0.00833333333333333	0	-30	-10.3166666666667	1	1.53515625
3177.068359375	0.00833333333333333	0	-30	-10.3166666666667	2	3.62109375
3183.21875	0.00833333333333333	0	30	0.2375	2	0.40625
3185.9599609375	0.00833333333333333	0	30	0.1125	1	0.7451171875
3188.818359375	0.00833333333333333	0	-30	-10.3166666666667	2	0.6787109375
3191.66796875	0.00833333333333333	0	-30	-10.3166666666667	1	0.7099609375
3194.4189453125	0.00833333333333333	0	30	0.1125	2	0.646484375
3197.259765625	0.00833333333333333	0	30	0.1125	2	0.486328125
3199.91015625	0.00833333333333333	0	-30	-10.3166666666667	2	0.4833984375
3202.91015625	0.00833333333333333	0	-30	-10.3166666666667	2	0.4033203125
3205.884765625	0.00833333333333333	0	30	0.1125	1	1.5810546875
3209.701171875	0.00833333333333333	0	-30	-10.3166666666667	1	0.548828125
3212.7265625	0.00833333333333333	0	-30	-10.3166666666667	1	0.603515625
3215.5087890625	0.00833333333333333	0	30	0.1125	1	0.009765625
3217.8515625	0.00833333333333333	0	-30	-10.3166666666667	2	0.5673828125
3220.818359375	0.00833333333333333	0	30	0.1125	2	0.9443359375
3224.2509765625	0.00833333333333333	0	-30	-10.3166666666667	2	2.751953125
3229.3935546875	0.00833333333333333	0	-30	-10.3166666666667	2	4.2412109375
3236.0263671875	0.00833333333333333	0	-30	-10.3166666666667	2	1.064453125
3239.466796875	0.00833333333333333	0	-30	-10.3166666666667	2	1.0166015625
3243.033203125	0.00833333333333333	0	-30	-10.4416666666667	2	0.1220703125
3245.4091796875	0.00833333333333333	0	30	0.1125	2	2.8662109375
3250.7080078125	0.00833333333333333	0	30	0.1125	2	0.8154296875
3253.701171875	0.00833333333333333	0	-30	-10.4416666666667	1	0.5341796875
3256.3095703125	0.00833333333333333	0	-30	-10.4416666666667	1	0.55078125
3259.142578125	0.00833333333333333	0	-30	-10.4416666666667	1	0.63671875
3262.1083984375	0.00833333333333333	0	-30	-10.4416666666667	2	0.1435546875
3264.5595703125	0.00833333333333333	0	30	0.1125	2	3.4765625
3270.2509765625	0.00833333333333333	0	30	0.1125	2	0.6572265625
3273.0927734375	0.00833333333333333	0	30	-0.0125	2	0.7998046875
3276.0087890625	0.00833333333333333	0	-30	-10.4416666666667	1	0.68359375
3279.1328125	0.00833333333333333	0	-30	-10.4416666666667	2	1.87109375
3283.1591796875	0.00833333333333333	0	30	-0.0125	1	0.708984375
3317.93359375	0.00833333333333333	0	-30	-10.4416666666667	1	0.7197265625
3320.783203125	0.00833333333333333	0	-30	-10.4416666666667	1	0.7578125
3323.732421875	0.00833333333333333	0	-30	-10.4416666666667	1	0.4013671875
3326.291015625	0.00833333333333333	0	30	-0.0125	1	0.73828125
3329.3583984375	0.00833333333333333	0	-30	-10.4416666666667	1	0.591796875
3332.4912109375	0.00833333333333333	0	-30	-10.4416666666667	2	6.2587890625
3340.8740234375	0.00833333333333333	0	-30	-10.4416666666667	2	0.037109375
3343.20703125	0.00833333333333333	0	30	-0.0125	1	0.9912109375
3346.4912109375	0.00833333333333333	0	30	-0.0125	2	0.5546875
3349.4580078125	0.00833333333333333	0	-30	-10.4416666666667	1	0.5166015625
3352.4404296875	0.00833333333333333	0	30	-0.0125	2	1.92578125
3356.607421875	0.00833333333333333	0	30	-0.0125	2	2.3515625
3361.4150390625	0.00833333333333333	0	30	-0.0125	2	0.015625
3363.69921875	0.00833333333333333	0	-30	-10.4416666666667	2	0.0205078125
3365.94140625	0.00833333333333333	0	30	-0.0125	2	0.0654296875
3368.2578125	0.00833333333333333	0	30	-0.1375	1	3.541015625
3374.03125	0.00833333333333333	0	-30	-10.4416666666667	1	0.82421875
3377.0654296875	0.00833333333333333	0	30	-0.1375	1	0.6220703125
3379.8154296875	0.00833333333333333	0	30	-0.1375	1	0.65625
3382.82421875	0.00833333333333333	0	-30	-10.4416666666667	2	3.462890625
3388.44921875	0.00833333333333333	0	30	-0.1375	2	2.0146484375
3392.7158203125	0.00833333333333333	0	-30	-10.4416666666667	2	1.6357421875
3396.4736328125	0.00833333333333333	0	-30	-10.4416666666667	2	0.4306640625
3399.431640625	0.00833333333333333	0	30	-0.1375	2	5.0322265625
3406.70703125	0.00833333333333333	0	30	-0.1375	1	0.8291015625
3409.923828125	0.00833333333333333	0	30	-0.1375	2	2.9248046875
3415.33984375	0.00833333333333333	0	-30	-10.4416666666667	2	4.1806640625
3421.7236328125	0.00833333333333333	0	-30	-10.4416666666667	1	0.525390625
3424.3486328125	0.00833333333333333	0	-30	-10.4416666666667	1	0.5078125
3426.9404296875	0.00833333333333333	0	30	-0.1375	2	1.3408203125
3430.564453125	0.00833333333333333	0	30	-0.1375	2	4.46875
3437.6064453125	0.00833333333333333	0	-30	-10.4416666666667	2	6.8271484375
3446.83984375	0.00833333333333333	0	-30	-10.4416666666667	2	3.9619140625
3453.1474609375	0.00833333333333333	0	30	-0.1375	2	6.3427734375
3461.681640625	0.00833333333333333	0	30	-0.1375	2	0.81640625
3464.939453125	0.00833333333333333	0	-30	-10.4416666666667	1	0.7509765625
3467.83984375	0.00833333333333333	0	30	-0.2625	2	1.4267578125
3471.78125	0.00833333333333333	0	30	-0.2625	2	0.62109375
3474.7216796875	0.00833333333333333	0	-30	-10.4416666666667	2	1.77734375
3479.0224609375	0.00833333333333333	0	30	-0.2625	1	5.5966796875
3487.205078125	0.00833333333333333	0	-30	-10.4416666666667	2	0.998046875
3490.40625	0.00833333333333333	0	30	-0.2625	1	0.65234375
3493.505859375	0.00833333333333333	0	-30	-10.4416666666667	1	0.9052734375
3496.5556640625	0.00833333333333333	0	-30	-10.4416666666667	2	1.6474609375
3500.6875	0.00833333333333333	0	-30	-10.4416666666667	1	1.923828125
3504.73046875	0.00833333333333333	0	30	-0.2625	2	3.11328125
3510.2138671875	0.00833333333333333	0	30	-0.2625	2	0.8701171875
3513.1962890625	0.00833333333333333	0	-30	-10.4416666666667	2	5.1513671875
3520.638671875	0.00833333333333333	0	30	-0.2625	2	2.4296875
3525.138671875	0.00833333333333333	0	-30	-10.4416666666667	2	1.25
3528.7470703125	0.00833333333333333	0	30	-0.2625	2	0.6171875
3531.896484375	0.00833333333333333	0	30	-0.2625	2	3.4677734375
3537.4296875	0.00833333333333333	0	30	-0.3875	2	0.5908203125
3540.412109375	0.00833333333333333	0	-30	-10.4416666666667	2	0.9765625
3543.771484375	0.00833333333333333	0	-30	-10.4416666666667	1	0.8251953125
3546.9052734375	0.00833333333333333	0	-30	-10.4416666666667	1	0.5234375
3549.6796875	0.00833333333333333	0	-30	-10.4416666666667	2	5.4375
3557.5712890625	0.00833333333333333	0	30	-0.3875	2	1.59375
3561.7451171875	0.00833333333333333	0	30	-0.3875	2	0.5478515625
3564.6884765625	0.00833333333333333	0	30	-0.3875	2	7.453125
3574.521484375	0.00833333333333333	0	-30	-10.4416666666667	1	1.740234375
3578.462890625	0.00833333333333333	0	30	-0.3875	2	1.7265625
3582.521484375	0.00833333333333333	0	-30	-10.4416666666667	2	2.6845703125
3587.7041015625	0.00833333333333333	0	-30	-10.4416666666667	1	0.6376953125
3590.5205078125	0.00833333333333333	0	-30	-10.4416666666667	2	4.61328125
3597.154296875	0.00833333333333333	0	30	-0.5125	1	0.587890625
3600.0791015625	0.00833333333333333	0	-30	-10.4416666666667	2	1.0556640625
3603.5283203125	0.00833333333333333	0	30	-0.5125	2	1.8310546875
3607.470703125	0.00833333333333333	0	-30	-10.4416666666667	2	3.2802734375
3613.287109375	0.00833333333333333	0	-30	-10.4416666666667	2	4.3759765625
3619.787109375	0.00833333333333333	0	30	-0.5125	2	7.244140625
3629.1201171875	0.00833333333333333	0	-30	-10.4416666666667	1	0.9599609375
3632.26171875	0.00833333333333333	0	30	-0.5125	1	0.76171875
3635.2373046875	0.00833333333333333	0	30	-0.5125	2	0.6904296875
3638.25390625	0.00833333333333333	0	30	-0.5125	2	0.6337890625
3641.4619140625	0.00833333333333333	0	-30	-10.4416666666667	2	1.07421875
3644.9287109375	0.00833333333333333	0	-30	-10.4416666666667	2	0.0791015625
3647.5029296875	0.00833333333333333	0	30	-0.5125	2	1.46484375
3651.162109375	0.00833333333333333	0	30	-0.5125	2	1.421875
3654.7197265625	0.00833333333333333	0	30	-0.5125	2	1.1845703125
3697.77734375	0.00833333333333333	0	30	-0.6375	1	0.8720703125
3701.1689453125	0.00833333333333333	0	30	-0.6375	1	0.568359375
3703.8525390625	0.00833333333333333	0	-30	-10.4416666666667	1	0.7255859375
3707.09375	0.00833333333333333	0	30	-0.6375	2	0.3876953125
3710.0361328125	0.00833333333333333	0	30	-0.6375	1	0.6376953125
3712.84375	0.00833333333333333	0	30	-0.6375	1	0.4619140625
3715.7353515625	0.00833333333333333	0	30	-0.6375	1	1.5947265625
3719.6103515625	0.00833333333333333	0	30	-0.6375	1	2.8955078125
3724.7685546875	0.00833333333333333	0	-30	-10.4416666666667	1	0.6259765625
3727.685546875	0.00833333333333333	0	30	-0.6375	1	3.0927734375
3733.02734375	0.00833333333333333	0	30	-0.5125	1	2.599609375
3737.9267578125	0.00833333333333333	0	-30	-10.4416666666667	1	0.595703125
3740.59375	0.00833333333333333	0	30	-0.5125	1	0.77734375
3743.9189453125	0.00833333333333333	0	-30	-10.4416666666667	1	0.5478515625
3746.59375	0.00833333333333333	0	-30	-10.4416666666667	1	0.4736328125
3749.6181640625	0.00833333333333333	0	-30	-10.3166666666667	1	0.7294921875
3752.6171875	0.00833333333333333	0	-30	-10.3166666666667	1	0.76171875
3755.66015625	0.00833333333333333	0	30	-0.5125	1	0.5595703125
3758.7265625	0.00833333333333333	0	30	-0.5125	2	0.28515625
3761.259765625	0.00833333333333333	0	-30	-10.3166666666667	2	6.9921875
3770.7099609375	0.00833333333333333	0	30	-0.5125	2	1.1337890625
3774.1845703125	0.00833333333333333	0	-30	-10.3166666666667	1	2.955078125
3779.66796875	0.00833333333333333	0	30	-0.5125	1	0.81640625
3782.9921875	0.00833333333333333	0	30	-0.5125	1	1.2685546875
3786.55078125	0.00833333333333333	0	30	-0.5125	1	0.7734375
3789.701171875	0.00833333333333333	0	-30	-10.3166666666667	1	0.599609375
3792.326171875	0.00833333333333333	0	30	-0.5125	1	0.6220703125
3794.9765625	0.00833333333333333	0	30	-0.5125	2	0.66015625
3798.0166015625	0.00833333333333333	0	-30	-10.3166666666667	2	0.7646484375
3801.29296875	0.00833333333333333	0	30	-0.5125	2	0.3681640625
3804.142578125	0.00833333333333333	0	30	-0.5125	1	0.5419921875
3807.142578125	0.00833333333333333	0	30	-0.5125	2	3.1025390625
3812.54296875	0.00833333333333333	0	-30	-10.3166666666667	1	0.5107421875
3815.3427734375	0.00833333333333333	0	-30	-10.3166666666667	2	0.7021484375
3818.4423828125	0.00833333333333333	0	-30	-10.3166666666667	1	0.466796875
3821.2177734375	0.00833333333333333	0	-30	-10.3166666666667	1	0.4677734375
3823.8759765625	0.00833333333333333	0	30	-0.5125	2	0.609375
3826.576171875	0.00833333333333333	0	30	-0.5125	1	0.7333984375
3829.6171875	0.00833333333333333	0	-30	-10.3166666666667	2	1.365234375
3833.4345703125	0.00833333333333333	0	-30	-10.3166666666667	1	0.4912109375
3836.2919921875	0.00833333333333333	0	30	-0.5125	1	0.609375
3839.0673828125	0.00833333333333333	0	30	-0.5125	2	2.1630859375
3843.716796875	0.00833333333333333	0	-30	-10.3166666666667	2	0.017578125
3846.07421875	0.00833333333333333	0	30	-0.5125	2	0.7158203125
3849.2333984375	0.00833333333333333	0	30	-0.5125	2	0.876953125
3852.43359375	0.00833333333333333	0	30	-0.5125	1	1.1484375
3855.6748046875	0.00833333333333333	0	-30	-10.3166666666667	1	0.7236328125
3858.8583984375	0.00833333333333333	0	-30	-10.3166666666667	1	0.732421875
3861.9658203125	0.00833333333333333	0	30	-0.5125	1	0.6728515625
3864.7998046875	0.00833333333333333	0	30	-0.5125	2	0.630859375
3867.9169921875	0.00833333333333333	0	-30	-10.3166666666667	1	0.6259765625
3870.7919921875	0.00833333333333333	0	30	-0.5125	2	0.4951171875
3873.4912109375	0.00833333333333333	0	30	-0.5125	1	0.7001953125
3876.6748046875	0.00833333333333333	0	30	-0.5125	2	0.484375
3879.658203125	0.00833333333333333	0	30	-0.5125	2	0.60546875
3882.5322265625	0.00833333333333333	0	30	-0.5125	2	0.5068359375
3885.158203125	0.00833333333333333	0	-30	-10.3166666666667	2	2.7529296875
3890.1494140625	0.00833333333333333	0	30	-0.5125	1	0.666015625
3893.166015625	0.00833333333333333	0	-30	-10.3166666666667	1	0.5859375
3895.9580078125	0.00833333333333333	0	-30	-10.3166666666667	2	3.6181640625
3901.9580078125	0.00833333333333333	0	30	-0.5125	2	0.6181640625
3904.81640625	0.00833333333333333	0	-30	-10.3166666666667	1	0.50390625
3907.6494140625	0.00833333333333333	0	30	-0.5125	2	0.5595703125
3910.56640625	0.00833333333333333	0	30	-0.5125	2	0.75390625
3913.4990234375	0.00833333333333333	0	30	-0.5125	2	0.8857421875
3916.5576171875	0.00833333333333333	0	30	-0.5125	2	0.939453125
3919.8232421875	0.00833333333333333	0	30	-0.6375	2	0.8173828125
3922.7578125	0.00833333333333333	0	-30	-10.3166666666667	1	0.71484375
3925.9326171875	0.00833333333333333	0	-30	-10.3166666666667	1	0.6357421875
3929.0830078125	0.00833333333333333	0	-30	-10.3166666666667	2	1.0859375
3932.607421875	0.00833333333333333	0	-30	-10.3166666666667	2	0.673828125
3935.82421875	0.00833333333333333	0	-30	-10.3166666666667	2	0.9052734375
3939.2744140625	0.00833333333333333	0	30	-0.6375	2	0.8466796875
3942.5986328125	0.00833333333333333	0	-30	-10.3166666666667	2	0.72265625
3945.5322265625	0.00833333333333333	0	-30	-10.3166666666667	1	0.6455078125
3948.4990234375	0.00833333333333333	0	30	-0.6375	2	0.55078125
3951.298828125	0.00833333333333333	0	-30	-10.3166666666667	1	0.55859375
3954.140625	0.00833333333333333	0	-30	-10.3166666666667	1	0.8291015625
3957.2158203125	0.00833333333333333	0	30	-0.6375	2	0.681640625
3960.4150390625	0.00833333333333333	0	-30	-10.3166666666667	2	0.009765625
3984.8720703125	0.00833333333333333	0	30	-0.6375	2	0.6826171875
3988.0654296875	0.00833333333333333	0	30	-0.7625	2	1.009765625
3991.4404296875	0.00833333333333333	0	-30	-10.3166666666667	1	0.5458984375
3994.33203125	0.00833333333333333	0	30	-0.7625	1	0.5986328125
3997.3056640625	0.00833333333333333	0	30	-0.7625	2	0.9296875
4000.4150390625	0.00833333333333333	0	-30	-10.3166666666667	1	0.6201171875
4003.431640625	0.00833333333333333	0	30	-0.7625	2	1.8193359375
4007.6142578125	0.00833333333333333	0	-30	-10.3166666666667	1	0.61328125
4010.5400390625	0.00833333333333333	0	30	-0.7625	1	0.9599609375
4013.6142578125	0.00833333333333333	0	-30	-10.3166666666667	2	1.197265625
4016.939453125	0.00833333333333333	0	30	-0.7625	2	0.8642578125
4020.28125	0.00833333333333333	0	-30	-10.3166666666667	2	3.466796875
4025.9228515625	0.00833333333333333	0	-30	-10.3166666666667	1	3.6494140625
4031.8896484375	0.00833333333333333	0	30	-0.7625	2	0.7548828125
4035.03125	0.00833333333333333	0	30	-0.7625	2	3.5009765625
4040.8720703125	0.00833333333333333	0	30	-0.7625	2	0.8125
4044.064453125	0.00833333333333333	0	30	-0.7625	2	0.46875
4047.123046875	0.00833333333333333	0	-30	-10.3166666666667	1	0.6494140625
4049.8720703125	0.00833333333333333	0	30	-0.8875	2	1.4052734375
4053.796875	0.00833333333333333	0	-30	-10.3166666666667	1	0.4716796875
4056.638671875	0.00833333333333333	0	-30	-10.3166666666667	2	2.1181640625
4061.263671875	0.00833333333333333	0	30	-0.8875	1	1.09375
4064.8974609375	0.00833333333333333	0	-30	-10.3166666666667	2	3.2919921875
4070.6630859375	0.00833333333333333	0	30	-0.8875	2	0.6142578125
4073.7392578125	0.00833333333333333	0	30	-0.8875	2	1.505859375
4077.49609375	0.00833333333333333	0	-30	-10.3166666666667	2	0.1015625
4079.896484375	0.00833333333333333	0	-30	-10.3166666666667	2	0.6533203125
4082.9384765625	0.00833333333333333	0	-30	-10.3166666666667	1	0.6669921875
4085.837890625	0.00833333333333333	0	30	-0.8875	2	1.9921875
4090.0888671875	0.00833333333333333	0	30	-0.8875	2	0.6533203125
4093.2880859375	0.00833333333333333	0	30	-0.8875	2	2.830078125
4098.5302734375	0.00833333333333333	0	-30	-10.3166666666667	1	0.5078125
4101.3720703125	0.00833333333333333	0	-30	-10.3166666666667	1	0.74609375
4104.6796875	0.00833333333333333	0	-30	-10.3166666666667	1	0.9033203125
4108.0966796875	0.00833333333333333	0	-30	-10.3166666666667	2	1.982421875
4112.6962890625	0.00833333333333333	0	-30	-10.3166666666667	2	0.630859375
4115.6552734375	0.00833333333333333	0	30	-1.0125	1	4.1357421875
4122.046875	0.00833333333333333	0	-30	-10.3166666666667	2	1.16015625
4125.3876953125	0.00833333333333333	0	-30	-10.3166666666667	2	4.00390625
4131.49609375	0.00833333333333333	0	-30	-10.3166666666667	2	0.615234375
4134.5712890625	0.00833333333333333	0	30	-1.0125	2	0.259765625
4137.4130859375	0.00833333333333333	0	30	-1.0125	2	0.7548828125
4140.3212890625	0.00833333333333333	0	-30	-10.4416666666667	2	0.87109375
4143.3291015625	0.00833333333333333	0	30	-1.0125	2	0.5029296875
4146.37890625	0.00833333333333333	0	30	-1.0125	2	0.5810546875
4149.3544921875	0.00833333333333333	0	-30	-10.4416666666667	2	0.61328125
4152.220703125	0.00833333333333333	0	-30	-10.4416666666667	2	0.8837890625
4155.24609375	0.00833333333333333	0	30	-1.0125	2	0.7861328125
4158.3623046875	0.00833333333333333	0	-30	-10.4416666666667	2	0.6220703125
4161.103515625	0.00833333333333333	0	30	-1.1375	2	0.78515625
4164.37890625	0.00833333333333333	0	30	-1.1375	1	0.8857421875
4167.4375	0.00833333333333333	0	30	-1.1375	2	1.3388671875
4171.0869140625	0.00833333333333333	0	-30	-10.4416666666667	2	1.5615234375
4175.1787109375	0.00833333333333333	0	-30	-10.5666666666667	2	3.89453125
4181.37890625	0.00833333333333333	0	30	-1.1375	2	1.166015625
4184.7119140625	0.00833333333333333	0	30	-1.1375	2	0.44140625
4187.662109375	0.00833333333333333	0	-30	-10.5666666666667	1	0.546875
4190.720703125	0.00833333333333333	0	-30	-10.5666666666667	1	0.4560546875
4193.603515625	0.00833333333333333	0	30	-1.1375	1	0.5732421875
4196.5537109375	0.00833333333333333	0	-30	-10.5666666666667	1	0.751953125
4199.5703125	0.00833333333333333	0	30	-1.1375	2	0.6953125
4202.4951171875	0.00833333333333333	0	-30	-10.5666666666667	1	0.611328125
4205.537109375	0.00833333333333333	0	30	-1.1375	2	5.6171875
4213.7197265625	0.00833333333333333	0	30	-1.1375	2	0.505859375
4216.5537109375	0.00833333333333333	0	30	-1.1375	2	2.537109375
4221.361328125	0.00833333333333333	0	30	-1.1375	2	0.544921875
4224.0947265625	0.00833333333333333	0	-30	-10.5666666666667	2	2.2275390625
4228.6611328125	0.00833333333333333	0	30	-1.2625	2	0.5888671875
4231.76171875	0.00833333333333333	0	-30	-10.5666666666667	1	0.6572265625
4234.9189453125	0.00833333333333333	0	30	-1.2625	1	2.060546875
4239.46875	0.00833333333333333	0	-30	-10.5666666666667	1	0.8779296875
4242.453125	0.00833333333333333	0	30	-1.2625	1	1.4541015625
4246.251953125	0.00833333333333333	0	-30	-10.5666666666667	1	0.6396484375
4249.01953125	0.00833333333333333	0	-30	-10.5666666666667	1	0.447265625
4252.001953125	0.00833333333333333	0	-30	-10.5666666666667	1	0.5615234375
4254.76953125	0.00833333333333333	0	30	-1.2625	1	0.7939453125
4257.986328125	0.00833333333333333	0	-30	-10.4416666666667	1	0.5048828125
4260.685546875	0.00833333333333333	0	-30	-10.4416666666667	1	0.5419921875
4263.3525390625	0.00833333333333333	0	30	-1.2625	2	0.4912109375
4266.14453125	0.00833333333333333	0	30	-1.2625	2	0.7705078125
4345.0849609375	0.00833333333333333	0	30	-1.2625	1	1.353515625
4348.6181640625	0.00833333333333333	0	30	-1.2625	1	0.6923828125
4351.5849609375	0.00833333333333333	0	-30	-10.4416666666667	1	0.60546875
4354.6591796875	0.00833333333333333	0	-30	-10.4416666666667	1	0.5634765625
4357.4423828125	0.00833333333333333	0	-30	-10.4416666666667	2	0.564453125
4360.5263671875	0.00833333333333333	0	30	-1.2625	1	0.6640625
4363.6259765625	0.00833333333333333	0	30	-1.2625	1	0.4365234375
4366.208984375	0.00833333333333333	0	-30	-10.4416666666667	1	0.509765625
4368.9423828125	0.00833333333333333	0	30	-1.2625	1	0.45703125
4371.451171875	0.00833333333333333	0	-30	-10.4416666666667	1	0.4755859375
4374.083984375	0.00833333333333333	0	-30	-10.4416666666667	1	0.435546875
4377.0009765625	0.00833333333333333	0	-30	-10.4416666666667	2	0.638671875
4380.208984375	0.00833333333333333	0	30	-1.1375	1	0.669921875
4383.1171875	0.00833333333333333	0	-30	-10.4416666666667	2	0.6416015625
4385.93359375	0.00833333333333333	0	-30	-10.4416666666667	2	0.6337890625
4388.8427734375	0.00833333333333333	0	30	-1.1375	1	0.716796875
4391.8837890625	0.00833333333333333	0	-30	-10.4416666666667	2	0.6513671875
4394.92578125	0.00833333333333333	0	30	-1.1375	1	0.73828125
4397.93359375	0.00833333333333333	0	-30	-10.4416666666667	2	0.841796875
4401.1005859375	0.00833333333333333	0	-30	-10.5666666666667	2	0.5791015625
4404.0009765625	0.00833333333333333	0	30	-1.1375	2	1.53515625
4408.083984375	0.00833333333333333	0	30	-1.1375	1	1.0048828125
4411.43359375	0.00833333333333333	0	-30	-10.5666666666667	1	0.55859375
4414.3662109375	0.00833333333333333	0	-30	-10.5666666666667	2	2.9306640625
4419.68359375	0.00833333333333333	0	30	-1.1375	1	0.8212890625
4422.8583984375	0.00833333333333333	0	30	-1.1375	1	0.662109375
4425.966796875	0.00833333333333333	0	30	-1.1375	1	0.498046875
4428.6748046875	0.00833333333333333	0	-30	-10.5666666666667	1	0.57421875
4431.724609375	0.00833333333333333	0	-30	-10.5666666666667	1	0.396484375
4434.6337890625	0.00833333333333333	0	30	-1.1375	1	0.623046875
4437.80859375	0.00833333333333333	0	-30	-10.5666666666667	1	0.5048828125
4440.466796875	0.00833333333333333	0	-30	-10.5666666666667	1	0.478515625
4443.4169921875	0.00833333333333333	0	-30	-10.5666666666667	1	0.5361328125
4446.1328125	0.00833333333333333	0	30	-1.0125	1	1.724609375
4450.1083984375	0.00833333333333333	0	-30	-10.4416666666667	1	0.5888671875
4453.015625	0.00833333333333333	0	30	-1.0125	1	0.009765625
4455.0166015625	0.00833333333333333	0	30	-1.0125	1	0.9453125
4458.158203125	0.00833333333333333	0	30	-1.0125	1	0.7158203125
4461.0322265625	0.00833333333333333	0	30	-1.0125	1	1.5859375
4464.9912109375	0.00833333333333333	0	30	-0.8875	2	2.794921875
4469.9658203125	0.00833333333333333	0	30	-0.8875	1	0.6201171875
4472.890625	0.00833333333333333	0	-30	-10.4416666666667	1	0.51171875
4475.791015625	0.00833333333333333	0	-30	-10.4416666666667	1	0.4833984375
4478.4072265625	0.00833333333333333	0	-30	-10.4416666666667	1	2.33984375
4483.1826171875	0.00833333333333333	0	-30	-10.4416666666667	1	0.009765625
4485.291015625	0.00833333333333333	0	-30	-10.3166666666667	1	0.009765625
4487.6328125	0.00833333333333333	0	30	-0.8875	1	0.77734375
4490.916015625	0.00833333333333333	0	-30	-10.3166666666667	1	0.5029296875
4493.791015625	0.00833333333333333	0	30	-0.8875	1	2.6279296875
4498.515625	0.00833333333333333	0	30	-0.8875	1	1.7353515625
4502.6318359375	0.00833333333333333	0	-30	-10.3166666666667	1	1.0673828125
4506.0908203125	0.00833333333333333	0	-30	-10.3166666666667	1	0.6484375
4509.1572265625	0.00833333333333333	0	-30	-10.3166666666667	1	0.5185546875
4512.1826171875	0.00833333333333333	0	30	-0.8875	1	2.0048828125
4516.556640625	0.00833333333333333	0	-30	-10.1916666666667	1	0.71875
4519.4990234375	0.00833333333333333	0	30	-0.7625	1	6.6005859375
4528.482421875	0.00833333333333333	0	-30	-10.1916666666667	2	0.7216796875
4531.5732421875	0.00833333333333333	0	30	-0.7625	2	1.638671875
4535.673828125	0.00833333333333333	0	30	-0.7625	2	1.1142578125
4539.20703125	0.00833333333333333	0	-30	-10.1916666666667	2	0.6455078125
4541.9736328125	0.00833333333333333	0	-30	-10.1916666666667	2	0.638671875
4544.90625	0.00833333333333333	0	30	-0.7625	2	0.994140625
4548.0986328125	0.00833333333333333	0	30	-0.7625	2	0.6103515625
4550.90625	0.00833333333333333	0	-30	-10.1916666666667	2	0.4423828125
4553.7900390625	0.00833333333333333	0	30	-0.7625	2	1.0791015625
4556.998046875	0.00833333333333333	0	-30	-10.1916666666667	2	0.615234375
4559.748046875	0.00833333333333333	0	-30	-10.3166666666667	2	0.5693359375
4562.46484375	0.00833333333333333	0	30	-0.8875	2	0.5087890625
4565.0810546875	0.00833333333333333	0	-30	-10.3166666666667	2	0.724609375
4568.1728515625	0.00833333333333333	0	30	-0.8875	2	0.552734375
4570.97265625	0.00833333333333333	0	-30	-10.3166666666667	2	3.353515625
4576.46484375	0.00833333333333333	0	30	-0.8875	2	0.6767578125
4579.2724609375	0.00833333333333333	0	-30	-10.3166666666667	2	1.8046875
4583.22265625	0.00833333333333333	0	-30	-10.3166666666667	2	2.3427734375
4587.8388671875	0.00833333333333333	0	30	-0.8875	2	0.6787109375
4591.0732421875	0.00833333333333333	0	30	-0.8875	2	1.4443359375
4594.8046875	0.00833333333333333	0	-30	-10.4416666666667	2	0.0107421875
4597.10546875	0.00833333333333333	0	30	-1.0125	2	1.2607421875
4600.462890625	0.00833333333333333	0	-30	-10.4416666666667	2	0.6396484375
4603.4306640625	0.00833333333333333	0	30	-1.0125	2	0.591796875
4639.1806640625	0.00833333333333333	0	-30	-10.4416666666667	2	1.435546875
4642.830078125	0.00833333333333333	0	30	-1.0125	1	0.490234375
4645.7138671875	0.00833333333333333	0	30	-1.0125	2	0.9814453125
4649.080078125	0.00833333333333333	0	30	-1.0125	2	0.6875
4652.0380859375	0.00833333333333333	0	30	-1.0125	2	0.4580078125
4654.7802734375	0.00833333333333333	0	-30	-10.4416666666667	2	0.7958984375
4657.7294921875	0.00833333333333333	0	-30	-10.4416666666667	2	0.486328125
4660.5380859375	0.00833333333333333	0	30	-1.0125	2	0.478515625
4663.080078125	0.00833333333333333	0	30	-1.0125	2	0.984375
4666.1630859375	0.00833333333333333	0	30	-1.1375	1	0.6689453125
4669.0703125	0.00833333333333333	0	30	-1.1375	1	0.7783203125
4672.080078125	0.00833333333333333	0	30	-1.1375	1	0.5361328125
4674.779296875	0.00833333333333333	0	30	-1.1375	1	0.5732421875
4677.4208984375	0.00833333333333333	0	-30	-10.5666666666667	1	0.5234375
4680.4208984375	0.00833333333333333	0	30	-1.1375	1	0.5322265625
4683.0048828125	0.00833333333333333	0	-30	-10.5666666666667	2	0.6044921875
4685.9208984375	0.00833333333333333	0	30	-1.0125	1	0.50390625
4688.8466796875	0.00833333333333333	0	30	-1.0125	1	0.578125
4691.6376953125	0.00833333333333333	0	30	-1.0125	1	0.6591796875
4694.5625	0.00833333333333333	0	-30	-10.5666666666667	2	2.6708984375
4699.669921875	0.00833333333333333	0	-30	-10.5666666666667	2	0.435546875
4702.3125	0.00833333333333333	0	-30	-10.5666666666667	2	0.521484375
4705.1044921875	0.00833333333333333	0	-30	-10.5666666666667	2	0.6337890625
4708.212890625	0.00833333333333333	0	30	-1.0125	2	0.4609375
4711.1044921875	0.00833333333333333	0	30	-1.0125	1	0.6328125
4714.2529296875	0.00833333333333333	0	30	-1.0125	2	0.5966796875
4717.1455078125	0.00833333333333333	0	-30	-10.6916666666667	1	1.8408203125
4721.212890625	0.00833333333333333	0	-30	-10.6916666666667	2	0.5087890625
4724.1953125	0.00833333333333333	0	30	-1.0125	2	4.0634765625
4730.8037109375	0.00833333333333333	0	-30	-10.6916666666667	2	0.0390625
4733.12890625	0.00833333333333333	0	30	-1.0125	2	2.2900390625
4737.5537109375	0.00833333333333333	0	30	-1.0125	1	2.2568359375
4742.2451171875	0.00833333333333333	0	30	-1.0125	2	0.5498046875
4744.90234375	0.00833333333333333	0	30	-1.0125	2	1.6767578125
4748.7451171875	0.00833333333333333	0	-30	-10.6916666666667	2	0.009765625
4750.9619140625	0.00833333333333333	0	-30	-10.6916666666667	2	0.4091796875
4753.5703125	0.00833333333333333	0	30	-1.0125	2	0.5126953125
4756.2197265625	0.00833333333333333	0	-30	-10.6916666666667	2	0.447265625
4759.203125	0.00833333333333333	0	-30	-10.8166666666667	2	0.13671875
4761.63671875	0.00833333333333333	0	-30	-10.8166666666667	2	1.86328125
4765.978515625	0.00833333333333333	0	30	-1.0125	2	4.28125
4772.5283203125	0.00833333333333333	0	30	-1.0125	2	3.3798828125
4778.38671875	0.00833333333333333	0	30	-1.1375	1	0.361328125
4780.9619140625	0.00833333333333333	0	-30	-10.8166666666667	2	0.337890625
4783.7119140625	0.00833333333333333	0	-30	-10.8166666666667	2	0.5
4786.7607421875	0.00833333333333333	0	30	-1.1375	1	0.3798828125
4789.2529296875	0.00833333333333333	0	30	-1.1375	2	0.5673828125
4792.3359375	0.00833333333333333	0	-30	-10.8166666666667	2	0.564453125
4795.294921875	0.00833333333333333	0	30	-1.1375	2	0.3173828125
4798.001953125	0.00833333333333333	0	30	-1.1375	1	0.8427734375
4801.2783203125	0.00833333333333333	0	-30	-10.9416666666667	2	0.5341796875
4804.111328125	0.00833333333333333	0	-30	-10.9416666666667	2	0.58203125
4806.8447265625	0.00833333333333333	0	30	-1.1375	1	1.1044921875
4810.0029296875	0.00833333333333333	0	30	-1.1375	1	0.6103515625
4812.9765625	0.00833333333333333	0	30	-1.1375	1	0.388671875
4815.5859375	0.00833333333333333	0	30	-1.1375	1	2.69921875
4820.40234375	0.00833333333333333	0	30	-1.0125	1	0.5234375
4823.0693359375	0.00833333333333333	0	-30	-10.9416666666667	2	0.392578125
4825.619140625	0.00833333333333333	0	-30	-10.9416666666667	2	2.5146484375
4830.611328125	0.00833333333333333	0	30	-1.0125	2	1.154296875
4833.9521484375	0.00833333333333333	0	30	-1.0125	2	1.1494140625
4837.6025390625	0.00833333333333333	0	-30	-10.9416666666667	2	0.6435546875
4840.6357421875	0.00833333333333333	0	-30	-11.0666666666667	2	0.4580078125
4843.5927734375	0.00833333333333333	0	-30	-11.0666666666667	2	0.3896484375
4846.2763671875	0.00833333333333333	0	30	-1.0125	2	0.8662109375
4849.2841796875	0.00833333333333333	0	30	-1.0125	2	1.1376953125
4852.6025390625	0.00833333333333333	0	-30	-11.0666666666667	2	0.5400390625
4855.40234375	0.00833333333333333	0	30	-1.0125	2	1.7880859375
4859.2685546875	0.00833333333333333	0	30	-1.1375	2	0.7060546875
4862.3017578125	0.00833333333333333	0	30	-1.1375	2	0.76171875
4865.4599609375	0.00833333333333333	0	30	-1.1375	2	1.810546875
4869.3515625	0.00833333333333333	0	30	-1.1375	2	0.54296875
4872.193359375	0.00833333333333333	0	-30	-11.0666666666667	2	1.92578125
4876.484375	0.00833333333333333	0	-30	-11.0666666666667	2	0.4990234375
4879.4931640625	0.00833333333333333	0	-30	-11.1916666666667	2	0.482421875
4882.4853515625	0.00833333333333333	0	-30	-11.1916666666667	2	2.6904296875
4887.576171875	0.00833333333333333	0	30	-1.1375	2	0.759765625
4890.5185546875	0.00833333333333333	0	30	-1.2625	2	0.873046875
4893.6513671875	0.00833333333333333	0	30	-1.2625	2	0.7490234375
4896.8759765625	0.00833333333333333	0	30	-1.2625	2	0.5
