onset	duration	titr	surround	centre	response	rt
10.1533203125	0.00833333333333333	1	NaN	15	1	1.4228515625
13.8544921875	0.00833333333333333	1	-30	-15	2	1.521484375
17.7978515625	0.00833333333333333	1	30	-15	2	1.8740234375
22.037109375	0.00833333333333333	1	-30	-16	2	1.3232421875
25.4609375	0.00833333333333333	1	-30	15	1	0.771484375
28.427734375	0.00833333333333333	1	-30	16	1	0.7568359375
31.5625	0.00833333333333333	1	30	-16	2	0.662109375
34.4873046875	0.00833333333333333	1	30	15	1	0.6650390625
37.578125	0.00833333333333333	1	NaN	-15	2	0.5908203125
40.5625	0.00833333333333333	1	-30	17	1	0.7744140625
43.5703125	0.00833333333333333	1	NaN	16	1	0.4462890625
46.3955078125	0.00833333333333333	1	30	-17	2	0.9658203125
49.7783203125	0.00833333333333333	1	-30	-17	1	0.5029296875
52.677734375	0.00833333333333333	1	-30	18	1	1.1474609375
55.8623046875	0.00833333333333333	1	NaN	17	1	28.091796875
86.26171875	0.00833333333333333	1	NaN	-16	1	0.98046875
89.669921875	0.00833333333333333	1	NaN	-15	1	0.8203125
92.802734375	0.00833333333333333	1	NaN	18	2	0.7119140625
95.9775390625	0.00833333333333333	1	-30	19	2	0.6572265625
99.0029296875	0.00833333333333333	1	30	16	2	1.16796875
102.736328125	0.00833333333333333	1	30	-18	1	0.71484375
106.0107421875	0.00833333333333333	1	-30	-16	1	1.0556640625
109.185546875	0.00833333333333333	1	30	15	1	0.921875
112.4697265625	0.00833333333333333	1	NaN	17	2	0.9169921875
115.9775390625	0.00833333333333333	1	NaN	16	2	0.521484375
118.65234375	0.00833333333333333	1	-30	18	2	0.6552734375
121.427734375	0.00833333333333333	1	NaN	-14	1	0.9833984375
124.8017578125	0.00833333333333333	1	30	16	2	0.7294921875
127.677734375	0.00833333333333333	1	NaN	-13	1	0.71875
130.501953125	0.00833333333333333	1	30	-17	1	0.58203125
133.59375	0.00833333333333333	1	-30	-15	2	0.73828125
136.84375	0.00833333333333333	1	30	-16	1	0.6162109375
140.060546875	0.00833333333333333	1	NaN	15	2	0.50390625
143.0263671875	0.00833333333333333	1	-30	-16	2	0.6494140625
145.90234375	0.00833333333333333	1	30	15	2	0.56640625
148.91015625	0.00833333333333333	1	-30	-17	1	0.6298828125
152.0107421875	0.00833333333333333	1	NaN	-12	1	0.5615234375
155.09375	0.00833333333333333	1	-30	-16	1	0.4951171875
158.1103515625	0.00833333333333333	1	-30	17	2	0.5107421875
161.251953125	0.00833333333333333	1	NaN	14	2	0.873046875
164.59375	0.00833333333333333	1	-30	16	2	0.5869140625
167.4013671875	0.00833333333333333	1	30	-15	1	0.9794921875
170.6767578125	0.00833333333333333	1	30	-14	1	0.6005859375
173.751953125	0.00833333333333333	1	30	14	2	1.205078125
177.4267578125	0.00833333333333333	1	-30	-15	2	0.890625
180.6005859375	0.00833333333333333	1	30	13	2	0.740234375
183.583984375	0.00833333333333333	1	-30	-16	2	1.0537109375
187.201171875	0.00833333333333333	1	NaN	-11	1	1.083984375
190.8505859375	0.00833333333333333	1	30	12	2	0.7705078125
193.892578125	0.00833333333333333	1	-30	15	2	0.625
197.1181640625	0.00833333333333333	1	NaN	-10	1	0.7353515625
200.1015625	0.00833333333333333	1	30	-13	1	0.7998046875
203.1845703125	0.00833333333333333	1	30	11	2	0.7255859375
206.4765625	0.00833333333333333	1	NaN	-9	1	1.0341796875
209.6181640625	0.00833333333333333	1	30	-12	1	0.7080078125
212.833984375	0.00833333333333333	1	30	-11	1	0.7001953125
215.8837890625	0.00833333333333333	1	30	10	2	0.7783203125
219.0341796875	0.00833333333333333	1	-30	14	2	0.6923828125
222.17578125	0.00833333333333333	1	-30	-17	2	0.783203125
225.109375	0.00833333333333333	1	-30	13	2	0.537109375
228.0341796875	0.00833333333333333	1	30	-10	1	0.892578125
231.1845703125	0.00833333333333333	1	30	-9	1	0.630859375
234.2001953125	0.00833333333333333	1	NaN	13	2	0.6796875
237.2412109375	0.00833333333333333	1	NaN	12	2	0.662109375
240.1171875	0.00833333333333333	1	30	9	2	0.681640625
243.3583984375	0.00833333333333333	1	NaN	11	2	0.705078125
246.275390625	0.00833333333333333	1	-30	12	2	0.7001953125
249.18359375	0.00833333333333333	1	30	-8	1	1.064453125
252.583984375	0.00833333333333333	1	NaN	-8	2	0.9677734375
255.8173828125	0.00833333333333333	1	NaN	10	2	0.7265625
258.8837890625	0.00833333333333333	1	NaN	9	2	0.755859375
262.1826171875	0.00833333333333333	1	-30	-18	1	1.5048828125
266.1494140625	0.00833333333333333	1	NaN	8	2	0.70703125
269.0498046875	0.00833333333333333	1	-30	-17	1	1.1982421875
272.5322265625	0.00833333333333333	1	NaN	-9	1	0.8037109375
275.6337890625	0.00833333333333333	1	NaN	-8	1	0.8310546875
278.7998046875	0.00833333333333333	1	-30	11	2	1.0166015625
282.06640625	0.00833333333333333	1	-30	-16	1	0.830078125
285.349609375	0.00833333333333333	1	30	-7	1	0.7548828125
288.6494140625	0.00833333333333333	1	-30	10	2	0.7275390625
291.68359375	0.00833333333333333	1	-30	-15	2	0.7978515625
294.591796875	0.00833333333333333	1	30	8	2	0.865234375
297.6904296875	0.00833333333333333	1	30	-6	1	0.990234375
301.158203125	0.00833333333333333	1	NaN	-7	1	0.810546875
304.357421875	0.00833333333333333	1	30	7	1	1.01171875
307.8154296875	0.00833333333333333	1	30	8	1	1.3779296875
329.4736328125	0.00833333333333333	1	30	-5	2	60.634765625
392.431640625	0.00833333333333333	1	NaN	7	2	1.572265625
396.2392578125	0.00833333333333333	1	-30	9	2	0.96484375
399.5400390625	0.00833333333333333	1	-30	-16	1	0.728515625
402.748046875	0.00833333333333333	1	30	9	2	0.728515625
405.9892578125	0.00833333333333333	1	NaN	6	2	0.607421875
408.7470703125	0.00833333333333333	1	-30	-15	2	0.7373046875
412.03125	0.00833333333333333	1	30	-6	1	1.2529296875
415.4228515625	0.00833333333333333	1	NaN	5	2	2.0546875
419.9814453125	0.00833333333333333	1	NaN	4	2	0.6630859375
423.005859375	0.00833333333333333	1	-30	-16	2	4.0478515625
429.2802734375	0.00833333333333333	1	30	8	2	0.9970703125
432.40625	0.00833333333333333	1	NaN	3	2	0.798828125
435.58984375	0.00833333333333333	1	30	7	2	0.7275390625
438.5390625	0.00833333333333333	1	-30	-17	2	1.1943359375
442.130859375	0.00833333333333333	1	-30	8	2	0.890625
445.28125	0.00833333333333333	1	NaN	-6	1	0.8681640625
448.74609375	0.00833333333333333	1	-30	7	1	1.923828125
453.1044921875	0.00833333333333333	1	-30	-18	1	1.4453125
456.814453125	0.00833333333333333	1	NaN	-5	1	0.9755859375
460.013671875	0.00833333333333333	1	NaN	2	2	0.9287109375
463.4560546875	0.00833333333333333	1	NaN	-4	1	1.23046875
466.86328125	0.00833333333333333	1	30	-5	1	1.6875
471.11328125	0.00833333333333333	1	NaN	1	1	1.044921875
474.4140625	0.00833333333333333	1	30	6	1	1.064453125
477.5302734375	0.00833333333333333	1	NaN	-3	2	1.037109375
480.8388671875	0.00833333333333333	1	NaN	-4	2	1.49609375
484.755859375	0.00833333333333333	1	NaN	-5	2	1.1630859375
488.2548828125	0.00833333333333333	1	30	-4	1	1.08984375
491.7958984375	0.00833333333333333	1	-30	-17	1	0.9150390625
494.8466796875	0.00833333333333333	1	30	7	1	2.4091796875
499.85546875	0.00833333333333333	1	-30	8	2	1
503.087890625	0.00833333333333333	1	30	-3	1	0.9755859375
506.205078125	0.00833333333333333	1	30	8	2	0.7548828125
509.4052734375	0.00833333333333333	1	30	-2	1	0.810546875
512.3291015625	0.00833333333333333	1	NaN	-6	1	0.638671875
515.4052734375	0.00833333333333333	1	-30	-16	1	1.01953125
518.5380859375	0.00833333333333333	1	-30	-15	1	0.9501953125
521.8046875	0.00833333333333333	1	30	-1	2	1.00390625
524.921875	0.00833333333333333	1	NaN	-5	2	0.837890625
527.9619140625	0.00833333333333333	1	-30	7	2	2.1025390625
532.37109375	0.00833333333333333	1	-30	-14	2	0.95703125
535.8291015625	0.00833333333333333	1	30	-2	1	0.8671875
538.86328125	0.00833333333333333	1	-30	6	2	1.2978515625
542.76171875	0.00833333333333333	1	-30	5	1	0.9912109375
545.8876953125	0.00833333333333333	1	-30	6	1	1.177734375
549.578125	0.00833333333333333	1	NaN	2	2	2.3193359375
554.1044921875	0.00833333333333333	1	30	-1	1	1.224609375
557.6455078125	0.00833333333333333	1	NaN	-6	1	1.427734375
561.3798828125	0.00833333333333333	1	-30	7	2	0.7333984375
564.662109375	0.00833333333333333	1	NaN	1	2	1.115234375
568.12109375	0.00833333333333333	1	30	7	2	5.4404296875
576.0791015625	0.00833333333333333	1	NaN	0	2	0.7548828125
579.2294921875	0.00833333333333333	1	NaN	-1	1	3.068359375
584.853515625	0.00833333333333333	1	NaN	-5	2	2.3486328125
589.76171875	0.00833333333333333	1	-30	6	2	7.10546875
598.970703125	0.00833333333333333	1	NaN	-6	2	0.8486328125
602.2783203125	0.00833333333333333	1	-30	5	2	4.2763671875
609.1357421875	0.00833333333333333	1	30	6	2	1.4833984375
612.8857421875	0.00833333333333333	1	30	0	2	6.3095703125
621.6455078125	0.00833333333333333	1	NaN	-7	1	1.0859375
624.8193359375	0.00833333333333333	1	NaN	-6	2	3.248046875
652.13671875	0.00833333333333333	1	-30	4	2	1.091796875
655.7939453125	0.00833333333333333	1	30	5	2	0.8662109375
658.7685546875	0.00833333333333333	1	30	-1	1	0.8203125
661.9111328125	0.00833333333333333	1	30	4	2	1.109375
665.1357421875	0.00833333333333333	1	30	0	1	0.9013671875
668.27734375	0.00833333333333333	1	NaN	0	1	1.3671875
672.1689453125	0.00833333333333333	1	30	1	2	1.587890625
676.0693359375	0.00833333333333333	1	-30	3	2	0.7275390625
678.9189453125	0.00833333333333333	1	30	3	2	4.494140625
685.9443359375	0.00833333333333333	1	30	2	1	1.6533203125
690.009765625	0.00833333333333333	1	30	3	2	4.1162109375
696.7109375	0.00833333333333333	1	-30	2	2	12.6240234375
711.4853515625	0.00833333333333333	1	30	0	1	1.384765625
715.1767578125	0.00833333333333333	1	NaN	1	2	2.0537109375
719.6435546875	0.00833333333333333	1	NaN	0	2	5.69921875
727.7685546875	0.00833333333333333	1	30	2	1	1.0302734375
731.2099609375	0.00833333333333333	1	30	1	1	2.205078125
735.8271484375	0.00833333333333333	1	30	2	1	0.9482421875
738.9599609375	0.00833333333333333	1	NaN	-1	2	0.87109375
742.3681640625	0.00833333333333333	1	30	3	1	1.271484375
745.8681640625	0.00833333333333333	1	-30	1	2	7.171875
755.29296875	0.00833333333333333	1	30	4	1	3.810546875
761.509765625	0.00833333333333333	1	-30	0	2	0.9462890625
764.775390625	0.00833333333333333	1	-30	-1	2	0.6806640625
767.6181640625	0.00833333333333333	1	-30	-2	2	0.90234375
770.9931640625	0.00833333333333333	1	30	5	2	0.783203125
774.2763671875	0.00833333333333333	1	NaN	-2	2	0.8837890625
777.484375	0.00833333333333333	1	-30	-3	2	0.6279296875
780.4091796875	0.00833333333333333	1	NaN	-3	2	0.927734375
783.759765625	0.00833333333333333	1	NaN	-4	2	0.8330078125
786.79296875	0.00833333333333333	1	-30	-4	2	5.7919921875
794.9755859375	0.00833333333333333	1	NaN	-5	1	0.7294921875
797.9091796875	0.00833333333333333	1	NaN	-4	1	0.587890625
801.0009765625	0.00833333333333333	1	NaN	-3	2	3.48046875
806.9169921875	0.00833333333333333	1	-30	-5	2	1.060546875
810.4921875	0.00833333333333333	1	-30	-6	2	0.62109375
813.6328125	0.00833333333333333	1	NaN	-4	2	0.640625
816.7255859375	0.00833333333333333	1	NaN	-5	1	1.9638671875
821.2333984375	0.00833333333333333	1	-30	-7	1	0.7607421875
824.30859375	0.00833333333333333	1	-30	-6	1	6.517578125
833.1240234375	0.00833333333333333	1	-30	-5	2	6.806640625
842.3408203125	0.00833333333333333	1	-30	-6	1	5.3662109375
850.275390625	0.00833333333333333	1	NaN	-4	2	1.0791015625
853.900390625	0.00833333333333333	1	NaN	-5	2	6.7509765625
862.9580078125	0.00833333333333333	1	-30	-5	2	7.4140625
872.474609375	0.00833333333333333	1	-30	-6	2	11.4169921875
886.19921875	0.00833333333333333	1	-30	-7	2	14.6611328125
902.974609375	0.00833333333333333	1	-30	-8	1	1.326171875
906.666015625	0.00833333333333333	1	NaN	-6	1	12.4111328125
921.3994140625	0.00833333333333333	1	-30	-10.5	2	1.9423828125
925.59765625	0.00833333333333333	1	NaN	-5.25	2	18.65625
946.640625	0.00833333333333333	1	30	2.25	2	22.078125
996.3642578125	0.00833333333333333	1	NaN	-5.375	2	0.7236328125
999.47265625	0.00833333333333333	1	NaN	-4.25	2	9.6318359375
1011.3310546875	0.00833333333333333	1	NaN	-4.375	2	13.533203125
1027.22265625	0.00833333333333333	1	NaN	-4.5	2	0.009765625
1029.3056640625	0.00833333333333333	1	30	3.25	2	5.5751953125
1037.0546875	0.00833333333333333	1	NaN	-4.625	2	0.73828125
1040.255859375	0.00833333333333333	1	30	3.125	2	7.330078125
1049.7392578125	0.00833333333333333	1	-30	-9.5	2	6.830078125
1059.080078125	0.00833333333333333	1	NaN	-5.5	2	8.666015625
1070.0380859375	0.00833333333333333	1	30	3	1	1.908203125
1074.263671875	0.00833333333333333	1	30	2.125	2	8.123046875
1084.6962890625	0.00833333333333333	1	30	2	1	4.6259765625
1091.6220703125	0.00833333333333333	1	30	2.125	2	0.8603515625
1094.9052734375	0.00833333333333333	1	30	2	2	9.5703125
1106.8046875	0.00833333333333333	1	-30	-10.625	2	12.71875
1121.9541015625	0.00833333333333333	1	30	3.125	2	17.2822265625
1141.3701171875	0.00833333333333333	1	30	1.875	2	1.08203125
1144.6875	0.00833333333333333	1	-30	-10.75	2	1.2607421875
1147.99609375	0.00833333333333333	1	-30	-9.625	2	0.83203125
1151.1953125	0.00833333333333333	1	-30	-9.75	2	0.6015625
1154.154296875	0.00833333333333333	1	NaN	-5.625	2	0.890625
1157.4287109375	0.00833333333333333	1	NaN	-5.75	2	0.560546875
1160.103515625	0.00833333333333333	1	-30	-10.875	2	0.533203125
1162.927734375	0.00833333333333333	1	-30	-9.875	2	0.509765625
1165.662109375	0.00833333333333333	1	-30	-11	2	0.53515625
1168.6279296875	0.00833333333333333	1	30	3	2	0.5537109375
1171.3291015625	0.00833333333333333	1	30	1.75	2	0.587890625
1174.228515625	0.00833333333333333	1	NaN	-5.875	2	0.865234375
1177.2451171875	0.00833333333333333	1	-30	-10	2	0.7841796875
1180.3955078125	0.00833333333333333	1	NaN	-4.75	2	0.5380859375
1183.4453125	0.00833333333333333	1	-30	-11.125	2	0.5205078125
1186.220703125	0.00833333333333333	1	-30	-11.25	2	0.6171875
1189.2451171875	0.00833333333333333	1	NaN	-4.875	2	0.5771484375
1192.0283203125	0.00833333333333333	1	NaN	-6	2	0.5693359375
1195.037109375	0.00833333333333333	1	30	1.625	2	0.6650390625
1198.0703125	0.00833333333333333	1	-30	-10.125	2	0.8876953125
1201.5537109375	0.00833333333333333	1	NaN	-5	2	0.548828125
1204.6455078125	0.00833333333333333	1	-30	-10.25	2	0.529296875
1207.328125	0.00833333333333333	1	30	2.875	2	3.158203125
1212.6357421875	0.00833333333333333	1	30	1.5	2	0.73046875
1215.6943359375	0.00833333333333333	1	NaN	-5.125	2	0.6884765625
1218.7275390625	0.00833333333333333	1	NaN	-5.25	2	1.0234375
1221.9443359375	0.00833333333333333	1	-30	-11.375	1	1.6142578125
1226.169921875	0.00833333333333333	1	-30	-11.25	2	2.30078125
1230.9443359375	0.00833333333333333	1	-30	-11.375	2	1.462890625
1234.8525390625	0.00833333333333333	1	30	2.75	2	0.650390625
1238.01953125	0.00833333333333333	1	30	2.625	2	0.7958984375
1240.8857421875	0.00833333333333333	1	-30	-11.5	2	0.8173828125
1244.2529296875	0.00833333333333333	1	30	2.5	2	0.8505859375
1247.494140625	0.00833333333333333	1	-30	-11.625	2	0.6259765625
1250.2939453125	0.00833333333333333	1	-30	-11.75	2	0.6494140625
1253.310546875	0.00833333333333333	1	30	2.375	2	0.5859375
1256.40234375	0.00833333333333333	1	30	2.25	2	0.7177734375
1259.4267578125	0.00833333333333333	1	NaN	-6.125	1	0.92578125
1262.5859375	0.00833333333333333	1	NaN	-6	1	1.4140625
1266.369140625	0.00833333333333333	1	NaN	-5.375	1	0.783203125
1269.302734375	0.00833333333333333	1	NaN	-5.25	1	0.77734375
1272.7109375	0.00833333333333333	1	30	1.375	1	2.537109375
1277.78515625	0.00833333333333333	1	30	1.5	2	0.935546875
1281.185546875	0.00833333333333333	1	NaN	-5.875	1	0.7197265625
1284.4189453125	0.00833333333333333	1	30	2.125	2	0.765625
1287.34375	0.00833333333333333	1	30	1.375	2	0.9697265625
1290.67578125	0.00833333333333333	1	NaN	-5.125	2	0.7578125
1293.5595703125	0.00833333333333333	1	-30	-10.375	2	0.7373046875
1328.0517578125	0.00833333333333333	1	NaN	-5.75	1	0.7744140625
1331.3515625	0.00833333333333333	1	-30	-11.875	1	0.8671875
1334.5185546875	0.00833333333333333	1	30	2	1	0.8759765625
1337.5849609375	0.00833333333333333	1	NaN	-5.25	1	0.74609375
1340.4599609375	0.00833333333333333	1	-30	-10.5	1	0.87109375
1343.609375	0.00833333333333333	1	30	2.125	2	1.9375
1348.04296875	0.00833333333333333	1	NaN	-5.625	1	0.744140625
1351.076171875	0.00833333333333333	1	-30	-10.375	1	1.0390625
1354.333984375	0.00833333333333333	1	-30	-10.25	1	0.7333984375
1357.1845703125	0.00833333333333333	1	30	1.25	2	1.123046875
1360.6259765625	0.00833333333333333	1	30	2	1	0.9775390625
1363.8095703125	0.00833333333333333	1	30	2.125	2	0.6982421875
1366.759765625	0.00833333333333333	1	-30	-11.75	2	1.107421875
1370.3671875	0.00833333333333333	1	30	2	1	1.4443359375
1374.333984375	0.00833333333333333	1	NaN	-5.125	2	0.6220703125
1377.0927734375	0.00833333333333333	1	30	2.125	1	1.8876953125
1381.2509765625	0.00833333333333333	1	NaN	-5.5	1	0.7607421875
1384.4091796875	0.00833333333333333	1	30	2.25	1	0.71484375
1387.7177734375	0.00833333333333333	1	NaN	-5.375	2	0.814453125
1391.142578125	0.00833333333333333	1	NaN	-5.5	1	0.7177734375
1394.0673828125	0.00833333333333333	1	30	2.375	1	0.7607421875
1397.4169921875	0.00833333333333333	1	-30	-11.875	2	1.099609375
1400.9501953125	0.00833333333333333	1	NaN	-5.25	1	0.654296875
1404.17578125	0.00833333333333333	1	-30	-12	1	0.7255859375
1407.2333984375	0.00833333333333333	1	30	1.125	2	0.8994140625
1410.42578125	0.00833333333333333	1	-30	-10.125	2	0.70703125
1413.6240234375	0.00833333333333333	1	-30	-11.875	1	1.005859375
1417.19140625	0.00833333333333333	1	-30	-10.25	2	1.166015625
1420.583984375	0.00833333333333333	1	-30	-10.375	1	0.6376953125
1423.7333984375	0.00833333333333333	1	-30	-11.75	2	0.751953125
1426.7158203125	0.00833333333333333	1	NaN	-5.125	2	0.857421875
1430.05859375	0.00833333333333333	1	-30	-10.25	2	2.21875
1434.7578125	0.00833333333333333	1	NaN	-5.25	1	0.599609375
1437.6748046875	0.00833333333333333	1	30	1	1	1.2509765625
1441.408203125	0.00833333333333333	1	-30	-11.875	1	0.837890625
1444.75	0.00833333333333333	1	-30	-10.375	2	1.2958984375
1448.591796875	0.00833333333333333	1	30	1.125	1	0.943359375
1451.8916015625	0.00833333333333333	1	30	1.25	1	0.7470703125
1455.0078125	0.00833333333333333	1	-30	-10.5	2	1.21484375
1458.44140625	0.00833333333333333	1	30	2.5	1	0.4853515625
1461.283203125	0.00833333333333333	1	30	1.375	1	0.8671875
1464.6826171875	0.00833333333333333	1	NaN	-5.125	2	1.8603515625
1468.7412109375	0.00833333333333333	1	-30	-11.75	1	1.10546875
1472.408203125	0.00833333333333333	1	30	1.5	2	1.478515625
1476.232421875	0.00833333333333333	1	-30	-10.625	1	0.982421875
1479.6904296875	0.00833333333333333	1	NaN	-5.375	1	4.037109375
1486.0078125	0.00833333333333333	1	30	1.375	2	5.6640625
1494.1572265625	0.00833333333333333	1	NaN	-5.25	2	0.7626953125
1497.4404296875	0.00833333333333333	1	NaN	-5.375	1	0.6962890625
1500.5986328125	0.00833333333333333	1	30	1.25	1	0.77734375
1503.765625	0.00833333333333333	1	-30	-10.5	2	0.75390625
1506.72265625	0.00833333333333333	1	NaN	-5.25	1	0.7890625
1509.740234375	0.00833333333333333	1	-30	-11.625	1	0.99609375
1513.0068359375	0.00833333333333333	1	-30	-10.625	1	1.10546875
1516.640625	0.00833333333333333	1	NaN	-5.125	1	0.7919921875
1519.607421875	0.00833333333333333	1	NaN	-5.25	1	0.5927734375
1522.564453125	0.00833333333333333	1	30	1.375	1	0.009765625
1524.990234375	0.00833333333333333	1	NaN	-5	1	3.5302734375
1530.7822265625	0.00833333333333333	1	-30	-11.5	1	4.3466796875
1537.3388671875	0.00833333333333333	1	NaN	-4.875	2	6.57421875
1546.33203125	0.00833333333333333	1	NaN	-5.125	2	0.7978515625
1549.71484375	0.00833333333333333	1	-30	-10.5	1	0.646484375
1552.931640625	0.00833333333333333	1	30	1.5	1	1.509765625
1557.056640625	0.00833333333333333	1	30	2.625	1	1.0732421875
1560.5068359375	0.00833333333333333	1	30	2.75	2	0.798828125
1563.71484375	0.00833333333333333	1	-30	-10.375	2	1.0791015625
1567.0478515625	0.00833333333333333	1	30	1.625	1	1.6904296875
1571.3134765625	0.00833333333333333	1	30	1.75	2	1.537109375
1575.3984375	0.00833333333333333	1	-30	-10.5	2	2.2119140625
1580.08984375	0.00833333333333333	1	30	1.625	1	0.8408203125
1583.314453125	0.00833333333333333	1	NaN	-5	1	2.1279296875
1587.7060546875	0.00833333333333333	1	NaN	-4.875	2	3.15234375
1593.2314453125	0.00833333333333333	1	NaN	-5	2	2.1630859375
1597.7978515625	0.00833333333333333	1	-30	-11.375	2	6.59765625
1606.7978515625	0.00833333333333333	1	-30	-10.625	1	2.59765625
1611.947265625	0.00833333333333333	1	NaN	-5.125	2	4
1618.322265625	0.00833333333333333	1	NaN	-5.25	1	3.2978515625
1624.1220703125	0.00833333333333333	1	-30	-10.5	2	2.8896484375
1733.7705078125	0.00833333333333333	1	30	1.75	1	0.98046875
1737.2705078125	0.00833333333333333	1	NaN	-5.25	1	0.609375
1740.287109375	0.00833333333333333	1	NaN	-5.125	1	0.49609375
1743.3623046875	0.00833333333333333	1	-30	-10.625	1	0.9658203125
1746.552734375	0.00833333333333333	1	NaN	-5	1	0.455078125
1749.1201171875	0.00833333333333333	1	-30	-11.5	1	0.6162109375
1752.3369140625	0.00833333333333333	1	-30	-10.5	1	1.951171875
1756.4287109375	0.00833333333333333	1	-30	-11.375	1	0.779296875
1759.787109375	0.00833333333333333	1	30	2.625	1	0.61328125
1762.828125	0.00833333333333333	1	-30	-11.25	1	0.7080078125
1765.75390625	0.00833333333333333	1	-30	-10.375	1	0.638671875
1768.703125	0.00833333333333333	1	30	2.75	1	0.6015625
1771.63671875	0.00833333333333333	1	30	1.875	1	0.8515625
1774.6279296875	0.00833333333333333	1	30	2	1	0.8603515625
1777.7197265625	0.00833333333333333	1	NaN	-5.125	1	0.4814453125
1780.8203125	0.00833333333333333	1	NaN	-4.875	1	0.5810546875
1783.986328125	0.00833333333333333	1	NaN	-4.75	1	0.462890625
1786.7197265625	0.00833333333333333	1	NaN	-5	1	0.513671875
1789.5361328125	0.00833333333333333	1	-30	-10.25	1	0.609375
1792.4365234375	0.00833333333333333	1	NaN	-4.875	1	0.4609375
1795.1201171875	0.00833333333333333	1	30	2.875	1	0.544921875
1797.9775390625	0.00833333333333333	1	NaN	-4.75	1	0.4560546875
1800.677734375	0.00833333333333333	1	-30	-10.125	1	0.5244140625
1803.4853515625	0.00833333333333333	1	-30	-11.125	1	0.4765625
1806.4189453125	0.00833333333333333	1	30	2.125	1	0.4228515625
1809.453125	0.00833333333333333	1	NaN	-4.625	1	0.4931640625
1812.0693359375	0.00833333333333333	1	-30	-11	1	0.572265625
1814.78515625	0.00833333333333333	1	-30	-10	1	0.529296875
1817.7197265625	0.00833333333333333	1	30	2.25	1	0.5869140625
1820.90234375	0.00833333333333333	1	NaN	-4.625	1	0.4677734375
1823.5859375	0.00833333333333333	1	30	3	1	0.3525390625
1826.5439453125	0.00833333333333333	1	30	3.125	1	0.5068359375
1829.1435546875	0.00833333333333333	1	-30	-9.875	1	0.5869140625
1831.8935546875	0.00833333333333333	1	NaN	-4.5	1	0.4287109375
1834.8935546875	0.00833333333333333	1	-30	-10.875	1	0.4208984375
1837.6767578125	0.00833333333333333	1	NaN	-4.5	1	2.2783203125
1842.4775390625	0.00833333333333333	1	-30	-10.75	1	0.58984375
1845.6259765625	0.00833333333333333	1	NaN	-4.375	1	0.5048828125
1848.5185546875	0.00833333333333333	1	NaN	-4.375	1	0.4609375
1851.5185546875	0.00833333333333333	1	NaN	-4.25	1	0.4130859375
1854.0439453125	0.00833333333333333	1	30	2.375	1	0.455078125
1856.7275390625	0.00833333333333333	1	NaN	-4.25	1	0.4599609375
1859.34375	0.00833333333333333	1	-30	-10.625	1	0.53125
1862.1357421875	0.00833333333333333	1	NaN	-4.125	1	0.427734375
1865.17578125	0.00833333333333333	1	NaN	-4.125	1	0.564453125
1868.068359375	0.00833333333333333	1	30	3.25	1	0.5673828125
1871.2099609375	0.00833333333333333	1	30	2.5	1	0.59375
1874.267578125	0.00833333333333333	1	NaN	-4	1	0.49609375
1877.1181640625	0.00833333333333333	1	-30	-9.75	1	0.92578125
1880.28515625	0.00833333333333333	1	NaN	-3.875	1	1.0234375
1883.634765625	0.00833333333333333	1	-30	-9.625	1	0.857421875
1886.8505859375	0.00833333333333333	1	NaN	-4	1	0.849609375
1890.2099609375	0.00833333333333333	1	NaN	-3.75	1	0.8583984375
1893.318359375	0.00833333333333333	1	NaN	-3.625	1	0.91796875
1896.826171875	0.00833333333333333	1	30	2.625	1	1.37890625
1900.818359375	0.00833333333333333	1	-30	-9.5	1	0.8662109375
1903.8759765625	0.00833333333333333	1	NaN	-3.5	2	1.5126953125
1907.943359375	0.00833333333333333	1	NaN	-3.875	1	1.7177734375
1911.9091796875	0.00833333333333333	1	-30	-9.375	1	1.0322265625
1915.17578125	0.00833333333333333	1	NaN	-3.75	1	0.92578125
1918.3759765625	0.00833333333333333	1	30	2.75	1	1.5654296875
1922.2265625	0.00833333333333333	1	-30	-9.25	1	0.642578125
1925.0263671875	0.00833333333333333	1	-30	-10.5	1	0.68359375
1928.17578125	0.00833333333333333	1	NaN	-3.625	1	0.56640625
1930.9921875	0.00833333333333333	1	-30	-10.375	1	0.677734375
1934.2509765625	0.00833333333333333	1	-30	-9.125	1	0.69140625
1937.2421875	0.00833333333333333	1	30	3.375	1	0.7880859375
1940.201171875	0.00833333333333333	1	-30	-9	1	0.63671875
1943.333984375	0.00833333333333333	1	30	3.5	2	0.9521484375
1946.5009765625	0.00833333333333333	1	30	3.375	2	0.9697265625
1950.0927734375	0.00833333333333333	1	NaN	-3.625	2	1.2255859375
1953.583984375	0.00833333333333333	1	-30	-10.25	1	1.7265625
1957.5908203125	0.00833333333333333	1	30	2.875	1	0.81640625
1960.9248046875	0.00833333333333333	1	-30	-10.125	1	0.994140625
1964.1669921875	0.00833333333333333	1	-30	-8.875	2	0.7041015625
1967.4091796875	0.00833333333333333	1	-30	-10	1	0.7333984375
1970.466796875	0.00833333333333333	1	-30	-9.875	2	0.7646484375
1973.6337890625	0.00833333333333333	1	NaN	-3.75	1	0.6533203125
1976.3916015625	0.00833333333333333	1	-30	-9	2	1.248046875
1979.7587890625	0.00833333333333333	1	NaN	-3.625	1	0.880859375
1983.025390625	0.00833333333333333	1	30	3.25	1	0.677734375
1986	0.00833333333333333	1	-30	-9.125	1	0.8876953125
1989.025390625	0.00833333333333333	1	NaN	-3.5	1	0.814453125
1992.30859375	0.00833333333333333	1	NaN	-3.375	1	0.5712890625
1995.091796875	0.00833333333333333	1	NaN	-3.5	1	0.5556640625
1997.7919921875	0.00833333333333333	1	30	3	2	0.919921875
2001.05859375	0.00833333333333333	1	30	3.375	1	1.3330078125
2004.8662109375	0.00833333333333333	1	NaN	-3.375	1	0.685546875
2007.849609375	0.00833333333333333	1	-30	-9	2	0.90234375
2010.8662109375	0.00833333333333333	1	-30	-9.125	1	1.3017578125
2014.533203125	0.00833333333333333	1	NaN	-3.25	1	0.6669921875
2017.5166015625	0.00833333333333333	1	NaN	-3.125	1	1.427734375
2021.099609375	0.00833333333333333	1	NaN	-3	1	0.7412109375
2024.3583984375	0.00833333333333333	1	-30	-10	1	3.6748046875
2030.4658203125	0.00833333333333333	1	NaN	-2.875	1	1.3349609375
2043.5244140625	0.00833333333333333	1	NaN	-2.75	1	0.7734375
2046.6494140625	0.00833333333333333	1	30	2.875	1	0.84765625
2049.857421875	0.00833333333333333	1	NaN	-3.25	1	0.7685546875
2052.83203125	0.00833333333333333	1	NaN	-3.125	1	0.5615234375
2055.7490234375	0.00833333333333333	1	NaN	-2.625	1	0.876953125
2059.265625	0.00833333333333333	1	-30	-9.875	1	1.5283203125
2063.1318359375	0.00833333333333333	1	NaN	-2.5	1	0.7744140625
2066.2158203125	0.00833333333333333	1	30	3	1	2.5224609375
2071.2568359375	0.00833333333333333	1	30	3.125	1	1.44140625
2075.357421875	0.00833333333333333	1	30	3.5	1	1.4287109375
2079.33203125	0.00833333333333333	1	-30	-9.75	1	1.5263671875
2083.498046875	0.00833333333333333	1	30	3.25	1	1.376953125
2087.21484375	0.00833333333333333	1	30	3.375	1	1.0361328125
2090.6064453125	0.00833333333333333	1	-30	-9.625	2	1.556640625
2094.3564453125	0.00833333333333333	1	30	3.625	2	2.7509765625
2099.755859375	0.00833333333333333	1	30	3.5	2	2.9912109375
2104.9072265625	0.00833333333333333	1	NaN	-2.375	1	1.1201171875
2108.7236328125	0.00833333333333333	1	NaN	-2.25	1	1.232421875
2112.623046875	0.00833333333333333	1	30	3.5	2	1.044921875
2116.20703125	0.00833333333333333	1	30	3.375	1	1.0048828125
2119.740234375	0.00833333333333333	1	30	3.5	1	1.2236328125
2123.6318359375	0.00833333333333333	1	30	3.375	1	1.595703125
2127.8564453125	0.00833333333333333	1	NaN	-2.125	2	1.7470703125
2131.990234375	0.00833333333333333	1	30	3.625	1	1.5576171875
2136.08984375	0.00833333333333333	1	NaN	-3	2	2.875
2141.3720703125	0.00833333333333333	1	30	3.5	1	1.056640625
2144.6396484375	0.00833333333333333	1	30	3.75	2	0.94921875
2147.814453125	0.00833333333333333	1	NaN	-3.125	1	0.837890625
2151.21484375	0.00833333333333333	1	30	3.625	2	0.7578125
2154.4140625	0.00833333333333333	1	30	3.625	2	1.4951171875
2158.322265625	0.00833333333333333	1	NaN	-2.25	2	3.6826171875
2164.138671875	0.00833333333333333	1	-30	-9.75	2	1.0107421875
2167.564453125	0.00833333333333333	1	30	3.5	1	1.5771484375
2171.48046875	0.00833333333333333	1	NaN	-2.375	2	1.29296875
2175.34765625	0.00833333333333333	1	NaN	-2.5	2	1.5615234375
2179.0966796875	0.00833333333333333	1	30	3.5	2	2.205078125
2183.8125	0.00833333333333333	1	30	3.375	1	1.2099609375
2187.1142578125	0.00833333333333333	1	NaN	-2.625	1	0.7236328125
2190.4375	0.00833333333333333	1	NaN	-2.5	1	0.6328125
2193.35546875	0.00833333333333333	1	-30	-9.875	2	0.955078125
2196.638671875	0.00833333333333333	1	-30	-10	1	1.51171875
2200.8388671875	0.00833333333333333	1	NaN	-2.375	1	2.50390625
2205.62109375	0.00833333333333333	1	-30	-9.875	1	3.9130859375
2211.796875	0.00833333333333333	1	-30	-9.75	1	2.5703125
2216.845703125	0.00833333333333333	1	NaN	-2.25	1	0.841796875
2220.11328125	0.00833333333333333	1	NaN	-2.125	2	1.318359375
2223.7705078125	0.00833333333333333	1	-30	-9.625	2	0.7724609375
2226.5966796875	0.00833333333333333	1	NaN	-2.25	1	1.2509765625
2230.4716796875	0.00833333333333333	1	-30	-9.75	1	0.83203125
2233.513671875	0.00833333333333333	1	NaN	-2.125	2	3.09375
2239.0048828125	0.00833333333333333	1	NaN	-2.25	1	1.978515625
2243.521484375	0.00833333333333333	1	NaN	-2.125	2	0.974609375
2246.9462890625	0.00833333333333333	1	NaN	-2.25	2	1.0458984375
2250.50390625	0.00833333333333333	1	NaN	-2.375	2	0.6240234375
2253.51171875	0.00833333333333333	1	NaN	-2.5	2	0.6728515625
2256.728515625	0.00833333333333333	1	NaN	-2.625	2	0.8076171875
2260.095703125	0.00833333333333333	1	NaN	-2.75	2	0.912109375
2263.537109375	0.00833333333333333	1	NaN	-2.875	1	0.775390625
2266.671875	0.00833333333333333	0	30	2.81875	2	0.9765625
2269.8125	0.00833333333333333	0	30	2.81875	1	0.908203125
2273.3115234375	0.00833333333333333	0	30	2.81875	2	1.0654296875
2276.9619140625	0.00833333333333333	0	-30	-10.2375	1	1.5830078125
2281.0126953125	0.00833333333333333	0	30	2.81875	1	1.1240234375
2284.50390625	0.00833333333333333	0	30	2.81875	1	3.09765625
2290.0126953125	0.00833333333333333	0	30	2.81875	1	0.8525390625
2293.1943359375	0.00833333333333333	0	30	2.81875	1	0.9833984375
2296.6376953125	0.00833333333333333	0	-30	-10.2375	1	0.8359375
2300.1201171875	0.00833333333333333	0	-30	-10.2375	1	1.25
2303.6123046875	0.00833333333333333	0	30	2.81875	2	1.58984375
2307.5869140625	0.00833333333333333	0	-30	-10.2375	1	1.111328125
2311.3037109375	0.00833333333333333	0	30	2.81875	2	2.490234375
2316.26171875	0.00833333333333333	0	-30	-10.2375	1	0.65234375
2319.169921875	0.00833333333333333	0	-30	-10.1125	1	0.6162109375
2322.078125	0.00833333333333333	0	-30	-10.1125	2	1.0517578125
2325.478515625	0.00833333333333333	0	30	2.81875	1	1.099609375
2328.9951171875	0.00833333333333333	0	30	2.81875	1	0.9189453125
2332.0869140625	0.00833333333333333	0	30	2.81875	1	2.603515625
2336.978515625	0.00833333333333333	0	-30	-10.1125	2	2.328125
2341.6201171875	0.00833333333333333	0	30	2.81875	1	1.447265625
2345.5537109375	0.00833333333333333	0	30	2.81875	1	0.8095703125
2348.8115234375	0.00833333333333333	0	30	2.94375	1	0.8076171875
2352.1953125	0.00833333333333333	0	30	2.94375	2	1.224609375
2355.9609375	0.00833333333333333	0	30	2.94375	2	1.4423828125
2359.6943359375	0.00833333333333333	0	-30	-10.1125	1	2.1416015625
2364.3115234375	0.00833333333333333	0	-30	-10.1125	1	1.1162109375
2367.7861328125	0.00833333333333333	0	30	2.94375	2	4.2978515625
2374.6025390625	0.00833333333333333	0	-30	-10.1125	1	3.6494140625
2380.5361328125	0.00833333333333333	0	30	2.94375	1	1.8681640625
2384.8193359375	0.00833333333333333	0	30	2.94375	1	0.7685546875
2388.15234375	0.00833333333333333	0	-30	-10.1125	2	1.724609375
2392.236328125	0.00833333333333333	0	-30	-10.1125	2	1.5361328125
2395.810546875	0.00833333333333333	0	30	2.94375	2	3.2021484375
2401.34375	0.00833333333333333	0	-30	-10.1125	1	1.876953125
2405.619140625	0.00833333333333333	0	30	2.94375	1	1.1943359375
2409.0849609375	0.00833333333333333	0	30	2.94375	1	0.919921875
2412.376953125	0.00833333333333333	0	30	2.94375	1	1.5166015625
2416.16015625	0.00833333333333333	0	30	2.94375	1	0.7578125
2419.1689453125	0.00833333333333333	0	30	2.94375	1	0.65234375
2422.4189453125	0.00833333333333333	0	30	3.06875	1	0.6025390625
2425.4267578125	0.00833333333333333	0	-30	-10.1125	2	1.466796875
2429.2685546875	0.00833333333333333	0	-30	-10.1125	2	3.033203125
2434.3935546875	0.00833333333333333	0	-30	-10.1125	1	0.5087890625
2437.29296875	0.00833333333333333	0	-30	-10.1125	2	0.6328125
2440.2685546875	0.00833333333333333	0	30	3.06875	1	0.8896484375
2443.568359375	0.00833333333333333	0	30	3.06875	2	1.173828125
2446.943359375	0.00833333333333333	0	-30	-10.1125	2	1.142578125
2450.3681640625	0.00833333333333333	0	-30	-10.1125	2	2.158203125
2455.126953125	0.00833333333333333	0	30	3.06875	1	0.8955078125
2458.6435546875	0.00833333333333333	0	-30	-10.1125	1	1.1875
2462.068359375	0.00833333333333333	0	-30	-10.1125	2	1.39453125
2465.9765625	0.00833333333333333	0	30	3.06875	2	1.1904296875
2469.384765625	0.00833333333333333	0	-30	-10.1125	2	2.1025390625
2473.7763671875	0.00833333333333333	0	-30	-10.1125	2	1.4072265625
2477.4013671875	0.00833333333333333	0	30	3.06875	1	1.013671875
2481.009765625	0.00833333333333333	0	-30	-10.1125	2	0.7578125
2484.2265625	0.00833333333333333	0	30	3.06875	2	2.5966796875
2489.2255859375	0.00833333333333333	0	-30	-10.1125	1	1.4384765625
2492.9345703125	0.00833333333333333	0	30	3.06875	1	0.8251953125
2496.1845703125	0.00833333333333333	0	-30	-10.1125	1	1.7353515625
2499.951171875	0.00833333333333333	0	30	3.06875	1	1.3291015625
2503.6591796875	0.00833333333333333	0	-30	-10.1125	2	1.052734375
2507.150390625	0.00833333333333333	0	30	3.06875	2	6.826171875
2516.3837890625	0.00833333333333333	0	30	3.06875	1	1.0888671875
2520.0419921875	0.00833333333333333	0	30	3.06875	1	0.8544921875
2523.05859375	0.00833333333333333	0	-30	-10.1125	2	3.6220703125
2529.18359375	0.00833333333333333	0	-30	-10.1125	1	2.75390625
2534.2333984375	0.00833333333333333	0	-30	-10.1125	2	1.431640625
2537.9580078125	0.00833333333333333	0	30	3.06875	2	6.3876953125
2546.7998046875	0.00833333333333333	0	-30	-10.1125	2	1.001953125
2550.2744140625	0.00833333333333333	0	-30	-10.1125	2	0.7275390625
2553.275390625	0.00833333333333333	0	-30	-10.1125	2	0.982421875
2556.625	0.00833333333333333	0	-30	-10.1125	2	0.9853515625
2560.0830078125	0.00833333333333333	0	30	3.06875	1	0.6953125
2563	0.00833333333333333	0	30	3.06875	2	0.9697265625
2566.5166015625	0.00833333333333333	0	30	3.06875	2	1.013671875
2569.9580078125	0.00833333333333333	0	-30	-10.2375	2	0.8759765625
2573.2578125	0.00833333333333333	0	-30	-10.2375	2	4.3203125
2580.0244140625	0.00833333333333333	0	-30	-10.2375	2	9.162109375
2639.041015625	0.00833333333333333	0	-30	-10.2375	2	1.611328125
2642.9560546875	0.00833333333333333	0	30	3.06875	1	0.9443359375
2646.19921875	0.00833333333333333	0	-30	-10.2375	1	1.021484375
2649.3740234375	0.00833333333333333	0	30	3.06875	1	0.6552734375
2652.5986328125	0.00833333333333333	0	30	3.06875	1	0.654296875
2655.65625	0.00833333333333333	0	30	3.06875	1	0.64453125
2658.4072265625	0.00833333333333333	0	30	3.06875	1	0.9658203125
2661.9404296875	0.00833333333333333	0	30	3.19375	1	0.9365234375
2665.365234375	0.00833333333333333	0	-30	-10.2375	1	0.904296875
2668.5732421875	0.00833333333333333	0	30	3.19375	1	0.7607421875
2671.5234375	0.00833333333333333	0	-30	-10.2375	1	1.6826171875
2675.58203125	0.00833333333333333	0	30	3.19375	1	1.408203125
2679.1484375	0.00833333333333333	0	30	3.19375	1	1.0576171875
2682.306640625	0.00833333333333333	0	-30	-10.2375	2	1.34765625
2686.115234375	0.00833333333333333	0	30	3.19375	2	6.4833984375
2694.7314453125	0.00833333333333333	0	-30	-10.2375	1	5.5791015625
2702.8056640625	0.00833333333333333	0	30	3.19375	1	1.3134765625
2706.380859375	0.00833333333333333	0	-30	-10.2375	1	3.6015625
2712.5732421875	0.00833333333333333	0	-30	-10.2375	2	1.8017578125
2716.8720703125	0.00833333333333333	0	30	3.19375	1	1.0947265625
2720.1982421875	0.00833333333333333	0	-30	-10.2375	2	0.9453125
2723.4814453125	0.00833333333333333	0	-30	-10.2375	1	0.998046875
2726.748046875	0.00833333333333333	0	-30	-10.2375	1	0.779296875
2729.9228515625	0.00833333333333333	0	-30	-10.2375	1	3.6611328125
2735.9140625	0.00833333333333333	0	30	3.19375	1	1.109375
2739.189453125	0.00833333333333333	0	-30	-10.2375	2	1.138671875
2742.5810546875	0.00833333333333333	0	-30	-10.2375	1	0.818359375
2745.8056640625	0.00833333333333333	0	30	3.19375	2	1.41796875
2749.34765625	0.00833333333333333	0	-30	-10.2375	1	0.876953125
2752.5224609375	0.00833333333333333	0	-30	-10.2375	1	0.837890625
2755.7392578125	0.00833333333333333	0	30	3.19375	1	1.212890625
2759.296875	0.00833333333333333	0	-30	-10.2375	1	1.599609375
2763.263671875	0.00833333333333333	0	-30	-10.2375	1	5.888671875
2771.5224609375	0.00833333333333333	0	30	3.19375	1	1.638671875
2775.5888671875	0.00833333333333333	0	-30	-10.1125	2	1.8525390625
2779.6376953125	0.00833333333333333	0	-30	-10.1125	2	4.8515625
2786.61328125	0.00833333333333333	0	-30	-10.1125	1	1.15625
2790.3544921875	0.00833333333333333	0	30	3.19375	1	0.951171875
2793.638671875	0.00833333333333333	0	-30	-10.1125	2	1.0908203125
2797.3203125	0.00833333333333333	0	-30	-10.1125	1	6.2177734375
2805.73828125	0.00833333333333333	0	-30	-10.1125	2	0.5751953125
2808.8544921875	0.00833333333333333	0	30	3.19375	2	1.458984375
2812.587890625	0.00833333333333333	0	-30	-10.1125	2	1.0546875
2815.7958984375	0.00833333333333333	0	30	3.19375	1	1.0546875
2819.1376953125	0.00833333333333333	0	-30	-10.1125	1	0.7451171875
2822.154296875	0.00833333333333333	0	-30	-10.1125	2	1.0478515625
2825.712890625	0.00833333333333333	0	30	3.19375	1	0.689453125
2828.529296875	0.00833333333333333	0	-30	-10.1125	2	0.76953125
2831.4208984375	0.00833333333333333	0	30	3.19375	2	2.845703125
2836.9208984375	0.00833333333333333	0	-30	-10.1125	1	1.6337890625
2841.029296875	0.00833333333333333	0	30	3.19375	1	1.3662109375
2844.5625	0.00833333333333333	0	-30	-10.1125	1	1.240234375
2848.162109375	0.00833333333333333	0	30	3.19375	1	1.5537109375
2852.1875	0.00833333333333333	0	-30	-10.1125	1	1.744140625
2856.453125	0.00833333333333333	0	30	3.19375	1	1.23046875
2859.9951171875	0.00833333333333333	0	-30	-10.1125	2	1.2802734375
2863.4033203125	0.00833333333333333	0	-30	-10.1125	1	1.240234375
2867.095703125	0.00833333333333333	0	-30	-10.1125	1	2.99609375
2872.3291015625	0.00833333333333333	0	-30	-10.1125	1	1.0908203125
2875.7705078125	0.00833333333333333	0	-30	-10.1125	1	1.1611328125
2879.345703125	0.00833333333333333	0	-30	-10.1125	2	0.8505859375
2882.4443359375	0.00833333333333333	0	30	3.19375	2	0.7841796875
2885.3623046875	0.00833333333333333	0	30	3.19375	2	0.833984375
2888.302734375	0.00833333333333333	0	30	3.19375	1	2.4697265625
2893.26171875	0.00833333333333333	0	-30	-10.1125	1	4.2392578125
2899.8623046875	0.00833333333333333	0	-30	-10.1125	1	3.0390625
2905.2021484375	0.00833333333333333	0	-30	-10.1125	1	3.7705078125
2911.3701171875	0.00833333333333333	0	-30	-10.1125	1	3.5078125
2917.1787109375	0.00833333333333333	0	30	3.19375	1	0.7470703125
2920.4111328125	0.00833333333333333	0	-30	-10.1125	2	0.890625
2923.5029296875	0.00833333333333333	0	30	3.19375	1	0.9111328125
2926.59375	0.00833333333333333	0	-30	-10.1125	2	1.98046875
2931.203125	0.00833333333333333	0	-30	-10.1125	1	0.9384765625
2934.578125	0.00833333333333333	0	-30	-10.1125	2	1.8603515625
2939.0439453125	0.00833333333333333	0	30	3.19375	1	1.001953125
2942.244140625	0.00833333333333333	0	30	3.19375	2	0.9462890625
2945.369140625	0.00833333333333333	0	30	3.19375	1	0.60546875
2948.3447265625	0.00833333333333333	0	30	3.19375	2	0.7021484375
2951.6279296875	0.00833333333333333	0	30	3.19375	1	1.2509765625
2955.1025390625	0.00833333333333333	0	30	3.19375	2	7.216796875
3029.1669921875	0.00833333333333333	0	30	3.19375	2	1.6416015625
3033.0341796875	0.00833333333333333	0	30	3.19375	2	1.3515625
3036.66015625	0.00833333333333333	0	30	3.19375	2	1.6455078125
3040.8515625	0.00833333333333333	0	30	3.19375	2	1.0380859375
3044.4833984375	0.00833333333333333	0	-30	-10.1125	1	2.58203125
3049.5341796875	0.00833333333333333	0	30	3.06875	1	1.6357421875
3053.634765625	0.00833333333333333	0	-30	-10.1125	1	5.7109375
3061.951171875	0.00833333333333333	0	-30	-10.1125	1	5.7626953125
3070.1171875	0.00833333333333333	0	-30	-10.1125	2	1.93359375
3074.3427734375	0.00833333333333333	0	-30	-10.1125	1	9.34765625
3085.9501953125	0.00833333333333333	0	-30	-10.1125	1	1.1884765625
3089.474609375	0.00833333333333333	0	-30	-10.1125	2	0.80859375
3092.3759765625	0.00833333333333333	0	-30	-10.1125	2	0.947265625
3095.6337890625	0.00833333333333333	0	30	3.06875	2	5.9375
3103.8759765625	0.00833333333333333	0	30	3.06875	2	2.19140625
3108.2666015625	0.00833333333333333	0	-30	-10.1125	1	2.4326171875
3113.041015625	0.00833333333333333	0	30	3.06875	1	0.986328125
3116.3828125	0.00833333333333333	0	-30	-10.1125	2	0.95703125
3119.958984375	0.00833333333333333	0	30	3.06875	1	0.7412109375
3123.150390625	0.00833333333333333	0	30	3.06875	1	0.7255859375
3126.4833984375	0.00833333333333333	0	30	3.06875	1	10.5615234375
3139.216796875	0.00833333333333333	0	-30	-10.1125	2	0.84375
3142.2587890625	0.00833333333333333	0	-30	-10.1125	2	0.7294921875
3145.25	0.00833333333333333	0	-30	-10.1125	2	1.3232421875
3148.8486328125	0.00833333333333333	0	30	3.06875	1	4.5244140625
3155.5166015625	0.00833333333333333	0	30	3.19375	1	0.984375
3158.8916015625	0.00833333333333333	0	30	3.19375	1	6.2177734375
3167.4580078125	0.00833333333333333	0	-30	-10.1125	2	1.1552734375
3170.9912109375	0.00833333333333333	0	-30	-10.2375	1	0.0859375
3173.7080078125	0.00833333333333333	0	-30	-10.2375	2	2.658203125
3178.8076171875	0.00833333333333333	0	-30	-10.2375	1	0.9423828125
3182.1572265625	0.00833333333333333	0	30	3.19375	2	0.873046875
3185.099609375	0.00833333333333333	0	30	3.19375	2	1.1220703125
3188.78125	0.00833333333333333	0	30	3.19375	2	0.7607421875
3192.1162109375	0.00833333333333333	0	30	3.19375	2	6.74609375
3201.4560546875	0.00833333333333333	0	-30	-10.2375	1	0.88671875
3204.7646484375	0.00833333333333333	0	30	3.19375	2	0.90625
3208.08984375	0.00833333333333333	0	30	3.06875	2	0.884765625
3211.4404296875	0.00833333333333333	0	-30	-10.2375	2	0.6708984375
3214.19921875	0.00833333333333333	0	30	3.06875	2	0.7275390625
3217.423828125	0.00833333333333333	0	-30	-10.2375	2	0.615234375
3220.58984375	0.00833333333333333	0	-30	-10.2375	2	3.369140625
3226.1474609375	0.00833333333333333	0	30	3.06875	2	4.091796875
3232.5400390625	0.00833333333333333	0	30	3.06875	1	2.5478515625
3237.640625	0.00833333333333333	0	30	3.06875	2	2.3671875
3242.3984375	0.00833333333333333	0	-30	-10.2375	1	0.8173828125
3245.513671875	0.00833333333333333	0	30	3.06875	1	1.318359375
3249.0732421875	0.00833333333333333	0	-30	-10.2375	1	0.7431640625
3252.2236328125	0.00833333333333333	0	30	3.06875	1	1.0810546875
3255.7314453125	0.00833333333333333	0	30	3.06875	2	0.7412109375
3258.5732421875	0.00833333333333333	0	30	3.06875	1	2.8271484375
3263.65625	0.00833333333333333	0	30	3.06875	1	3.7041015625
3269.6982421875	0.00833333333333333	0	30	3.06875	1	4.6865234375
3276.8232421875	0.00833333333333333	0	30	3.06875	1	2.6494140625
3282.1064453125	0.00833333333333333	0	-30	-10.2375	2	1.2470703125
3285.5810546875	0.00833333333333333	0	-30	-10.2375	1	2.3642578125
3290.3896484375	0.00833333333333333	0	30	3.06875	2	1.2041015625
3294.15625	0.00833333333333333	0	30	3.06875	1	1.60546875
3298.3642578125	0.00833333333333333	0	-30	-10.2375	2	1.0615234375
3301.9638671875	0.00833333333333333	0	-30	-10.2375	2	0.75
3304.9638671875	0.00833333333333333	0	-30	-10.2375	2	2.166015625
3309.7646484375	0.00833333333333333	0	-30	-10.2375	1	0.669921875
3312.9892578125	0.00833333333333333	0	-30	-10.2375	1	0.7646484375
3315.9560546875	0.00833333333333333	0	30	3.06875	1	3.2060546875
3321.630859375	0.00833333333333333	0	-30	-10.2375	2	0.8759765625
3324.9306640625	0.00833333333333333	0	30	3.06875	2	0.6875
3327.7890625	0.00833333333333333	0	-30	-10.2375	1	5.8134765625
3336.1640625	0.00833333333333333	0	30	3.06875	2	3.5751953125
3342.146484375	0.00833333333333333	0	-30	-10.2375	2	0.896484375
3345.6640625	0.00833333333333333	0	30	3.06875	1	0.8193359375
3348.904296875	0.00833333333333333	0	-30	-10.2375	1	0.955078125
3352.447265625	0.00833333333333333	0	30	3.06875	1	0.9716796875
3355.6220703125	0.00833333333333333	0	30	3.06875	1	0.94140625
3359.1708984375	0.00833333333333333	0	30	3.06875	1	4.80078125
3366.4462890625	0.00833333333333333	0	30	3.06875	2	1.26171875
3370.0048828125	0.00833333333333333	0	30	3.06875	1	1.03125
3373.3466796875	0.00833333333333333	0	-30	-10.2375	2	1.1533203125
3376.9794921875	0.00833333333333333	0	-30	-10.2375	2	1.041015625
3380.521484375	0.00833333333333333	0	-30	-10.2375	2	1.02734375
3383.9794921875	0.00833333333333333	0	30	3.06875	2	0.953125
3434.4541015625	0.00833333333333333	0	30	3.06875	1	0.8642578125
3437.9541015625	0.00833333333333333	0	-30	-10.2375	2	0.8916015625
3441.2705078125	0.00833333333333333	0	-30	-10.2375	2	0.15234375
3443.8701171875	0.00833333333333333	0	-30	-10.3625	1	1.0400390625
3447.228515625	0.00833333333333333	0	30	3.06875	2	5.0263671875
3454.552734375	0.00833333333333333	0	30	3.06875	1	0.8623046875
3457.703125	0.00833333333333333	0	-30	-10.3625	2	0.775390625
3460.669921875	0.00833333333333333	0	30	3.06875	1	0.9052734375
3463.8037109375	0.00833333333333333	0	30	3.06875	1	4.916015625
3471.0205078125	0.00833333333333333	0	-30	-10.3625	1	1.53125
3474.9775390625	0.00833333333333333	0	30	3.06875	1	3.2939453125
3480.728515625	0.00833333333333333	0	-30	-10.3625	2	1.0869140625
3483.9033203125	0.00833333333333333	0	-30	-10.3625	1	0.880859375
3487.2119140625	0.00833333333333333	0	-30	-10.3625	1	7.7802734375
3497.4853515625	0.00833333333333333	0	30	3.06875	2	6.3310546875
3506.369140625	0.00833333333333333	0	30	3.06875	1	0.7509765625
3509.453125	0.00833333333333333	0	30	3.06875	1	4.67578125
3516.4697265625	0.00833333333333333	0	30	3.06875	1	0.8828125
3519.802734375	0.00833333333333333	0	30	3.06875	2	2.5185546875
3524.4599609375	0.00833333333333333	0	-30	-10.3625	2	1.1728515625
3528.1689453125	0.00833333333333333	0	-30	-10.3625	2	1.1845703125
3531.6025390625	0.00833333333333333	0	30	3.06875	2	1.1982421875
3535.3525390625	0.00833333333333333	0	30	3.06875	2	0.9287109375
3538.6689453125	0.00833333333333333	0	30	3.06875	1	1.0283203125
3542.21875	0.00833333333333333	0	-30	-10.3625	2	1.0546875
3545.9775390625	0.00833333333333333	0	30	3.06875	1	4.9599609375
3553.185546875	0.00833333333333333	0	-30	-10.3625	1	2.416015625
3558.0439453125	0.00833333333333333	0	-30	-10.3625	2	7.55078125
3567.994140625	0.00833333333333333	0	30	3.06875	1	14.1845703125
3584.71875	0.00833333333333333	0	30	3.06875	2	1.2919921875
3588.16796875	0.00833333333333333	0	-30	-10.3625	2	1.1708984375
3591.8095703125	0.00833333333333333	0	-30	-10.3625	2	1.2734375
3595.5419921875	0.00833333333333333	0	-30	-10.3625	1	9.4052734375
3607.2509765625	0.00833333333333333	0	30	3.06875	1	2.984375
3612.9267578125	0.00833333333333333	0	30	3.06875	1	1.7978515625
3617.0927734375	0.00833333333333333	0	30	3.06875	1	9.111328125
3628.5927734375	0.00833333333333333	0	-30	-10.3625	1	1.0517578125
3631.7763671875	0.00833333333333333	0	30	3.06875	1	0.8525390625
3635.009765625	0.00833333333333333	0	-30	-10.3625	1	0.8662109375
3638.0009765625	0.00833333333333333	0	-30	-10.3625	1	0.7314453125
3641.109375	0.00833333333333333	0	-30	-10.3625	2	0.791015625
3644.3671875	0.00833333333333333	0	30	3.06875	1	1.3095703125
3647.951171875	0.00833333333333333	0	-30	-10.3625	1	4.9013671875
3655.0341796875	0.00833333333333333	0	-30	-10.3625	2	0.8427734375
3658.3759765625	0.00833333333333333	0	-30	-10.3625	2	0.7177734375
3661.4091796875	0.00833333333333333	0	30	3.19375	2	6.4287109375
3670.3173828125	0.00833333333333333	0	30	3.19375	1	1.3837890625
3673.841796875	0.00833333333333333	0	30	3.19375	2	0.66796875
3676.8173828125	0.00833333333333333	0	30	3.19375	2	0.5888671875
3679.68359375	0.00833333333333333	0	-30	-10.3625	1	0.38671875
3682.3671875	0.00833333333333333	0	30	3.19375	1	5.046875
3689.6748046875	0.00833333333333333	0	-30	-10.3625	1	0.595703125
3692.4912109375	0.00833333333333333	0	-30	-10.3625	2	0.05078125
3694.908203125	0.00833333333333333	0	30	3.19375	1	0.90625
3698.091796875	0.00833333333333333	0	-30	-10.3625	2	1.06640625
3701.81640625	0.00833333333333333	0	-30	-10.3625	1	0.6298828125
3704.982421875	0.00833333333333333	0	30	3.19375	1	1.3603515625
3708.7080078125	0.00833333333333333	0	-30	-10.3625	1	0.779296875
3711.791015625	0.00833333333333333	0	-30	-10.3625	2	0.583984375
3714.7001953125	0.00833333333333333	0	30	3.19375	1	4.146484375
3721.4501953125	0.00833333333333333	0	30	3.19375	1	3.46875
3727.19140625	0.00833333333333333	0	-30	-10.3625	2	7.5126953125
3737.2578125	0.00833333333333333	0	30	3.31875	2	0.9736328125
3740.57421875	0.00833333333333333	0	30	3.31875	1	0.986328125
3743.9248046875	0.00833333333333333	0	-30	-10.3625	1	0.6513671875
3747.099609375	0.00833333333333333	0	30	3.31875	2	0.708984375
3750.0908203125	0.00833333333333333	0	-30	-10.3625	1	0.5654296875
3753.2490234375	0.00833333333333333	0	-30	-10.3625	1	1.9833984375
3757.857421875	0.00833333333333333	0	30	3.31875	1	1.279296875
3761.724609375	0.00833333333333333	0	-30	-10.3625	1	0.8359375
3764.9482421875	0.00833333333333333	0	-30	-10.3625	1	0.6279296875
3767.70703125	0.00833333333333333	0	30	3.31875	1	2.501953125
3772.3740234375	0.00833333333333333	0	30	3.31875	2	6.1552734375
3780.6240234375	0.00833333333333333	0	-30	-10.2375	1	0.689453125
3783.4658203125	0.00833333333333333	0	30	3.31875	1	0.783203125
3786.865234375	0.00833333333333333	0	30	3.31875	1	8.224609375
3797.515625	0.00833333333333333	0	-30	-10.2375	1	0.9423828125
3800.6240234375	0.00833333333333333	0	30	3.31875	1	6.41796875
3809.2568359375	0.00833333333333333	0	30	3.31875	1	1.8330078125
3813.1982421875	0.00833333333333333	0	-30	-10.2375	2	4.7880859375
3881.646484375	0.00833333333333333	0	30	3.31875	1	2.0302734375
3885.796875	0.00833333333333333	0	30	3.44375	1	1.3759765625
3889.7216796875	0.00833333333333333	0	-30	-10.2375	2	2.458984375
3894.630859375	0.00833333333333333	0	30	3.44375	1	0.9658203125
3898.138671875	0.00833333333333333	0	30	3.44375	2	2.169921875
3902.5556640625	0.00833333333333333	0	-30	-10.2375	1	3.2177734375
3908.1796875	0.00833333333333333	0	-30	-10.2375	1	4.322265625
3914.830078125	0.00833333333333333	0	-30	-10.2375	1	1.015625
3918.0302734375	0.00833333333333333	0	30	3.44375	1	1.103515625
3921.330078125	0.00833333333333333	0	30	3.44375	1	2.3876953125
3926.2470703125	0.00833333333333333	0	-30	-10.2375	1	2.9912109375
3931.587890625	0.00833333333333333	0	30	3.44375	1	3.9384765625
3938.00390625	0.00833333333333333	0	-30	-10.2375	2	7.8349609375
3948.4052734375	0.00833333333333333	0	-30	-10.2375	2	6.39453125
3957.337890625	0.00833333333333333	0	30	3.44375	2	2.3408203125
3961.904296875	0.00833333333333333	0	30	3.44375	1	1.150390625
3965.6044921875	0.00833333333333333	0	-30	-10.2375	1	0.650390625
3968.5703125	0.00833333333333333	0	30	3.44375	2	10.5087890625
3981.279296875	0.00833333333333333	0	30	3.44375	1	1.5205078125
3985.3125	0.00833333333333333	0	-30	-10.2375	1	1.279296875
3988.7529296875	0.00833333333333333	0	-30	-10.2375	2	0.9267578125
3992.00390625	0.00833333333333333	0	30	3.44375	1	0.5078125
3994.87890625	0.00833333333333333	0	-30	-10.2375	2	0.78515625
3997.861328125	0.00833333333333333	0	-30	-10.2375	1	0.890625
4001.154296875	0.00833333333333333	0	30	3.44375	1	0.6298828125
4004.3125	0.00833333333333333	0	30	3.44375	1	0.919921875
4007.6875	0.00833333333333333	0	30	3.44375	1	0.728515625
4010.87890625	0.00833333333333333	0	-30	-10.2375	1	0.2177734375
4013.345703125	0.00833333333333333	0	-30	-10.2375	1	3.7587890625
4019.287109375	0.00833333333333333	0	30	3.56875	1	4.0419921875
4025.50390625	0.00833333333333333	0	-30	-10.2375	1	0.1533203125
4028.2119140625	0.00833333333333333	0	-30	-10.2375	1	0.3896484375
4031.162109375	0.00833333333333333	0	-30	-10.1125	1	7.20703125
4040.8447265625	0.00833333333333333	0	30	3.56875	1	3.64453125
4046.703125	0.00833333333333333	0	30	3.56875	2	0.9951171875
4050.3779296875	0.00833333333333333	0	-30	-10.1125	1	3.103515625
4055.71875	0.00833333333333333	0	-30	-10.1125	2	9.451171875
4067.76171875	0.00833333333333333	0	-30	-10.1125	2	17.4091796875
4087.6357421875	0.00833333333333333	0	-30	-10.1125	1	8.9677734375
4098.7939453125	0.00833333333333333	0	30	3.56875	2	0.009765625
4101.2021484375	0.00833333333333333	0	30	3.56875	1	13.9697265625
4117.7607421875	0.00833333333333333	0	-30	-10.1125	2	1.6357421875
4121.9853515625	0.00833333333333333	0	30	3.56875	1	1.0751953125
4125.34375	0.00833333333333333	0	30	3.56875	1	0.6689453125
4128.1767578125	0.00833333333333333	0	-30	-10.1125	1	0.939453125
4131.2353515625	0.00833333333333333	0	-30	-10.1125	1	0.9697265625
4134.4267578125	0.00833333333333333	0	30	3.56875	1	0.9140625
4137.9853515625	0.00833333333333333	0	-30	-10.1125	1	1.7548828125
4142.3017578125	0.00833333333333333	0	30	3.56875	1	0.615234375
4145.267578125	0.00833333333333333	0	30	3.69375	1	2.44140625
4150.1513671875	0.00833333333333333	0	-30	-10.1125	2	3.4140625
4155.8515625	0.00833333333333333	0	30	3.69375	1	1.841796875
4160.16015625	0.00833333333333333	0	-30	-10.1125	1	0.8212890625
4163.1767578125	0.00833333333333333	0	30	3.69375	1	0.6923828125
4166.1513671875	0.00833333333333333	0	-30	-10.1125	1	0.40625
4168.8349609375	0.00833333333333333	0	-30	-10.1125	1	1.0341796875
4172.2177734375	0.00833333333333333	0	30	3.69375	1	4.419921875
4179.234375	0.00833333333333333	0	-30	-10.1125	2	18.091796875
4199.6181640625	0.00833333333333333	0	30	3.69375	1	0.9560546875
4202.7333984375	0.00833333333333333	0	30	3.81875	2	8.9931640625
4214.2587890625	0.00833333333333333	0	30	3.81875	1	1.5244140625
4217.958984375	0.00833333333333333	0	30	3.81875	2	3.248046875
4223.767578125	0.00833333333333333	0	30	3.81875	1	0.8955078125
4227.0087890625	0.00833333333333333	0	30	3.81875	2	1.126953125
4230.3759765625	0.00833333333333333	0	-30	-10.1125	1	2.9599609375
4235.591796875	0.00833333333333333	0	-30	-10.1125	1	10.7041015625
4248.591796875	0.00833333333333333	0	30	3.81875	1	6.81640625
4257.923828125	0.00833333333333333	0	-30	-10.1125	1	24.9091796875
4285.2001953125	0.00833333333333333	0	30	3.81875	1	19.666015625
4307.0244140625	0.00833333333333333	0	30	3.81875	1	16.05859375
4325.265625	0.00833333333333333	0	-30	-10.1125	2	15.6171875
4343.2646484375	0.00833333333333333	0	-30	-10.1125	1	8.1630859375
4353.7822265625	0.00833333333333333	0	-30	-10.1125	1	8.166015625
4364.4072265625	0.00833333333333333	0	30	3.81875	1	6.4853515625
4373.1240234375	0.00833333333333333	0	-30	-10.1125	2	8.0087890625
4383.2734375	0.00833333333333333	0	-30	-10.1125	2	0.787109375
4386.5146484375	0.00833333333333333	0	30	3.81875	2	0.3935546875
4389.2802734375	0.00833333333333333	0	-30	-10.1125	2	0.5478515625
4392.439453125	0.00833333333333333	0	30	3.81875	2	1.7890625
4396.4228515625	0.00833333333333333	0	-30	-10.1125	2	0.845703125
4494.8466796875	0.00833333333333333	0	30	3.81875	1	1.1298828125
4498.4130859375	0.00833333333333333	0	30	3.81875	1	1.05078125
4501.5966796875	0.00833333333333333	0	30	3.81875	1	0.939453125
4504.888671875	0.00833333333333333	0	30	3.81875	1	3.1435546875
4510.513671875	0.00833333333333333	0	30	3.81875	1	0.71875
4513.720703125	0.00833333333333333	0	30	3.94375	1	0.7197265625
4516.646484375	0.00833333333333333	0	-30	-10.1125	1	0.8662109375
4519.6630859375	0.00833333333333333	0	30	3.94375	1	1.0341796875
4523.3046875	0.00833333333333333	0	30	3.94375	1	0.6083984375
4526.4453125	0.00833333333333333	0	-30	-10.1125	1	0.68359375
4529.1962890625	0.00833333333333333	0	-30	-10.1125	1	1.98046875
4533.3046875	0.00833333333333333	0	-30	-10.1125	1	3.5927734375
4539.3125	0.00833333333333333	0	30	3.94375	2	0.9609375
4542.6123046875	0.00833333333333333	0	30	3.94375	2	2.701171875
4547.8125	0.00833333333333333	0	-30	-10.1125	2	3.4609375
4553.662109375	0.00833333333333333	0	-30	-10.1125	1	5.427734375
4561.7705078125	0.00833333333333333	0	30	3.94375	2	4.2314453125
4568.5126953125	0.00833333333333333	0	30	3.94375	1	11.1220703125
4582.0283203125	0.00833333333333333	0	30	3.94375	2	1.126953125
4585.62890625	0.00833333333333333	0	-30	-10.1125	1	1.1103515625
4589.220703125	0.00833333333333333	0	-30	-10.1125	2	0.88671875
4592.412109375	0.00833333333333333	0	-30	-10.1125	1	1.142578125
4595.7275390625	0.00833333333333333	0	-30	-10.1125	1	8.3955078125
4606.6279296875	0.00833333333333333	0	-30	-10.1125	2	1.5361328125
4610.5615234375	0.00833333333333333	0	-30	-10.1125	1	2.009765625
4614.978515625	0.00833333333333333	0	-30	-10.1125	1	7.841796875
4624.935546875	0.00833333333333333	0	30	3.94375	1	7.029296875
4634.203125	0.00833333333333333	0	30	3.94375	1	8.0576171875
4644.4775390625	0.00833333333333333	0	-30	-10.1125	1	0.951171875
4647.626953125	0.00833333333333333	0	30	3.94375	1	8.05859375
4657.8779296875	0.00833333333333333	0	30	3.94375	1	1.0078125
4661.2109375	0.00833333333333333	0	30	3.94375	1	1.7705078125
4665.2109375	0.00833333333333333	0	-30	-10.1125	1	3.2509765625
4670.7275390625	0.00833333333333333	0	-30	-10.1125	1	4.998046875
4678.244140625	0.00833333333333333	0	30	4.06875	1	9.1865234375
4689.5771484375	0.00833333333333333	0	-30	-9.9875	1	5.765625
4697.65234375	0.00833333333333333	0	-30	-9.9875	2	5.5302734375
4705.71875	0.00833333333333333	0	-30	-9.9875	1	0.9599609375
4709.1181640625	0.00833333333333333	0	30	4.06875	2	0.79296875
4712.0771484375	0.00833333333333333	0	-30	-9.9875	1	0.9462890625
4715.310546875	0.00833333333333333	0	30	4.06875	1	4.232421875
4722.1103515625	0.00833333333333333	0	-30	-9.9875	1	2.048828125
4726.3251953125	0.00833333333333333	0	30	4.06875	1	5.986328125
4734.568359375	0.00833333333333333	0	-30	-9.9875	1	4.439453125
4741.3427734375	0.00833333333333333	0	-30	-9.9875	1	8.921875
4752.5595703125	0.00833333333333333	0	-30	-9.8625	1	2.9853515625
4757.9501953125	0.00833333333333333	0	30	4.06875	1	7.826171875
4768.283203125	0.00833333333333333	0	-30	-9.8625	1	6.3896484375
4777.06640625	0.00833333333333333	0	-30	-9.8625	1	3.390625
4782.609375	0.00833333333333333	0	-30	-9.8625	1	16.8720703125
4801.93359375	0.00833333333333333	0	-30	-9.8625	1	0.009765625
4804.25	0.00833333333333333	0	30	4.06875	1	1.0078125
4807.7919921875	0.00833333333333333	0	-30	-9.7375	1	3.07421875
4813.3330078125	0.00833333333333333	0	-30	-9.7375	1	4.125
4820.041015625	0.00833333333333333	0	30	4.06875	1	0.2255859375
4822.56640625	0.00833333333333333	0	-30	-9.7375	1	5.2763671875
4830.1083984375	0.00833333333333333	0	-30	-9.7375	1	0.0546875
4832.2587890625	0.00833333333333333	0	-30	-9.7375	1	17.45703125
4852.0830078125	0.00833333333333333	0	30	4.19375	2	11.529296875
4866.25	0.00833333333333333	0	-30	-9.6125	1	4.40234375
4873.1328125	0.00833333333333333	0	30	4.19375	1	16.8798828125
4892.3154296875	0.00833333333333333	0	30	4.19375	1	1.625
4896.45703125	0.00833333333333333	0	30	4.19375	2	6.4521484375
4905.5244140625	0.00833333333333333	0	-30	-9.6125	2	8.537109375
4916.607421875	0.00833333333333333	0	30	4.19375	2	0.92578125
4919.880859375	0.00833333333333333	0	-30	-9.6125	1	0.9091796875
4923.373046875	0.00833333333333333	0	30	4.19375	2	0.79296875
4926.3740234375	0.00833333333333333	0	30	4.19375	1	1.15234375
4929.8984375	0.00833333333333333	0	-30	-9.6125	1	1.1396484375
4933.1484375	0.00833333333333333	0	-30	-9.6125	2	0.8662109375
4936.1982421875	0.00833333333333333	0	-30	-9.6125	2	0.759765625
4939.0810546875	0.00833333333333333	0	-30	-9.6125	2	0.6689453125
4942.2822265625	0.00833333333333333	0	30	4.19375	1	1.2041015625
4945.83203125	0.00833333333333333	0	-30	-9.6125	1	1.55859375
4949.8232421875	0.00833333333333333	0	30	4.19375	2	4.9677734375
4957.08984375	0.00833333333333333	0	-30	-9.6125	1	3.1572265625
4962.4814453125	0.00833333333333333	0	30	4.19375	2	3.1337890625
4967.8564453125	0.00833333333333333	0	-30	-9.6125	1	1.1669921875
4971.4560546875	0.00833333333333333	0	30	4.19375	2	0.8310546875
4974.6064453125	0.00833333333333333	0	-30	-9.6125	1	5.384765625
5020.98046875	0.00833333333333333	0	-30	-9.6125	1	4.556640625
5028.130859375	0.00833333333333333	0	30	4.19375	2	3.8466796875
5034.654296875	0.00833333333333333	0	-30	-9.4875	1	6.0029296875
5043.1640625	0.00833333333333333	0	30	4.19375	1	1.2138671875
5046.9462890625	0.00833333333333333	0	-30	-9.4875	1	8.17578125
5057.580078125	0.00833333333333333	0	-30	-9.4875	2	6.341796875
5066.212890625	0.00833333333333333	0	-30	-9.4875	1	7.4375
5075.9462890625	0.00833333333333333	0	30	4.19375	1	5.45703125
5083.6884765625	0.00833333333333333	0	30	4.19375	2	9.72265625
5095.8125	0.00833333333333333	0	30	4.19375	2	0.966796875
5099.1044921875	0.00833333333333333	0	30	4.19375	2	0.7392578125
5102.1796875	0.00833333333333333	0	30	4.19375	2	0.3837890625
5104.720703125	0.00833333333333333	0	-30	-9.4875	1	17.875
5124.9619140625	0.00833333333333333	0	-30	-9.4875	1	6.306640625
5133.4287109375	0.00833333333333333	0	-30	-9.4875	2	3.3994140625
5139.3203125	0.00833333333333333	0	30	4.19375	1	3.97265625
5145.5537109375	0.00833333333333333	0	-30	-9.4875	2	3.5234375
5151.537109375	0.00833333333333333	0	-30	-9.4875	1	7.8203125
5161.9365234375	0.00833333333333333	0	-30	-9.4875	2	3.8291015625
5168.0439453125	0.00833333333333333	0	30	4.19375	2	8.490234375
5178.861328125	0.00833333333333333	0	-30	-9.4875	1	2.80078125
5184.01953125	0.00833333333333333	0	-30	-9.4875	2	1.2421875
5187.486328125	0.00833333333333333	0	-30	-9.4875	2	9.4560546875
5199.443359375	0.00833333333333333	0	30	4.19375	1	6.8916015625
5208.578125	0.00833333333333333	0	30	4.19375	2	7.0927734375
5217.9775390625	0.00833333333333333	0	30	4.19375	1	7.173828125
5227.611328125	0.00833333333333333	0	-30	-9.4875	1	1.396484375
5231.2607421875	0.00833333333333333	0	30	4.19375	2	0.8994140625
5234.59375	0.00833333333333333	0	-30	-9.4875	2	1.9580078125
5239.15234375	0.00833333333333333	0	-30	-9.4875	1	16.736328125
5258.484375	0.00833333333333333	0	30	4.19375	1	7.9638671875
5268.5849609375	0.00833333333333333	0	30	4.19375	1	1.4794921875
5272.4931640625	0.00833333333333333	0	-30	-9.4875	1	3.4521484375
5278.1103515625	0.00833333333333333	0	-30	-9.4875	1	9.515625
5290.0595703125	0.00833333333333333	0	-30	-9.4875	1	8.09375
5300.576171875	0.00833333333333333	0	-30	-9.4875	1	6.5615234375
5309.359375	0.00833333333333333	0	-30	-9.3625	1	1.37890625
5313.017578125	0.00833333333333333	0	30	4.19375	1	12.361328125
5327.9091796875	0.00833333333333333	0	30	4.19375	1	11.0703125
5341.55859375	0.00833333333333333	0	-30	-9.3625	1	0.8681640625
5344.80859375	0.00833333333333333	0	-30	-9.3625	2	1.1943359375
5348.142578125	0.00833333333333333	0	-30	-9.3625	2	0.796875
5351.3837890625	0.00833333333333333	0	30	4.19375	1	1.0361328125
5354.6591796875	0.00833333333333333	0	30	4.31875	2	4.5927734375
5361.4169921875	0.00833333333333333	0	-30	-9.3625	2	6.3388671875
5370.341796875	0.00833333333333333	0	30	4.31875	2	8.71875
5381.5166015625	0.00833333333333333	0	30	4.31875	2	0.3037109375
5384.0498046875	0.00833333333333333	0	-30	-9.3625	2	6.69140625
5393.275390625	0.00833333333333333	0	-30	-9.3625	1	0.9375
5396.533203125	0.00833333333333333	0	30	4.31875	2	7.82421875
5406.7568359375	0.00833333333333333	0	30	4.31875	2	2.544921875
5411.533203125	0.00833333333333333	0	30	4.19375	1	12.9443359375
5426.6416015625	0.00833333333333333	0	30	4.19375	2	7.3564453125
5436.57421875	0.00833333333333333	0	-30	-9.3625	1	0.3203125
5439.291015625	0.00833333333333333	0	30	4.19375	2	13.5478515625
5455.3154296875	0.00833333333333333	0	30	4.19375	2	7.00390625
5464.57421875	0.00833333333333333	0	-30	-9.3625	2	1.625
5468.3994140625	0.00833333333333333	0	-30	-9.3625	2	6.240234375
5476.8740234375	0.00833333333333333	0	-30	-9.3625	2	3.3740234375
5482.5068359375	0.00833333333333333	0	30	4.19375	2	1.212890625
5485.96484375	0.00833333333333333	0	-30	-9.3625	2	13.9716796875
5502.0068359375	0.00833333333333333	0	-30	-9.3625	2	9.2421875
5513.431640625	0.00833333333333333	0	-30	-9.4875	2	2.4091796875
5518.3232421875	0.00833333333333333	0	30	4.19375	1	0.998046875
5521.7236328125	0.00833333333333333	0	30	4.19375	1	0.845703125
5524.6982421875	0.00833333333333333	0	30	4.19375	1	1.03125
5527.9814453125	0.00833333333333333	0	-30	-9.4875	2	5.6279296875
5535.90625	0.00833333333333333	0	30	4.19375	1	4.51953125
5542.5400390625	0.00833333333333333	0	30	4.19375	1	0.8134765625
5545.623046875	0.00833333333333333	0	-30	-9.4875	1	3.291015625
5551.3564453125	0.00833333333333333	0	-30	-9.4875	1	1.09375
5554.71484375	0.00833333333333333	0	30	4.31875	2	3.0634765625
5560.748046875	0.00833333333333333	0	-30	-9.4875	1	3.5107421875
5566.623046875	0.00833333333333333	0	-30	-9.4875	2	0.8916015625
5569.8056640625	0.00833333333333333	0	-30	-9.4875	2	0.7490234375
5572.755859375	0.00833333333333333	0	30	4.31875	2	10.470703125
5585.59765625	0.00833333333333333	0	30	4.31875	2	3.4619140625
5591.35546875	0.00833333333333333	0	30	4.31875	2	9.767578125
5603.763671875	0.00833333333333333	0	-30	-9.4875	1	1.1923828125
5607.4716796875	0.00833333333333333	0	-30	-9.4875	2	3.6201171875
5652.904296875	0.00833333333333333	0	30	4.31875	1	4.9814453125
5660.2216796875	0.00833333333333333	0	30	4.31875	1	0.9755859375
5663.654296875	0.00833333333333333	0	-30	-9.4875	2	1.2236328125
5667.3623046875	0.00833333333333333	0	30	4.31875	2	0.7548828125
5670.353515625	0.00833333333333333	0	-30	-9.4875	2	1.0517578125
5673.5546875	0.00833333333333333	0	-30	-9.4875	2	0.8349609375
5676.7705078125	0.00833333333333333	0	-30	-9.4875	2	0.8837890625
5680.154296875	0.00833333333333333	0	-30	-9.6125	2	18.220703125
5700.654296875	0.00833333333333333	0	-30	-9.6125	1	2.376953125
5705.4208984375	0.00833333333333333	0	-30	-9.6125	2	1.001953125
5708.9208984375	0.00833333333333333	0	30	4.31875	2	0.830078125
5712.0126953125	0.00833333333333333	0	30	4.31875	2	0.7705078125
5715.3447265625	0.00833333333333333	0	-30	-9.6125	2	0.646484375
5718.419921875	0.00833333333333333	0	30	4.31875	2	3.3310546875
5724.13671875	0.00833333333333333	0	-30	-9.6125	2	4.134765625
5730.5537109375	0.00833333333333333	0	30	4.31875	2	2.1337890625
5735.0537109375	0.00833333333333333	0	-30	-9.6125	2	1.1220703125
5738.703125	0.00833333333333333	0	30	4.19375	2	0.720703125
5741.64453125	0.00833333333333333	0	30	4.19375	2	0.68359375
5744.4697265625	0.00833333333333333	0	30	4.19375	2	0.7138671875
5747.427734375	0.00833333333333333	0	30	4.19375	2	2.4521484375
5752.39453125	0.00833333333333333	0	-30	-9.6125	2	1.021484375
5755.8115234375	0.00833333333333333	0	-30	-9.7375	2	0.96484375
5759.0869140625	0.00833333333333333	0	30	4.19375	1	0.0087890625
5761.3779296875	0.00833333333333333	0	-30	-9.7375	2	0.87890625
5764.6201171875	0.00833333333333333	0	-30	-9.7375	1	0.548828125
5767.744140625	0.00833333333333333	0	30	4.19375	1	2.1767578125
5772.51953125	0.00833333333333333	0	-30	-9.7375	2	5.986328125
5781.060546875	0.00833333333333333	0	30	4.19375	1	0.9482421875
5784.1025390625	0.00833333333333333	0	-30	-9.7375	2	1.314453125
5787.7275390625	0.00833333333333333	0	-30	-9.7375	1	2.1298828125
5792.3525390625	0.00833333333333333	0	-30	-9.7375	2	1.4091796875
5796.251953125	0.00833333333333333	0	-30	-9.7375	2	0.7255859375
5799.2353515625	0.00833333333333333	0	30	4.19375	2	0.7265625
5802.5107421875	0.00833333333333333	0	30	4.19375	1	9.4755859375
5814.3271484375	0.00833333333333333	0	-30	-9.7375	2	1.3154296875
5818.2685546875	0.00833333333333333	0	30	4.19375	1	0.8623046875
5821.46875	0.00833333333333333	0	30	4.19375	2	1.9658203125
5825.71875	0.00833333333333333	0	30	4.19375	1	7.083984375
5835.0107421875	0.00833333333333333	0	-30	-9.7375	2	6.1689453125
5843.77734375	0.00833333333333333	0	30	4.19375	1	2.4736328125
5848.7099609375	0.00833333333333333	0	30	4.19375	2	2.7099609375
5853.5771484375	0.00833333333333333	0	-30	-9.7375	1	5.70703125
5861.78515625	0.00833333333333333	0	30	4.19375	2	13.5869140625
5877.892578125	0.00833333333333333	0	30	4.19375	1	5.751953125
5885.826171875	0.00833333333333333	0	30	4.19375	1	5.9228515625
5894.3173828125	0.00833333333333333	0	-30	-9.7375	1	2.615234375
5899.2177734375	0.00833333333333333	0	-30	-9.7375	1	0.9951171875
5902.4677734375	0.00833333333333333	0	-30	-9.7375	2	0.857421875
5905.54296875	0.00833333333333333	0	30	4.19375	2	1.09375
5909.04296875	0.00833333333333333	0	30	4.19375	2	0.8828125
5912.1083984375	0.00833333333333333	0	-30	-9.7375	1	0.9853515625
5915.142578125	0.00833333333333333	0	30	4.19375	2	4.951171875
5922.5927734375	0.00833333333333333	0	30	4.19375	2	8.6376953125
5933.841796875	0.00833333333333333	0	30	4.19375	2	1.171875
5937.3173828125	0.00833333333333333	0	-30	-9.7375	1	1.1611328125
5940.5751953125	0.00833333333333333	0	30	4.06875	1	0.85546875
5943.9169921875	0.00833333333333333	0	30	4.06875	2	0.9052734375
5947.4072265625	0.00833333333333333	0	-30	-9.7375	1	0.5830078125
5950.283203125	0.00833333333333333	0	-30	-9.7375	2	0.603515625
5953.2998046875	0.00833333333333333	0	30	4.06875	1	0.4111328125
5956.283203125	0.00833333333333333	0	-30	-9.7375	2	0.755859375
5959.55859375	0.00833333333333333	0	-30	-9.7375	1	13.896484375
5975.7919921875	0.00833333333333333	0	30	4.06875	2	1.447265625
5979.716796875	0.00833333333333333	0	-30	-9.7375	2	2.6904296875
5984.7744140625	0.00833333333333333	0	30	4.06875	1	0.75390625
5988.0322265625	0.00833333333333333	0	-30	-9.7375	2	6.8076171875
5997.3076171875	0.00833333333333333	0	30	4.06875	2	6.9091796875
6006.6328125	0.00833333333333333	0	-30	-9.7375	1	4.6240234375
6013.482421875	0.00833333333333333	0	30	4.06875	1	6.5185546875
6022.5576171875	0.00833333333333333	0	30	4.06875	2	11.076171875
6036.015625	0.00833333333333333	0	30	4.06875	2	8.0498046875
6046.416015625	0.00833333333333333	0	-30	-9.7375	1	0.11328125
6048.9072265625	0.00833333333333333	0	30	4.06875	2	2.390625
6053.5322265625	0.00833333333333333	0	30	4.06875	2	3.2783203125
6059.19921875	0.00833333333333333	0	30	4.06875	2	8.4912109375
6070.2236328125	0.00833333333333333	0	30	3.94375	2	4.6669921875
6077.4404296875	0.00833333333333333	0	30	3.94375	2	0.009765625
6079.4404296875	0.00833333333333333	0	30	3.94375	1	1.40234375
6083.2900390625	0.00833333333333333	0	-30	-9.7375	1	1.9052734375
6127.8564453125	0.00833333333333333	0	30	3.94375	2	10.2607421875
6140.65625	0.00833333333333333	0	-30	-9.7375	2	2.044921875
6145.0546875	0.00833333333333333	0	-30	-9.7375	2	2.0146484375
6149.3056640625	0.00833333333333333	0	30	3.94375	2	2.1630859375
6153.955078125	0.00833333333333333	0	-30	-9.7375	2	2.634765625
6159.2470703125	0.00833333333333333	0	30	3.94375	1	4.6865234375
6166.36328125	0.00833333333333333	0	-30	-9.7375	1	1.1943359375
6170.0390625	0.00833333333333333	0	-30	-9.7375	2	7.87890625
6180.296875	0.00833333333333333	0	-30	-9.7375	2	4.2294921875
6186.98828125	0.00833333333333333	0	30	3.94375	2	8.2421875
6197.705078125	0.00833333333333333	0	30	3.94375	2	5.9814453125
6206.271484375	0.00833333333333333	0	-30	-9.7375	1	14.935546875
6223.4130859375	0.00833333333333333	0	-30	-9.7375	2	2.2744140625
6227.970703125	0.00833333333333333	0	-30	-9.7375	2	1.7890625
6231.970703125	0.00833333333333333	0	-30	-9.7375	2	1.8291015625
6235.986328125	0.00833333333333333	0	-30	-9.7375	1	3.7578125
6242.2373046875	0.00833333333333333	0	30	3.94375	2	2.2998046875
6246.9794921875	0.00833333333333333	0	30	3.94375	2	0.900390625
6250.0205078125	0.00833333333333333	0	30	3.94375	2	0.8359375
6253.0458984375	0.00833333333333333	0	30	3.81875	1	0.9541015625
6256.4794921875	0.00833333333333333	0	30	3.81875	1	0.0087890625
6258.662109375	0.00833333333333333	0	30	3.81875	2	1.07421875
6261.99609375	0.00833333333333333	0	-30	-9.7375	2	8.6123046875
6272.728515625	0.00833333333333333	0	30	3.81875	2	10.6650390625
6286.0283203125	0.00833333333333333	0	30	3.81875	2	3.541015625
6291.6787109375	0.00833333333333333	0	30	3.81875	1	1.2509765625
6295.3115234375	0.00833333333333333	0	30	3.81875	2	3.9619140625
6301.544921875	0.00833333333333333	0	30	3.81875	2	1.857421875
6305.63671875	0.00833333333333333	0	30	3.81875	2	4.365234375
6312.3447265625	0.00833333333333333	0	30	3.81875	2	7.578125
6322.1865234375	0.00833333333333333	0	30	3.81875	2	10.0087890625
6334.8359375	0.00833333333333333	0	-30	-9.7375	2	6.9033203125
6343.9775390625	0.00833333333333333	0	30	3.69375	2	4.3701171875
6350.8359375	0.00833333333333333	0	30	3.69375	2	3.6884765625
6356.76953125	0.00833333333333333	0	-30	-9.7375	2	0.6259765625
6359.9443359375	0.00833333333333333	0	30	3.69375	2	3.443359375
6365.869140625	0.00833333333333333	0	-30	-9.7375	2	0.119140625
6368.560546875	0.00833333333333333	0	30	3.69375	2	2.859375
6373.84375	0.00833333333333333	0	-30	-9.7375	2	5.81640625
6382.29296875	0.00833333333333333	0	-30	-9.8625	2	2.767578125
6387.3193359375	0.00833333333333333	0	30	3.69375	2	7.765625
6397.318359375	0.00833333333333333	0	-30	-9.8625	2	0.87109375
6400.5107421875	0.00833333333333333	0	-30	-9.8625	2	7.7509765625
6410.42578125	0.00833333333333333	0	-30	-9.8625	1	3.1240234375
6415.810546875	0.00833333333333333	0	30	3.56875	2	14.099609375
6432.4931640625	0.00833333333333333	0	30	3.56875	2	3.46484375
6438.458984375	0.00833333333333333	0	30	3.56875	2	3.8994140625
6444.6259765625	0.00833333333333333	0	-30	-9.8625	2	2.716796875
6449.8173828125	0.00833333333333333	0	30	3.56875	2	3.78125
6455.7763671875	0.00833333333333333	0	30	3.56875	2	4.390625
6462.3515625	0.00833333333333333	0	-30	-9.8625	2	4.255859375
6468.8505859375	0.00833333333333333	0	-30	-9.8625	2	6.9013671875
6478.3505859375	0.00833333333333333	0	30	3.44375	2	4.9453125
6485.5419921875	0.00833333333333333	0	30	3.44375	2	2.6337890625
6490.3828125	0.00833333333333333	0	30	3.44375	2	5.849609375
6498.466796875	0.00833333333333333	0	-30	-9.8625	1	3.9970703125
6504.916015625	0.00833333333333333	0	-30	-9.8625	1	0.8203125
6508.275390625	0.00833333333333333	0	-30	-9.8625	1	0.9892578125
6511.625	0.00833333333333333	0	-30	-9.8625	1	0.7119140625
6514.650390625	0.00833333333333333	0	-30	-9.8625	2	7.142578125
6524.2666015625	0.00833333333333333	0	-30	-9.8625	1	1.294921875
6528.125	0.00833333333333333	0	-30	-9.8625	1	1.33203125
6531.8330078125	0.00833333333333333	0	30	3.44375	1	0.3837890625
6534.650390625	0.00833333333333333	0	30	3.44375	2	0.3349609375
6537.4580078125	0.00833333333333333	0	-30	-9.8625	2	1.2158203125
6541.1748046875	0.00833333333333333	0	30	3.44375	2	0.3623046875
6543.9501953125	0.00833333333333333	0	-30	-9.8625	2	0.2431640625
6546.6328125	0.00833333333333333	0	30	3.44375	2	2.552734375
6551.5654296875	0.00833333333333333	0	30	3.44375	1	1.6123046875
6555.658203125	0.00833333333333333	0	30	3.44375	2	0.7353515625
6559.1494140625	0.00833333333333333	0	-30	-9.8625	2	5.205078125
6566.7998046875	0.00833333333333333	0	30	3.44375	2	15.6591796875
6585.482421875	0.00833333333333333	0	-30	-9.8625	2	7.4970703125
6595.4404296875	0.00833333333333333	0	-30	-9.8625	2	3.5869140625
6601.6494140625	0.00833333333333333	0	30	3.44375	2	4.9541015625
6608.8984375	0.00833333333333333	0	30	3.44375	2	1.041015625
6612.58203125	0.00833333333333333	0	-30	-9.9875	2	2.60546875
6617.6318359375	0.00833333333333333	0	30	3.44375	2	8.7724609375
6628.6240234375	0.00833333333333333	0	30	3.31875	1	0.900390625
6631.923828125	0.00833333333333333	0	30	3.31875	2	12.3525390625
6710.4140625	0.00833333333333333	0	-30	-9.9875	2	3.48046875
6716.505859375	0.00833333333333333	0	-30	-9.9875	1	1.61328125
6720.2470703125	0.00833333333333333	0	-30	-9.9875	2	1.3203125
6724.046875	0.00833333333333333	0	-30	-9.9875	2	0.697265625
6727.130859375	0.00833333333333333	0	-30	-9.9875	2	0.8046875
6730.4638671875	0.00833333333333333	0	30	3.31875	2	0.7041015625
6733.7470703125	0.00833333333333333	0	-30	-9.9875	2	0.564453125
6736.505859375	0.00833333333333333	0	30	3.31875	2	0.5341796875
6739.35546875	0.00833333333333333	0	30	3.31875	2	0.548828125
6742.2470703125	0.00833333333333333	0	30	3.31875	2	0.5458984375
6745.0302734375	0.00833333333333333	0	-30	-9.9875	2	0.5302734375
6747.9384765625	0.00833333333333333	0	30	3.19375	2	0.5419921875
6750.8720703125	0.00833333333333333	0	-30	-10.1125	2	0.7119140625
6753.73046875	0.00833333333333333	0	-30	-10.1125	2	0.4296875
6756.271484375	0.00833333333333333	0	-30	-10.1125	2	0.5771484375
6758.955078125	0.00833333333333333	0	30	3.19375	2	0.6376953125
6762.0546875	0.00833333333333333	0	-30	-10.1125	2	0.73046875
6765.2880859375	0.00833333333333333	0	-30	-10.1125	2	0.78515625
6768.5634765625	0.00833333333333333	0	-30	-10.2375	2	0.6376953125
6771.4052734375	0.00833333333333333	0	-30	-10.2375	2	0.66796875
6774.5966796875	0.00833333333333333	0	-30	-10.2375	2	0.3642578125
6777.513671875	0.00833333333333333	0	30	3.19375	2	0.583984375
6780.4794921875	0.00833333333333333	0	-30	-10.2375	2	0.6337890625
6783.4794921875	0.00833333333333333	0	-30	-10.2375	2	0.4501953125
6786.49609375	0.00833333333333333	0	-30	-10.3625	2	0.4892578125
6789.2216796875	0.00833333333333333	0	30	3.19375	2	1.4755859375
6793.1630859375	0.00833333333333333	0	30	3.19375	2	1.1748046875
6796.6044921875	0.00833333333333333	0	30	3.06875	2	3.109375
6802.1708984375	0.00833333333333333	0	30	3.06875	2	1.6630859375
6806.3955078125	0.00833333333333333	0	30	3.06875	2	1.2705078125
6809.904296875	0.00833333333333333	0	-30	-10.3625	2	1.353515625
6813.4296875	0.00833333333333333	0	30	3.06875	2	1.9482421875
6817.5458984375	0.00833333333333333	0	-30	-10.3625	1	0.80078125
6820.4794921875	0.00833333333333333	0	30	3.06875	1	4.603515625
6827.62109375	0.00833333333333333	0	-30	-10.3625	1	1.1015625
6830.970703125	0.00833333333333333	0	30	3.06875	2	10.5283203125
6843.87890625	0.00833333333333333	0	30	3.06875	2	0.99609375
6847.25390625	0.00833333333333333	0	-30	-10.3625	2	0.6533203125
6850.287109375	0.00833333333333333	0	30	3.06875	2	0.548828125
6853.095703125	0.00833333333333333	0	-30	-10.3625	2	0.5478515625
6855.8291015625	0.00833333333333333	0	-30	-10.3625	1	1.2626953125
6859.603515625	0.00833333333333333	0	-30	-10.3625	1	0.640625
6862.412109375	0.00833333333333333	0	-30	-10.3625	1	0.671875
6865.6787109375	0.00833333333333333	0	30	3.06875	1	0.7255859375
6868.978515625	0.00833333333333333	0	-30	-10.3625	1	0.666015625
6871.8701171875	0.00833333333333333	0	-30	-10.3625	1	0.5498046875
6874.8955078125	0.00833333333333333	0	30	3.06875	1	0.533203125
6877.5869140625	0.00833333333333333	0	30	3.06875	1	0.521484375
6880.611328125	0.00833333333333333	0	30	3.06875	1	0.6806640625
6883.7451171875	0.00833333333333333	0	30	3.06875	1	0.68359375
6886.8779296875	0.00833333333333333	0	-30	-10.2375	1	0.486328125
6889.5869140625	0.00833333333333333	0	30	3.19375	1	1.4501953125
6893.2529296875	0.00833333333333333	0	-30	-10.2375	1	0.5283203125
6896.0029296875	0.00833333333333333	0	30	3.19375	1	0.2578125
6898.703125	0.00833333333333333	0	30	3.19375	1	0.734375
6902.044921875	0.00833333333333333	0	-30	-10.2375	1	0.5126953125
6905.0859375	0.00833333333333333	0	-30	-10.2375	1	0.3916015625
6907.8681640625	0.00833333333333333	0	-30	-10.2375	1	0.345703125
6910.5029296875	0.00833333333333333	0	30	3.19375	1	0.375
6913.236328125	0.00833333333333333	0	30	3.19375	1	0.6259765625
6916.3525390625	0.00833333333333333	0	30	3.31875	1	0.6767578125
6919.3603515625	0.00833333333333333	0	-30	-10.1125	1	0.8134765625
6922.5029296875	0.00833333333333333	0	30	3.31875	1	2.798828125
6927.6357421875	0.00833333333333333	0	-30	-10.1125	1	4.41796875
6934.6025390625	0.00833333333333333	0	-30	-10.1125	1	1.1083984375
6937.8603515625	0.00833333333333333	0	30	3.31875	1	0.802734375
6941.14453125	0.00833333333333333	0	-30	-10.1125	1	0.6220703125
6944.177734375	0.00833333333333333	0	-30	-10.1125	1	0.8291015625
6947.27734375	0.00833333333333333	0	-30	-9.9875	1	0.609375
6950.03515625	0.00833333333333333	0	-30	-9.9875	1	0.5
6952.802734375	0.00833333333333333	0	-30	-9.9875	2	2.6357421875
6957.6845703125	0.00833333333333333	0	30	3.31875	2	1.7548828125
6962.060546875	0.00833333333333333	0	30	3.31875	2	0.890625
6965.244140625	0.00833333333333333	0	30	3.31875	2	2.875
6970.65234375	0.00833333333333333	0	30	3.31875	1	1.3955078125
6974.4931640625	0.00833333333333333	0	-30	-9.9875	1	3.5224609375
6980.2265625	0.00833333333333333	0	30	3.31875	2	0.9970703125
6983.4267578125	0.00833333333333333	0	30	3.31875	2	1.125
6986.8603515625	0.00833333333333333	0	30	3.31875	2	1.5234375
6990.91796875	0.00833333333333333	0	30	3.31875	2	0.7216796875
