onset	duration	titr	surround	centre	response	rt
13.3291015625	0.00833333333333333	1	NaN	-15	1	2.896484375
18.4794921875	0.00833333333333333	1	NaN	-14	1	0.978515625
21.8896484375	0.00833333333333333	1	-30	15	2	1.3447265625
25.787109375	0.00833333333333333	1	-30	-15	1	1.134765625
29.2548828125	0.00833333333333333	1	30	15	2	0.603515625
32.3125	0.00833333333333333	1	NaN	15	2	0.6982421875
35.26171875	0.00833333333333333	1	NaN	14	2	1.060546875
38.6533203125	0.00833333333333333	1	30	-15	1	0.5732421875
41.7451171875	0.00833333333333333	1	30	14	2	0.6572265625
44.8369140625	0.00833333333333333	1	30	13	2	0.853515625
47.927734375	0.00833333333333333	1	NaN	13	2	0.71484375
51.103515625	0.00833333333333333	1	-30	-14	1	0.7314453125
53.9287109375	0.00833333333333333	1	-30	-13	1	0.666015625
56.9775390625	0.00833333333333333	1	NaN	-13	1	0.7451171875
60.228515625	0.00833333333333333	1	NaN	-12	1	0.638671875
63.0615234375	0.00833333333333333	1	NaN	-11	1	0.58984375
66.16015625	0.00833333333333333	1	NaN	-10	1	0.5869140625
69.0947265625	0.00833333333333333	1	NaN	12	2	0.556640625
71.8935546875	0.00833333333333333	1	-30	-12	1	1.3984375
75.494140625	0.00833333333333333	1	-30	-11	1	1.4052734375
79.1689453125	0.00833333333333333	1	30	-14	1	0.634765625
82.1357421875	0.00833333333333333	1	-30	14	2	0.7001953125
85.0615234375	0.00833333333333333	1	NaN	11	2	0.654296875
88.1025390625	0.00833333333333333	1	-30	13	2	0.6298828125
91.185546875	0.00833333333333333	1	-30	12	2	0.6826171875
94.4697265625	0.00833333333333333	1	30	-13	1	0.8388671875
97.5771484375	0.00833333333333333	1	30	-12	1	0.6513671875
100.361328125	0.00833333333333333	1	NaN	10	2	0.6826171875
103.2861328125	0.00833333333333333	1	30	-11	1	0.7666015625
106.65234375	0.00833333333333333	1	-30	11	2	0.6240234375
109.8603515625	0.00833333333333333	1	-30	10	2	0.6083984375
113.0107421875	0.00833333333333333	1	-30	-10	1	0.5302734375
115.8359375	0.00833333333333333	1	-30	9	2	0.5771484375
118.951171875	0.00833333333333333	1	NaN	-9	1	0.5341796875
121.59375	0.00833333333333333	1	30	12	2	0.6279296875
124.3857421875	0.00833333333333333	1	-30	8	2	0.6201171875
127.41015625	0.00833333333333333	1	30	-10	1	0.603515625
130.5185546875	0.00833333333333333	1	-30	7	2	0.5107421875
133.46875	0.00833333333333333	1	-30	-9	1	1.0244140625
136.693359375	0.00833333333333333	1	-30	6	2	0.560546875
139.4853515625	0.00833333333333333	1	NaN	9	2	0.5283203125
142.3603515625	0.00833333333333333	1	30	-9	1	0.6298828125
145.41796875	0.00833333333333333	1	NaN	-8	1	0.7314453125
148.251953125	0.00833333333333333	1	-30	-8	1	1.2177734375
151.7177734375	0.00833333333333333	1	30	11	2	0.65625
154.9345703125	0.00833333333333333	1	30	-8	1	0.607421875
158.03515625	0.00833333333333333	1	NaN	-7	1	0.5390625
161.1015625	0.00833333333333333	1	-30	-7	1	0.79296875
164.3759765625	0.00833333333333333	1	NaN	-6	1	0.9423828125
167.66796875	0.00833333333333333	1	NaN	8	2	0.53125
170.451171875	0.00833333333333333	1	30	10	2	1.580078125
174.55859375	0.00833333333333333	1	30	-7	1	0.6083984375
177.509765625	0.00833333333333333	1	NaN	-5	1	0.7607421875
180.642578125	0.00833333333333333	1	NaN	7	2	0.6689453125
183.734375	0.00833333333333333	1	NaN	6	2	0.4970703125
186.67578125	0.00833333333333333	1	30	9	2	0.5791015625
189.533203125	0.00833333333333333	1	-30	5	2	0.5224609375
192.642578125	0.00833333333333333	1	NaN	-4	1	0.556640625
195.4677734375	0.00833333333333333	1	NaN	-3	1	0.65234375
198.1923828125	0.00833333333333333	1	NaN	5	2	0.5830078125
201.201171875	0.00833333333333333	1	30	-6	1	0.5341796875
204.18359375	0.00833333333333333	1	NaN	-2	1	0.82421875
207.4345703125	0.00833333333333333	1	30	-5	1	0.517578125
210.1845703125	0.00833333333333333	1	NaN	4	2	0.439453125
213.0419921875	0.00833333333333333	1	-30	4	2	0.5498046875
216.1259765625	0.00833333333333333	1	NaN	-1	2	0.6904296875
219.2412109375	0.00833333333333333	1	30	-4	1	0.5107421875
222.1591796875	0.00833333333333333	1	30	8	2	0.4892578125
224.908203125	0.00833333333333333	1	30	-3	1	0.8603515625
228.2080078125	0.00833333333333333	1	-30	3	2	0.5048828125
231.0341796875	0.00833333333333333	1	-30	2	2	0.4150390625
233.68359375	0.00833333333333333	1	NaN	3	2	0.4130859375
236.19921875	0.00833333333333333	1	NaN	-2	2	0.681640625
239.4091796875	0.00833333333333333	1	30	7	2	0.5673828125
242.4921875	0.00833333333333333	1	NaN	-3	2	0.6767578125
245.7666015625	0.00833333333333333	1	NaN	2	2	0.6025390625
248.7080078125	0.00833333333333333	1	30	-2	1	0.7255859375
251.7587890625	0.00833333333333333	1	-30	-6	2	1.2822265625
255.56640625	0.00833333333333333	1	-30	1	2	0.5234375
258.5	0.00833333333333333	1	NaN	1	2	0.8212890625
261.7587890625	0.00833333333333333	1	30	-1	1	0.626953125
264.599609375	0.00833333333333333	1	-30	-7	1	0.9140625
268.015625	0.00833333333333333	1	30	6	1	1.154296875
271.2666015625	0.00833333333333333	1	-30	-6	2	1.0234375
274.658203125	0.00833333333333333	1	30	7	2	0.912109375
278.0751953125	0.00833333333333333	1	NaN	-4	1	0.86328125
281.4248046875	0.00833333333333333	1	-30	0	2	0.6416015625
284.6416015625	0.00833333333333333	1	NaN	0	2	0.7607421875
287.591796875	0.00833333333333333	1	30	6	2	0.650390625
290.341796875	0.00833333333333333	1	-30	-1	2	0.62890625
293.125	0.00833333333333333	1	NaN	-1	2	0.8857421875
296.46484375	0.00833333333333333	1	30	0	1	0.5537109375
299.416015625	0.00833333333333333	1	-30	-7	2	0.9794921875
302.8994140625	0.00833333333333333	1	NaN	-2	1	0.912109375
305.9326171875	0.00833333333333333	1	NaN	-1	2	0.791015625
309.0078125	0.00833333333333333	1	30	5	1	0.8759765625
312.19921875	0.00833333333333333	1	30	1	1	0.7001953125
330.474609375	0.00833333333333333	1	30	6	1	0.9052734375
333.740234375	0.00833333333333333	1	-30	-2	2	1.0322265625
336.974609375	0.00833333333333333	1	NaN	-3	2	1.189453125
340.416015625	0.00833333333333333	1	30	2	1	1.15625
344.0908203125	0.00833333333333333	1	NaN	-4	1	0.6259765625
347.0576171875	0.00833333333333333	1	30	7	2	0.8505859375
350.45703125	0.00833333333333333	1	NaN	-3	1	0.5712890625
353.3740234375	0.00833333333333333	1	NaN	-2	1	0.6630859375
356.423828125	0.00833333333333333	1	-30	-3	2	0.64453125
359.6650390625	0.00833333333333333	1	-30	-4	1	0.6279296875
362.53125	0.00833333333333333	1	NaN	-2	2	1.09765625
366.1650390625	0.00833333333333333	1	30	3	2	1.3525390625
369.623046875	0.00833333333333333	1	NaN	-1	2	1.173828125
373.107421875	0.00833333333333333	1	-30	-3	2	0.9775390625
376.1982421875	0.00833333333333333	1	30	6	2	0.7353515625
379.2314453125	0.00833333333333333	1	-30	-8	2	1.57421875
383.3984375	0.00833333333333333	1	-30	-9	1	0.767578125
386.306640625	0.00833333333333333	1	30	5	2	0.8037109375
389.45703125	0.00833333333333333	1	NaN	-2	2	0.9892578125
392.556640625	0.00833333333333333	1	-30	-4	2	0.6572265625
395.7568359375	0.00833333333333333	1	NaN	-3	2	0.849609375
398.7900390625	0.00833333333333333	1	30	4	1	1.16796875
402.3720703125	0.00833333333333333	1	-30	-8	2	1.41796875
406.064453125	0.00833333333333333	1	30	2	2	1.1904296875
409.3984375	0.00833333333333333	1	-30	-9	2	1.17578125
412.8232421875	0.00833333333333333	1	NaN	-4	2	1.087890625
416.0556640625	0.00833333333333333	1	NaN	-3	1	0.7353515625
419.1142578125	0.00833333333333333	1	30	1	1	1.044921875
422.5224609375	0.00833333333333333	1	30	5	2	0.884765625
425.5810546875	0.00833333333333333	1	-30	-10	1	0.6025390625
428.61328125	0.00833333333333333	1	30	4	2	0.841796875
431.697265625	0.00833333333333333	1	NaN	-2	1	0.6787109375
434.5888671875	0.00833333333333333	1	30	3	2	0.890625
437.6474609375	0.00833333333333333	1	NaN	-1	2	0.9921875
440.9462890625	0.00833333333333333	1	NaN	-5	1	0.62109375
443.7216796875	0.00833333333333333	1	NaN	-2	1	1.078125
447.1806640625	0.00833333333333333	1	30	2	1	0.9794921875
450.638671875	0.00833333333333333	1	NaN	-4	1	0.6572265625
453.4638671875	0.00833333333333333	1	NaN	-1	1	1.1044921875
457.087890625	0.00833333333333333	1	-30	-9	1	0.6640625
459.8310546875	0.00833333333333333	1	NaN	-3	1	0.76953125
463.1220703125	0.00833333333333333	1	NaN	-2	2	0.6298828125
466.171875	0.00833333333333333	1	NaN	0	2	0.5888671875
468.86328125	0.00833333333333333	1	30	3	1	1.44921875
472.671875	0.00833333333333333	1	NaN	-1	2	1.3369140625
476.3720703125	0.00833333333333333	1	-30	-5	2	0.62890625
479.4052734375	0.00833333333333333	1	30	2	1	0.5634765625
482.2548828125	0.00833333333333333	1	NaN	-3	1	0.5859375
485.197265625	0.00833333333333333	1	-30	-8	2	1.34765625
488.85546875	0.00833333333333333	1	30	3	1	0.7705078125
491.6796875	0.00833333333333333	1	NaN	-2	1	0.7138671875
494.4716796875	0.00833333333333333	1	30	4	1	0.7138671875
497.296875	0.00833333333333333	1	-30	-9	1	0.640625
500.337890625	0.00833333333333333	1	-30	-6	1	0.7197265625
503.205078125	0.00833333333333333	1	30	5	1	0.9404296875
506.646484375	0.00833333333333333	1	-30	-5	1	0.763671875
509.8466796875	0.00833333333333333	1	NaN	-2	2	1.1474609375
513.330078125	0.00833333333333333	1	-30	-8	1	1.3037109375
516.7216796875	0.00833333333333333	1	30	6	1	0.82421875
520.080078125	0.00833333333333333	1	30	4	2	0.978515625
523.396484375	0.00833333333333333	1	30	3	1	1.3017578125
526.87109375	0.00833333333333333	1	NaN	-3	1	0.6279296875
529.779296875	0.00833333333333333	1	-30	-4	1	0.6953125
532.7958984375	0.00833333333333333	1	-30	-3	2	0.7744140625
535.98828125	0.00833333333333333	1	-30	-4	2	0.646484375
538.9208984375	0.00833333333333333	1	-30	-7	2	0.833984375
542.0546875	0.00833333333333333	1	30	7	2	0.740234375
545.1123046875	0.00833333333333333	1	-30	-8	2	0.787109375
548.220703125	0.00833333333333333	1	-30	-5	1	1.0224609375
551.337890625	0.00833333333333333	1	-30	-9	2	0.9931640625
554.8623046875	0.00833333333333333	1	-30	-10	1	0.8857421875
557.970703125	0.00833333333333333	1	-30	-4	2	0.6650390625
561.2041015625	0.00833333333333333	1	NaN	-2	2	1.087890625
564.8623046875	0.00833333333333333	1	-30	-5	2	0.6689453125
567.7529296875	0.00833333333333333	1	NaN	-3	2	0.810546875
570.8876953125	0.00833333333333333	1	-30	-6	2	0.6279296875
573.8369140625	0.00833333333333333	1	-30	-7	2	0.615234375
577.0205078125	0.00833333333333333	1	NaN	-4	2	1.3193359375
580.5703125	0.00833333333333333	1	30	6	2	0.986328125
583.7529296875	0.00833333333333333	1	30	5	1	1.107421875
587.01171875	0.00833333333333333	1	30	4	1	0.9765625
590.1875	0.00833333333333333	1	30	6	1	1.2490234375
593.6787109375	0.00833333333333333	1	30	7	2	0.6220703125
596.5869140625	0.00833333333333333	1	NaN	-5	1	0.673828125
599.3955078125	0.00833333333333333	1	30	5	2	0.8974609375
602.611328125	0.00833333333333333	1	30	6	2	0.666015625
605.7197265625	0.00833333333333333	1	NaN	-4	1	0.7412109375
608.978515625	0.00833333333333333	1	30	5	1	0.6826171875
612.1533203125	0.00833333333333333	1	NaN	-3	1	1.1083984375
615.4775390625	0.00833333333333333	1	30	6	1	1.16015625
618.728515625	0.00833333333333333	1	NaN	-2	1	0.78125
621.8203125	0.00833333333333333	1	-30	-8	1	0.8818359375
624.9697265625	0.00833333333333333	1	-30	-7	2	1.2197265625
628.3369140625	0.00833333333333333	1	-30	-8	1	0.7490234375
669.677734375	0.00833333333333333	1	30	7	1	1.3212890625
673.060546875	0.00833333333333333	1	30	8	2	0.818359375
676.0439453125	0.00833333333333333	1	-30	-7	2	0.939453125
679.5693359375	0.00833333333333333	1	NaN	-1	2	0.89453125
682.8193359375	0.00833333333333333	1	30	7	2	0.66796875
685.8525390625	0.00833333333333333	1	30	6	2	0.5712890625
688.619140625	0.00833333333333333	1	30	5	2	0.708984375
691.818359375	0.00833333333333333	1	30	4	2	0.60546875
694.7275390625	0.00833333333333333	1	30	3	2	0.7607421875
697.6943359375	0.00833333333333333	1	30	2	2	0.77734375
700.6943359375	0.00833333333333333	1	30	1	1	0.9296875
703.876953125	0.00833333333333333	1	30	2	2	1.02734375
707.1689453125	0.00833333333333333	1	30	1	2	0.9033203125
710.1513671875	0.00833333333333333	1	30	0	1	1.44140625
714.0771484375	0.00833333333333333	1	NaN	-2.58333333333333	2	0.771484375
717.4521484375	0.00833333333333333	1	-30	-7.08333333333333	2	0.6845703125
720.5517578125	0.00833333333333333	1	30	3.33333333333333	2	0.7607421875
723.4775390625	0.00833333333333333	1	-30	-8.08333333333333	2	0.875
726.7109375	0.00833333333333333	1	30	4.33333333333333	2	0.7060546875
729.6767578125	0.00833333333333333	1	-30	-7.20833333333333	2	0.7646484375
732.6015625	0.00833333333333333	1	30	3.20833333333333	1	0.9912109375
735.693359375	0.00833333333333333	1	-30	-7.33333333333333	2	0.5634765625
738.80078125	0.00833333333333333	1	NaN	-1.58333333333333	1	0.96875
742.109375	0.00833333333333333	1	30	3.33333333333333	2	0.908203125
745.1337890625	0.00833333333333333	1	-30	-7.45833333333333	2	0.6357421875
748.234375	0.00833333333333333	1	NaN	-1.45833333333333	1	0.9912109375
751.54296875	0.00833333333333333	1	-30	-8.20833333333333	1	0.6748046875
754.384765625	0.00833333333333333	1	-30	-8.08333333333333	1	0.59375
757.318359375	0.00833333333333333	1	30	4.20833333333333	2	0.603515625
760.2509765625	0.00833333333333333	1	NaN	-1.33333333333333	2	0.5986328125
763.2763671875	0.00833333333333333	1	-30	-7.95833333333333	2	0.5576171875
766.18359375	0.00833333333333333	1	-30	-7.58333333333333	1	0.9072265625
769.2763671875	0.00833333333333333	1	NaN	-1.45833333333333	2	1.0458984375
772.509765625	0.00833333333333333	1	30	4.08333333333333	2	0.65234375
775.31640625	0.00833333333333333	1	NaN	-1.58333333333333	1	0.91015625
778.3095703125	0.00833333333333333	1	-30	-7.45833333333333	1	1.1650390625
781.7763671875	0.00833333333333333	1	NaN	-2.70833333333333	1	0.986328125
785.234375	0.00833333333333333	1	-30	-7.33333333333333	2	1.4091796875
789.0419921875	0.00833333333333333	1	NaN	-2.58333333333333	2	0.720703125
792.1669921875	0.00833333333333333	1	30	3.20833333333333	1	0.99609375
795.67578125	0.00833333333333333	1	30	3.95833333333333	2	0.7119140625
798.6669921875	0.00833333333333333	1	30	3.33333333333333	2	0.625
801.7509765625	0.00833333333333333	1	NaN	-1.45833333333333	2	0.572265625
804.6171875	0.00833333333333333	1	NaN	-2.70833333333333	1	0.75390625
807.416015625	0.00833333333333333	1	30	3.20833333333333	2	0.763671875
810.2841796875	0.00833333333333333	1	-30	-7.45833333333333	2	0.591796875
813.30078125	0.00833333333333333	1	-30	-8.08333333333333	1	0.8466796875
816.2919921875	0.00833333333333333	1	30	3.83333333333333	2	1
819.4169921875	0.00833333333333333	1	30	3.08333333333333	2	0.5390625
822.1162109375	0.00833333333333333	1	30	3.70833333333333	2	0.671875
825.2587890625	0.00833333333333333	1	NaN	-1.58333333333333	2	0.76953125
828.375	0.00833333333333333	1	-30	-7.95833333333333	2	0.861328125
831.7333984375	0.00833333333333333	1	NaN	-1.70833333333333	2	0.7353515625
834.673828125	0.00833333333333333	1	30	2.95833333333333	2	1.0029296875
838.2080078125	0.00833333333333333	1	-30	-7.58333333333333	2	0.63671875
840.93359375	0.00833333333333333	1	NaN	-2.58333333333333	2	0.7353515625
844.06640625	0.00833333333333333	1	-30	-7.70833333333333	1	1.0263671875
847.2744140625	0.00833333333333333	1	-30	-7.58333333333333	2	0.6904296875
850.5	0.00833333333333333	1	-30	-7.70833333333333	2	0.6494140625
853.2666015625	0.00833333333333333	1	NaN	-1.83333333333333	2	0.9384765625
856.5166015625	0.00833333333333333	1	-30	-7.83333333333333	2	0.6962890625
859.3330078125	0.00833333333333333	1	NaN	-1.95833333333333	2	0.7763671875
862.341796875	0.00833333333333333	1	30	2.83333333333333	1	0.9599609375
865.666015625	0.00833333333333333	1	NaN	-2.70833333333333	2	0.779296875
868.8916015625	0.00833333333333333	1	30	3.58333333333333	2	0.74609375
871.7412109375	0.00833333333333333	1	30	2.95833333333333	1	1.2724609375
875.599609375	0.00833333333333333	1	-30	-7.95833333333333	2	0.9345703125
878.9580078125	0.00833333333333333	1	30	3.08333333333333	1	0.82421875
881.8662109375	0.00833333333333333	1	30	3.45833333333333	2	1.3798828125
885.6162109375	0.00833333333333333	1	30	3.33333333333333	1	0.765625
888.8994140625	0.00833333333333333	1	-30	-8.08333333333333	1	0.763671875
892.158203125	0.00833333333333333	1	NaN	-2.83333333333333	1	0.82421875
895.44140625	0.00833333333333333	1	NaN	-2.08333333333333	2	1.1015625
898.8740234375	0.00833333333333333	1	-30	-7.95833333333333	2	1.1484375
902.0986328125	0.00833333333333333	1	30	3.45833333333333	1	1.01171875
905.1826171875	0.00833333333333333	1	-30	-8.08333333333333	1	1.2724609375
908.666015625	0.00833333333333333	1	-30	-8.08333333333333	1	1.5009765625
912.4990234375	0.00833333333333333	1	30	3.58333333333333	1	0.796875
915.7236328125	0.00833333333333333	1	NaN	-2.20833333333333	2	0.9482421875
919.2158203125	0.00833333333333333	1	NaN	-2.70833333333333	1	0.951171875
922.3154296875	0.00833333333333333	1	30	3.70833333333333	1	0.7958984375
925.70703125	0.00833333333333333	1	NaN	-2.58333333333333	1	0.65234375
928.6904296875	0.00833333333333333	1	NaN	-2.45833333333333	1	0.5888671875
931.72265625	0.00833333333333333	1	NaN	-2.33333333333333	1	0.62109375
934.732421875	0.00833333333333333	1	30	3.83333333333333	1	0.7080078125
937.9150390625	0.00833333333333333	1	NaN	-2.20833333333333	1	0.64453125
940.9814453125	0.00833333333333333	1	NaN	-2.08333333333333	1	0.626953125
943.9736328125	0.00833333333333333	1	-30	-7.95833333333333	2	1.0986328125
947.615234375	0.00833333333333333	1	30	3.20833333333333	1	0.6806640625
950.83984375	0.00833333333333333	1	-30	-7.95833333333333	2	1.072265625
954.33203125	0.00833333333333333	1	30	3.33333333333333	1	0.65234375
957.21484375	0.00833333333333333	1	-30	-8.08333333333333	2	0.953125
960.298828125	0.00833333333333333	1	NaN	-1.95833333333333	2	1.005859375
963.7236328125	0.00833333333333333	1	-30	-8.20833333333333	1	0.7255859375
966.873046875	0.00833333333333333	1	NaN	-2.08333333333333	1	1.0712890625
985.1728515625	0.00833333333333333	1	-30	-8.08333333333333	1	1.1083984375
988.564453125	0.00833333333333333	1	30	3.45833333333333	1	0.7646484375
991.498046875	0.00833333333333333	1	-30	-7.95833333333333	1	0.6953125
994.556640625	0.00833333333333333	1	NaN	-1.95833333333333	1	0.6767578125
997.53125	0.00833333333333333	1	NaN	-2.33333333333333	1	0.791015625
1000.6474609375	0.00833333333333333	1	-30	-8.08333333333333	1	0.7861328125
1003.9560546875	0.00833333333333333	1	NaN	-1.83333333333333	1	0.654296875
1006.921875	0.00833333333333333	1	NaN	-2.20833333333333	1	0.560546875
1009.9814453125	0.00833333333333333	1	-30	-7.83333333333333	1	0.900390625
1012.998046875	0.00833333333333333	1	30	3.95833333333333	1	0.7880859375
1016.22265625	0.00833333333333333	1	30	3.58333333333333	1	0.66796875
1019.0888671875	0.00833333333333333	1	30	4.08333333333333	1	1.3134765625
1022.7216796875	0.00833333333333333	1	-30	-7.95833333333333	2	1.216796875
1026.271484375	0.00833333333333333	1	NaN	-1.70833333333333	1	0.8837890625
1029.34765625	0.00833333333333333	1	NaN	-1.58333333333333	2	1.3515625
1032.7890625	0.00833333333333333	1	30	4.20833333333333	1	0.7021484375
1035.9306640625	0.00833333333333333	1	30	4.33333333333333	1	0.7529296875
1039.1552734375	0.00833333333333333	1	30	3.70833333333333	1	1.416015625
1042.8388671875	0.00833333333333333	1	30	4.45833333333333	1	0.63671875
1046.0224609375	0.00833333333333333	1	NaN	-2.08333333333333	1	0.708984375
1049.205078125	0.00833333333333333	1	-30	-8.08333333333333	1	1.5029296875
1053.1142578125	0.00833333333333333	1	NaN	-1.70833333333333	1	0.673828125
1056.35546875	0.00833333333333333	1	NaN	-1.95833333333333	1	0.7041015625
1059.2802734375	0.00833333333333333	1	30	4.58333333333333	1	1.03515625
1062.48046875	0.00833333333333333	1	-30	-7.95833333333333	1	0.619140625
1065.646484375	0.00833333333333333	1	NaN	-1.58333333333333	1	0.8701171875
1068.7802734375	0.00833333333333333	1	-30	-7.83333333333333	1	1.3115234375
1072.546875	0.00833333333333333	1	-30	-7.70833333333333	2	1.08203125
1075.763671875	0.00833333333333333	1	NaN	-1.45833333333333	1	0.8251953125
1078.896484375	0.00833333333333333	1	NaN	-1.83333333333333	1	0.65234375
1081.86328125	0.00833333333333333	1	-30	-7.83333333333333	2	1.125
1085.2548828125	0.00833333333333333	1	30	3.83333333333333	1	0.9580078125
1088.2802734375	0.00833333333333333	1	-30	-7.70833333333333	1	0.64453125
1091.3876953125	0.00833333333333333	1	NaN	-1.70833333333333	1	0.76953125
1094.388671875	0.00833333333333333	1	NaN	-1.58333333333333	1	0.5283203125
1097.095703125	0.00833333333333333	1	NaN	-1.45833333333333	1	0.4853515625
1100.0302734375	0.00833333333333333	1	30	4.70833333333333	1	0.630859375
1103.0712890625	0.00833333333333333	1	NaN	-1.33333333333333	1	0.509765625
1105.9794921875	0.00833333333333333	1	-30	-7.95833333333333	1	0.5625
1109.0634765625	0.00833333333333333	1	-30	-7.58333333333333	2	1.0458984375
1112.4716796875	0.00833333333333333	1	NaN	-1.20833333333333	2	0.662109375
1115.453125	0.00833333333333333	1	NaN	-1.33333333333333	2	0.9365234375
1118.6376953125	0.00833333333333333	1	-30	-7.83333333333333	2	1.3837890625
1122.2626953125	0.00833333333333333	1	30	3.95833333333333	2	1.287109375
1125.779296875	0.00833333333333333	1	-30	-7.95833333333333	1	1.2109375
1129.103515625	0.00833333333333333	1	-30	-7.83333333333333	2	0.8544921875
1132.3291015625	0.00833333333333333	1	30	3.83333333333333	2	1.109375
1135.74609375	0.00833333333333333	1	30	3.70833333333333	1	0.66015625
1138.8623046875	0.00833333333333333	1	NaN	-1.45833333333333	1	0.6162109375
1142.0205078125	0.00833333333333333	1	-30	-7.70833333333333	1	0.6181640625
1144.8291015625	0.00833333333333333	1	-30	-7.95833333333333	2	0.6171875
1147.6455078125	0.00833333333333333	1	NaN	-1.33333333333333	2	0.9208984375
1151.087890625	0.00833333333333333	1	NaN	-1.45833333333333	2	0.71875
1153.9794921875	0.00833333333333333	1	30	3.83333333333333	2	1.267578125
1157.703125	0.00833333333333333	1	30	4.83333333333333	1	0.8955078125
1161.044921875	0.00833333333333333	1	-30	-8.08333333333333	1	0.5224609375
1163.8701171875	0.00833333333333333	1	NaN	-1.33333333333333	1	0.625
1166.8623046875	0.00833333333333333	1	NaN	-1.20833333333333	1	0.5048828125
1169.478515625	0.00833333333333333	1	NaN	-1.08333333333333	1	0.44921875
1172.1201171875	0.00833333333333333	1	-30	-7.58333333333333	1	0.591796875
1175.169921875	0.00833333333333333	1	NaN	-1.58333333333333	1	0.5732421875
1178.1123046875	0.00833333333333333	1	NaN	-1.45833333333333	1	0.51953125
1181.12890625	0.00833333333333333	1	NaN	-0.958333333333333	1	0.7265625
1184.228515625	0.00833333333333333	1	30	4.95833333333333	1	0.8193359375
1187.328125	0.00833333333333333	1	NaN	-0.833333333333333	1	0.8798828125
1190.4697265625	0.00833333333333333	1	30	5.08333333333333	1	0.6025390625
1193.4033203125	0.00833333333333333	1	30	3.70833333333333	1	0.5732421875
1196.294921875	0.00833333333333333	1	30	5.20833333333333	1	0.45703125
1199.3447265625	0.00833333333333333	1	-30	-7.45833333333333	1	0.7919921875
1202.353515625	0.00833333333333333	1	-30	-7.33333333333333	1	0.7509765625
1205.177734375	0.00833333333333333	1	-30	-7.20833333333333	1	0.88671875
1208.5283203125	0.00833333333333333	1	NaN	-1.33333333333333	2	1
1211.7197265625	0.00833333333333333	1	30	3.83333333333333	1	0.705078125
1214.4951171875	0.00833333333333333	1	-30	-7.08333333333333	2	0.6982421875
1217.802734375	0.00833333333333333	1	-30	-7.20833333333333	1	0.830078125
1220.76171875	0.00833333333333333	1	NaN	-1.45833333333333	1	0.607421875
1223.8857421875	0.00833333333333333	1	-30	-7.08333333333333	1	0.7314453125
1227.0615234375	0.00833333333333333	1	NaN	-1.33333333333333	1	0.748046875
1230.119140625	0.00833333333333333	1	30	5.33333333333333	1	1.4501953125
1233.9443359375	0.00833333333333333	1	NaN	-1.20833333333333	1	0.77734375
1236.8115234375	0.00833333333333333	1	30	5.45833333333333	1	1.1259765625
1240.3193359375	0.00833333333333333	1	NaN	-0.708333333333333	2	0.6748046875
1243.3603515625	0.00833333333333333	1	NaN	-1.08333333333333	1	0.689453125
1246.177734375	0.00833333333333333	1	NaN	-0.958333333333333	1	0.576171875
1249.27734375	0.00833333333333333	1	NaN	-0.833333333333333	2	0.63671875
1252.2939453125	0.00833333333333333	1	NaN	-0.833333333333333	1	0.9560546875
1255.494140625	0.00833333333333333	1	NaN	-0.958333333333333	1	0.6357421875
1258.453125	0.00833333333333333	1	-30	-6.95833333333333	1	0.701171875
1261.4443359375	0.00833333333333333	1	NaN	-0.833333333333333	1	0.5419921875
1264.3857421875	0.00833333333333333	1	NaN	-0.708333333333333	1	0.5283203125
1267.2353515625	0.00833333333333333	1	NaN	-0.583333333333333	1	0.6474609375
1270.1025390625	0.00833333333333333	1	-30	-6.83333333333333	2	0.65234375
1272.8935546875	0.00833333333333333	1	-30	-6.95833333333333	2	0.5576171875
1275.626953125	0.00833333333333333	1	30	3.95833333333333	2	0.7197265625
1278.91015625	0.00833333333333333	1	-30	-7.08333333333333	2	0.724609375
1282.185546875	0.00833333333333333	1	-30	-7.20833333333333	2	0.6494140625
1285.068359375	0.00833333333333333	1	-30	-7.33333333333333	2	0.630859375
1311.79296875	0.00833333333333333	1	-30	-7.45833333333333	2	1.4267578125
1315.5263671875	0.00833333333333333	1	30	3.83333333333333	2	0.9736328125
1318.79296875	0.00833333333333333	1	NaN	-0.708333333333333	2	0.5712890625
1321.6171875	0.00833333333333333	1	-30	-7.58333333333333	2	0.69140625
1324.8515625	0.00833333333333333	1	NaN	-0.458333333333333	2	0.625
1327.9677734375	0.00833333333333333	1	NaN	-0.833333333333333	2	0.548828125
1331.076171875	0.00833333333333333	1	NaN	-0.583333333333333	2	0.8564453125
1334.1005859375	0.00833333333333333	1	30	5.58333333333333	2	0.83203125
1337.1015625	0.00833333333333333	1	30	3.70833333333333	2	0.5673828125
1339.841796875	0.00833333333333333	1	30	3.58333333333333	2	0.5390625
1342.6591796875	0.00833333333333333	1	30	3.45833333333333	1	0.8984375
1345.826171875	0.00833333333333333	1	NaN	-0.708333333333333	1	1.0830078125
1349.326171875	0.00833333333333333	1	-30	-7.70833333333333	1	0.87109375
1352.43359375	0.00833333333333333	1	30	5.45833333333333	2	0.66015625
1355.67578125	0.00833333333333333	1	30	3.58333333333333	1	0.921875
1358.6923828125	0.00833333333333333	1	30	3.70833333333333	2	0.6650390625
1361.54296875	0.00833333333333333	1	30	3.58333333333333	1	1.1025390625
1365.18359375	0.00833333333333333	1	30	3.70833333333333	1	0.8623046875
1368.326171875	0.00833333333333333	1	30	5.33333333333333	2	1.34375
1372.142578125	0.00833333333333333	1	NaN	-0.583333333333333	2	1.623046875
1376.3671875	0.00833333333333333	1	30	5.20833333333333	2	0.9833984375
1379.92578125	0.00833333333333333	1	30	3.83333333333333	2	0.8408203125
1383.17578125	0.00833333333333333	1	30	3.70833333333333	1	1.0947265625
1386.583984375	0.00833333333333333	1	30	5.08333333333333	2	0.9189453125
1389.8505859375	0.00833333333333333	1	30	4.95833333333333	2	0.9794921875
1392.966796875	0.00833333333333333	1	30	4.83333333333333	2	0.6318359375
1396.0078125	0.00833333333333333	1	NaN	-0.958333333333333	1	0.6787109375
1398.9501953125	0.00833333333333333	1	NaN	-0.833333333333333	2	0.6650390625
1402.2333984375	0.00833333333333333	1	30	4.70833333333333	2	0.8779296875
1405.4169921875	0.00833333333333333	1	NaN	-0.958333333333333	2	0.9580078125
1408.9990234375	0.00833333333333333	1	NaN	-1.08333333333333	2	0.6484375
1412.208984375	0.00833333333333333	1	NaN	-1.20833333333333	1	0.7587890625
1415.1416015625	0.00833333333333333	1	30	4.58333333333333	1	0.6982421875
1418.2587890625	0.00833333333333333	1	30	4.70833333333333	1	0.7724609375
1421.283203125	0.00833333333333333	1	NaN	-1.08333333333333	1	0.5322265625
1423.8916015625	0.00833333333333333	1	30	4.83333333333333	1	0.8037109375
1427.125	0.00833333333333333	1	30	4.95833333333333	1	0.6826171875
1430	0.00833333333333333	1	30	5.08333333333333	1	1.14453125
1433.5078125	0.00833333333333333	1	NaN	-0.958333333333333	1	0.6044921875
1436.349609375	0.00833333333333333	1	NaN	-0.833333333333333	1	0.7783203125
1439.3408203125	0.00833333333333333	1	30	5.20833333333333	2	1.0908203125
1442.56640625	0.00833333333333333	1	NaN	-0.708333333333333	2	1.0419921875
1445.94140625	0.00833333333333333	1	30	5.08333333333333	2	1.3310546875
1449.6328125	0.00833333333333333	1	30	4.95833333333333	1	1.080078125
1453.0576171875	0.00833333333333333	1	NaN	-0.833333333333333	1	0.6552734375
1456.091796875	0.00833333333333333	1	30	5.08333333333333	1	0.732421875
1459.224609375	0.00833333333333333	1	30	5.20833333333333	1	0.7919921875
1462.5498046875	0.00833333333333333	1	30	5.33333333333333	2	0.962890625
1466.041015625	0.00833333333333333	1	30	5.20833333333333	1	0.6162109375
1468.9326171875	0.00833333333333333	1	30	5.33333333333333	2	0.98828125
1472.099609375	0.00833333333333333	1	30	5.20833333333333	1	0.6220703125
1475.099609375	0.00833333333333333	1	30	5.33333333333333	2	0.61328125
1478.32421875	0.00833333333333333	1	30	5.20833333333333	2	0.7490234375
1481.306640625	0.00833333333333333	1	30	5.08333333333333	2	0.646484375
1484.4990234375	0.00833333333333333	1	30	4.95833333333333	2	0.630859375
1487.6162109375	0.00833333333333333	1	30	4.83333333333333	2	1.345703125
1491.1162109375	0.00833333333333333	1	30	4.70833333333333	2	1.0380859375
1494.390625	0.00833333333333333	1	30	4.58333333333333	1	0.603515625
1497.2744140625	0.00833333333333333	1	30	4.70833333333333	1	0.615234375
1500.1318359375	0.00833333333333333	1	30	4.83333333333333	1	0.7431640625
1503.2490234375	0.00833333333333333	1	30	4.95833333333333	1	0.609375
1506.0478515625	0.00833333333333333	1	30	5.08333333333333	1	0.5224609375
1509.0322265625	0.00833333333333333	1	30	5.20833333333333	1	0.626953125
1511.923828125	0.00833333333333333	1	30	5.33333333333333	1	0.54296875
1514.6826171875	0.00833333333333333	1	30	5.45833333333333	1	0.5439453125
1517.7490234375	0.00833333333333333	1	30	5.58333333333333	1	0.669921875
1520.78125	0.00833333333333333	1	30	5.70833333333333	1	0.4775390625
1523.423828125	0.00833333333333333	1	30	5.83333333333333	1	0.4990234375
1526.265625	0.00833333333333333	1	30	5.95833333333333	2	0.9296875
1529.306640625	0.00833333333333333	1	30	5.83333333333333	2	0.904296875
1532.3974609375	0.00833333333333333	1	30	5.70833333333333	2	0.677734375
1535.515625	0.00833333333333333	1	30	5.58333333333333	2	0.6953125
1538.5986328125	0.00833333333333333	1	30	5.45833333333333	2	0.9814453125
1541.6904296875	0.00833333333333333	1	30	5.33333333333333	1	0.8251953125
1545.08984375	0.00833333333333333	1	30	5.45833333333333	2	0.666015625
1548.1484375	0.00833333333333333	1	30	5.33333333333333	1	0.6552734375
1551.2900390625	0.00833333333333333	0	30	4.52708333333333	1	0.6181640625
1554.4736328125	0.00833333333333333	0	-30	-7.78958333333333	1	0.7548828125
1557.5322265625	0.00833333333333333	0	-30	-7.78958333333333	2	0.7998046875
1560.6064453125	0.00833333333333333	0	-30	-7.78958333333333	2	0.9580078125
1563.8994140625	0.00833333333333333	0	30	4.52708333333333	2	0.625
1566.9482421875	0.00833333333333333	0	30	4.52708333333333	2	0.7197265625
1569.90625	0.00833333333333333	0	30	4.52708333333333	2	0.5869140625
1572.6064453125	0.00833333333333333	0	30	4.52708333333333	1	1.0380859375
1575.90625	0.00833333333333333	0	-30	-7.78958333333333	2	1.162109375
1579.1396484375	0.00833333333333333	0	-30	-7.78958333333333	1	0.6806640625
1582.23828125	0.00833333333333333	0	-30	-7.78958333333333	2	0.75
1585.4482421875	0.00833333333333333	0	-30	-7.78958333333333	2	0.8203125
1588.7392578125	0.00833333333333333	0	30	4.52708333333333	2	0.6494140625
1591.5146484375	0.00833333333333333	0	30	4.52708333333333	2	0.5546875
1594.2138671875	0.00833333333333333	0	-30	-7.78958333333333	2	0.6953125
1597.3974609375	0.00833333333333333	0	30	4.52708333333333	2	0.6640625
1600.3974609375	0.00833333333333333	0	-30	-7.78958333333333	2	0.568359375
1603.22265625	0.00833333333333333	0	-30	-7.78958333333333	2	0.5263671875
1606.0390625	0.00833333333333333	0	-30	-7.91458333333333	2	0.8388671875
1609.3642578125	0.00833333333333333	0	30	4.52708333333333	2	0.537109375
1612.138671875	0.00833333333333333	0	-30	-7.91458333333333	2	0.794921875
1615.505859375	0.00833333333333333	0	-30	-7.91458333333333	1	0.64453125
1618.2724609375	0.00833333333333333	0	30	4.52708333333333	2	0.7900390625
1621.2470703125	0.00833333333333333	0	-30	-7.91458333333333	2	0.615234375
1624.3974609375	0.00833333333333333	0	30	4.40208333333333	2	0.576171875
1627.1142578125	0.00833333333333333	0	-30	-7.91458333333333	2	0.740234375
1630.4384765625	0.00833333333333333	0	-30	-7.91458333333333	2	0.736328125
1633.7724609375	0.00833333333333333	0	30	4.40208333333333	2	1.08203125
1637.0556640625	0.00833333333333333	0	30	4.40208333333333	2	0.6318359375
1640.0966796875	0.00833333333333333	0	-30	-7.91458333333333	2	0.6943359375
1642.98828125	0.00833333333333333	0	-30	-7.91458333333333	2	0.8583984375
1646.4052734375	0.00833333333333333	0	30	4.40208333333333	2	1.76171875
1650.73828125	0.00833333333333333	0	-30	-8.03958333333333	1	1.5966796875
1654.8388671875	0.00833333333333333	0	-30	-8.03958333333333	2	0.7119140625
1657.9384765625	0.00833333333333333	0	-30	-8.03958333333333	2	1.4208984375
1661.48828125	0.00833333333333333	0	-30	-8.03958333333333	2	0.5673828125
1664.462890625	0.00833333333333333	0	30	4.40208333333333	2	0.5771484375
1667.470703125	0.00833333333333333	0	-30	-8.03958333333333	2	0.705078125
1670.6884765625	0.00833333333333333	0	30	4.27708333333333	2	0.6953125
1673.7626953125	0.00833333333333333	0	30	4.27708333333333	2	0.708984375
1676.87109375	0.00833333333333333	0	30	4.27708333333333	2	0.77734375
1680.2294921875	0.00833333333333333	0	30	4.27708333333333	2	0.71484375
1683.3046875	0.00833333333333333	0	-30	-8.03958333333333	2	0.767578125
1686.580078125	0.00833333333333333	0	-30	-8.16458333333333	1	1.2919921875
1690.3955078125	0.00833333333333333	0	30	4.27708333333333	1	1.1806640625
1693.787109375	0.00833333333333333	0	30	4.27708333333333	1	1.0693359375
1697.5048828125	0.00833333333333333	0	-30	-8.16458333333333	2	0.6318359375
1700.23828125	0.00833333333333333	0	-30	-8.16458333333333	2	0.6181640625
1703.2880859375	0.00833333333333333	0	30	4.27708333333333	1	1.1689453125
1707.1044921875	0.00833333333333333	0	-30	-8.16458333333333	2	0.6083984375
1709.99609375	0.00833333333333333	0	-30	-8.16458333333333	2	0.5087890625
1712.970703125	0.00833333333333333	0	-30	-8.16458333333333	2	0.6142578125
1715.912109375	0.00833333333333333	0	30	4.27708333333333	2	0.697265625
1719.087890625	0.00833333333333333	0	30	4.27708333333333	2	0.8173828125
1722.279296875	0.00833333333333333	0	30	4.27708333333333	2	0.642578125
1725.12109375	0.00833333333333333	0	30	4.27708333333333	2	0.6640625
1728.0625	0.00833333333333333	0	30	4.27708333333333	2	0.7470703125
1731.12109375	0.00833333333333333	0	-30	-8.28958333333333	2	0.880859375
1734.1708984375	0.00833333333333333	0	-30	-8.28958333333333	2	0.55859375
1736.9873046875	0.00833333333333333	0	30	4.15208333333333	2	0.982421875
1740.529296875	0.00833333333333333	0	-30	-8.28958333333333	2	1.1123046875
1743.978515625	0.00833333333333333	0	-30	-8.28958333333333	2	0.591796875
1747.169921875	0.00833333333333333	0	30	4.15208333333333	1	1.1279296875
1750.7958984375	0.00833333333333333	0	-30	-8.28958333333333	2	0.814453125
1753.9365234375	0.00833333333333333	0	-30	-8.41458333333333	2	0.7861328125
1757.01171875	0.00833333333333333	0	30	4.15208333333333	2	0.71875
1760.0537109375	0.00833333333333333	0	30	4.15208333333333	1	0.861328125
1763.4453125	0.00833333333333333	0	-30	-8.41458333333333	1	1.3173828125
1766.9873046875	0.00833333333333333	0	30	4.15208333333333	1	0.86328125
1770.1787109375	0.00833333333333333	0	-30	-8.41458333333333	1	0.6962890625
1773.3037109375	0.00833333333333333	0	-30	-8.41458333333333	1	0.69921875
1776.2197265625	0.00833333333333333	0	30	4.15208333333333	1	0.607421875
1778.9453125	0.00833333333333333	0	-30	-8.41458333333333	1	0.6181640625
1781.919921875	0.00833333333333333	0	-30	-8.41458333333333	1	0.626953125
1784.6787109375	0.00833333333333333	0	-30	-8.28958333333333	1	0.541015625
1787.3701171875	0.00833333333333333	0	-30	-8.28958333333333	1	0.544921875
1790.0361328125	0.00833333333333333	0	-30	-8.28958333333333	1	0.607421875
1793.14453125	0.00833333333333333	0	-30	-8.28958333333333	1	0.5068359375
1795.9443359375	0.00833333333333333	0	-30	-8.28958333333333	1	0.69140625
1799.044921875	0.00833333333333333	0	-30	-8.16458333333333	1	0.615234375
1895.208984375	0.00833333333333333	0	-30	-8.16458333333333	2	0.9501953125
1898.53515625	0.00833333333333333	0	30	4.15208333333333	1	0.8564453125
1901.6181640625	0.00833333333333333	0	-30	-8.16458333333333	1	0.5732421875
1904.359375	0.00833333333333333	0	-30	-8.16458333333333	1	0.6396484375
1907.4267578125	0.00833333333333333	0	-30	-8.16458333333333	2	0.96484375
1910.7431640625	0.00833333333333333	0	-30	-8.16458333333333	2	0.9365234375
1914.234375	0.00833333333333333	0	-30	-8.16458333333333	2	0.8291015625
1917.443359375	0.00833333333333333	0	-30	-8.16458333333333	1	0.7080078125
1920.509765625	0.00833333333333333	0	-30	-8.16458333333333	2	0.8740234375
1923.5595703125	0.00833333333333333	0	-30	-8.16458333333333	1	0.83203125
1926.54296875	0.00833333333333333	0	30	4.15208333333333	2	0.5048828125
1929.2763671875	0.00833333333333333	0	30	4.15208333333333	2	0.580078125
1932.3515625	0.00833333333333333	0	30	4.15208333333333	2	0.7763671875
1935.4091796875	0.00833333333333333	0	30	4.15208333333333	2	0.55078125
1938.1669921875	0.00833333333333333	0	-30	-8.16458333333333	2	1.265625
1941.8427734375	0.00833333333333333	0	-30	-8.16458333333333	2	0.5419921875
1944.7421875	0.00833333333333333	0	-30	-8.16458333333333	2	0.6181640625
1947.9091796875	0.00833333333333333	0	-30	-8.16458333333333	2	0.5234375
1950.7841796875	0.00833333333333333	0	-30	-8.16458333333333	2	0.568359375
1953.892578125	0.00833333333333333	0	30	4.15208333333333	2	0.732421875
1957.2177734375	0.00833333333333333	0	-30	-8.28958333333333	2	0.87109375
1960.6337890625	0.00833333333333333	0	-30	-8.28958333333333	1	1.103515625
1964.1923828125	0.00833333333333333	0	30	4.02708333333333	1	0.8564453125
1967.517578125	0.00833333333333333	0	-30	-8.28958333333333	1	0.5078125
1970.3251953125	0.00833333333333333	0	-30	-8.28958333333333	1	0.64453125
1973.30859375	0.00833333333333333	0	-30	-8.28958333333333	1	0.5966796875
1976.083984375	0.00833333333333333	0	-30	-8.28958333333333	1	0.4853515625
1979.1005859375	0.00833333333333333	0	30	4.02708333333333	2	0.6767578125
1981.8583984375	0.00833333333333333	0	-30	-8.16458333333333	2	0.6396484375
1985.0341796875	0.00833333333333333	0	-30	-8.16458333333333	2	1.568359375
1988.783203125	0.00833333333333333	0	-30	-8.16458333333333	1	0.794921875
1991.900390625	0.00833333333333333	0	-30	-8.16458333333333	1	0.7744140625
1995.1083984375	0.00833333333333333	0	30	4.02708333333333	2	0.7587890625
1998.3671875	0.00833333333333333	0	30	4.02708333333333	2	0.5869140625
2001.150390625	0.00833333333333333	0	30	4.02708333333333	1	0.8837890625
2004.2998046875	0.00833333333333333	0	30	4.02708333333333	2	1.3583984375
2007.9169921875	0.00833333333333333	0	30	4.02708333333333	1	1.60546875
2011.69921875	0.00833333333333333	0	-30	-8.16458333333333	2	0.6396484375
2014.841796875	0.00833333333333333	0	30	4.02708333333333	1	0.640625
2017.9501953125	0.00833333333333333	0	30	4.02708333333333	1	0.892578125
2020.9833984375	0.00833333333333333	0	30	4.02708333333333	1	0.6357421875
2023.9912109375	0.00833333333333333	0	30	4.02708333333333	1	0.7958984375
2027.2998046875	0.00833333333333333	0	30	4.15208333333333	1	0.615234375
2030.115234375	0.00833333333333333	0	-30	-8.16458333333333	1	0.560546875
2032.791015625	0.00833333333333333	0	-30	-8.16458333333333	1	0.484375
2035.8740234375	0.00833333333333333	0	-30	-8.16458333333333	1	0.42578125
2038.5830078125	0.00833333333333333	0	-30	-8.16458333333333	1	0.701171875
2041.57421875	0.00833333333333333	0	-30	-8.16458333333333	1	0.509765625
2044.4326171875	0.00833333333333333	0	-30	-8.03958333333333	1	0.5234375
2047.44921875	0.00833333333333333	0	30	4.15208333333333	2	0.6748046875
2050.6826171875	0.00833333333333333	0	-30	-8.03958333333333	1	0.5458984375
2053.640625	0.00833333333333333	0	30	4.15208333333333	1	0.4833984375
2056.4580078125	0.00833333333333333	0	-30	-8.03958333333333	1	0.5302734375
2059.4658203125	0.00833333333333333	0	-30	-8.03958333333333	1	0.4580078125
2062.140625	0.00833333333333333	0	30	4.15208333333333	1	0.50390625
2064.9580078125	0.00833333333333333	0	-30	-8.03958333333333	1	0.6142578125
2067.8740234375	0.00833333333333333	0	-30	-7.91458333333333	1	1.1708984375
2071.541015625	0.00833333333333333	0	-30	-7.91458333333333	2	0.671875
2074.6572265625	0.00833333333333333	0	30	4.15208333333333	1	0.69921875
2077.8984375	0.00833333333333333	0	30	4.15208333333333	1	0.5146484375
2080.6328125	0.00833333333333333	0	30	4.15208333333333	1	0.6123046875
2083.482421875	0.00833333333333333	0	30	4.27708333333333	2	0.8828125
2086.740234375	0.00833333333333333	0	30	4.27708333333333	1	1.1376953125
2089.931640625	0.00833333333333333	0	-30	-7.91458333333333	1	0.6337890625
2092.78125	0.00833333333333333	0	30	4.27708333333333	2	0.7919921875
2096.107421875	0.00833333333333333	0	-30	-7.91458333333333	1	0.5859375
2099.1650390625	0.00833333333333333	0	30	4.27708333333333	2	0.80078125
2102.3486328125	0.00833333333333333	0	-30	-7.91458333333333	2	0.6728515625
2105.58203125	0.00833333333333333	0	30	4.27708333333333	1	0.671875
2108.8232421875	0.00833333333333333	0	30	4.27708333333333	2	0.8466796875
2112.0146484375	0.00833333333333333	0	-30	-7.91458333333333	1	0.7353515625
2115.0400390625	0.00833333333333333	0	30	4.27708333333333	2	0.9423828125
2118.3486328125	0.00833333333333333	0	30	4.27708333333333	2	0.666015625
2121.556640625	0.00833333333333333	0	30	4.27708333333333	2	0.9375
2124.8984375	0.00833333333333333	0	-30	-7.91458333333333	2	0.6923828125
2127.931640625	0.00833333333333333	0	-30	-7.91458333333333	1	0.7705078125
2130.8564453125	0.00833333333333333	0	-30	-7.91458333333333	1	0.7265625
2133.9560546875	0.00833333333333333	0	-30	-7.91458333333333	1	0.71484375
2136.9560546875	0.00833333333333333	0	-30	-7.91458333333333	1	0.5712890625
2139.990234375	0.00833333333333333	0	-30	-7.91458333333333	1	0.6005859375
2159.1884765625	0.00833333333333333	0	-30	-7.78958333333333	1	1.3232421875
2162.9814453125	0.00833333333333333	0	-30	-7.78958333333333	2	0.826171875
2166.130859375	0.00833333333333333	0	-30	-7.78958333333333	2	0.6044921875
2169.072265625	0.00833333333333333	0	-30	-7.78958333333333	2	0.52734375
2172.197265625	0.00833333333333333	0	-30	-7.78958333333333	2	0.5224609375
2174.9228515625	0.00833333333333333	0	-30	-7.78958333333333	2	0.5810546875
2177.705078125	0.00833333333333333	0	-30	-7.91458333333333	2	0.439453125
2180.59765625	0.00833333333333333	0	30	4.27708333333333	2	0.5625
2183.40625	0.00833333333333333	0	30	4.15208333333333	2	0.505859375
2186.2978515625	0.00833333333333333	0	-30	-7.91458333333333	2	0.6220703125
2189.1142578125	0.00833333333333333	0	30	4.15208333333333	2	0.5263671875
2191.8974609375	0.00833333333333333	0	-30	-7.91458333333333	2	0.55078125
2194.6298828125	0.00833333333333333	0	-30	-7.91458333333333	2	0.4990234375
2197.2802734375	0.00833333333333333	0	-30	-7.91458333333333	2	0.44921875
2199.9384765625	0.00833333333333333	0	30	4.15208333333333	2	0.55078125
2203.1142578125	0.00833333333333333	0	30	4.15208333333333	2	0.3505859375
2205.9140625	0.00833333333333333	0	-30	-8.03958333333333	2	0.4072265625
2208.921875	0.00833333333333333	0	30	4.15208333333333	2	0.3671875
2211.7294921875	0.00833333333333333	0	30	4.02708333333333	2	0.3994140625
2214.513671875	0.00833333333333333	0	30	4.02708333333333	2	0.52734375
2217.50390625	0.00833333333333333	0	-30	-8.03958333333333	2	0.5849609375
2220.296875	0.00833333333333333	0	-30	-8.03958333333333	2	0.5048828125
2223.080078125	0.00833333333333333	0	30	4.02708333333333	2	0.529296875
2225.947265625	0.00833333333333333	0	30	4.02708333333333	2	0.4228515625
2228.7470703125	0.00833333333333333	0	30	4.02708333333333	2	0.5107421875
2231.5966796875	0.00833333333333333	0	30	3.90208333333333	1	0.5810546875
2234.73046875	0.00833333333333333	0	-30	-8.03958333333333	1	0.4873046875
2237.3134765625	0.00833333333333333	0	-30	-8.03958333333333	1	0.81640625
2240.5380859375	0.00833333333333333	0	30	3.90208333333333	1	0.83203125
2243.6630859375	0.00833333333333333	0	30	3.90208333333333	1	0.8916015625
2246.61328125	0.00833333333333333	0	30	3.90208333333333	1	0.7568359375
2249.5546875	0.00833333333333333	0	30	3.90208333333333	1	0.4560546875
2252.521484375	0.00833333333333333	0	-30	-8.03958333333333	1	0.5048828125
2255.462890625	0.00833333333333333	0	-30	-8.03958333333333	1	0.3720703125
2258.212890625	0.00833333333333333	0	-30	-8.03958333333333	1	0.4619140625
2260.7958984375	0.00833333333333333	0	-30	-7.91458333333333	1	0.4228515625
2263.404296875	0.00833333333333333	0	30	4.02708333333333	1	0.638671875
2266.396484375	0.00833333333333333	0	-30	-7.91458333333333	2	0.7021484375
2269.212890625	0.00833333333333333	0	30	4.02708333333333	1	0.677734375
2272.11328125	0.00833333333333333	0	30	4.02708333333333	1	0.6337890625
2274.9130859375	0.00833333333333333	0	30	4.02708333333333	1	0.474609375
2277.912109375	0.00833333333333333	0	30	4.02708333333333	1	0.466796875
2280.462890625	0.00833333333333333	0	30	4.15208333333333	1	0.4443359375
2283.3046875	0.00833333333333333	0	-30	-7.91458333333333	1	0.4912109375
2286.0283203125	0.00833333333333333	0	30	4.15208333333333	1	0.4873046875
2288.8125	0.00833333333333333	0	-30	-7.91458333333333	1	0.51171875
2291.8125	0.00833333333333333	0	30	4.15208333333333	2	0.3994140625
2294.5205078125	0.00833333333333333	0	-30	-7.91458333333333	1	0.626953125
2297.1962890625	0.00833333333333333	0	30	4.15208333333333	1	0.744140625
2300.095703125	0.00833333333333333	0	-30	-7.91458333333333	1	0.484375
2302.87890625	0.00833333333333333	0	-30	-7.91458333333333	1	0.6611328125
2305.904296875	0.00833333333333333	0	30	4.15208333333333	1	0.5078125
2308.62890625	0.00833333333333333	0	-30	-7.78958333333333	1	0.5517578125
2311.3876953125	0.00833333333333333	0	-30	-7.78958333333333	1	0.47265625
2314.0869140625	0.00833333333333333	0	30	4.15208333333333	1	0.6376953125
2317.12890625	0.00833333333333333	0	-30	-7.78958333333333	1	0.5234375
2320.0869140625	0.00833333333333333	0	30	4.15208333333333	1	0.3818359375
2322.8203125	0.00833333333333333	0	30	4.15208333333333	1	0.4482421875
2325.4033203125	0.00833333333333333	0	30	4.27708333333333	1	0.4892578125
2328.38671875	0.00833333333333333	0	30	4.27708333333333	1	0.5546875
2331.3701171875	0.00833333333333333	0	30	4.27708333333333	1	0.4111328125
2334.1953125	0.00833333333333333	0	-30	-7.78958333333333	1	0.4501953125
2337.12890625	0.00833333333333333	0	30	4.27708333333333	1	0.46875
2340.0283203125	0.00833333333333333	0	-30	-7.78958333333333	1	0.4169921875
2342.7119140625	0.00833333333333333	0	30	4.27708333333333	1	0.4609375
2345.6279296875	0.00833333333333333	0	-30	-7.66458333333333	1	0.4013671875
2348.5615234375	0.00833333333333333	0	-30	-7.66458333333333	1	0.435546875
2351.0947265625	0.00833333333333333	0	-30	-7.66458333333333	1	0.5986328125
2354.0029296875	0.00833333333333333	0	-30	-7.66458333333333	2	0.72265625
2357.1865234375	0.00833333333333333	0	30	4.40208333333333	2	0.4755859375
2360.01171875	0.00833333333333333	0	-30	-7.66458333333333	1	1.1708984375
2363.552734375	0.00833333333333333	0	-30	-7.66458333333333	1	0.9892578125
2366.6533203125	0.00833333333333333	0	30	4.40208333333333	1	0.5048828125
2369.427734375	0.00833333333333333	0	-30	-7.66458333333333	2	0.7705078125
2372.39453125	0.00833333333333333	0	30	4.40208333333333	2	0.7314453125
2375.603515625	0.00833333333333333	0	30	4.40208333333333	1	1.123046875
2378.9111328125	0.00833333333333333	0	30	4.40208333333333	1	0.54296875
2381.76953125	0.00833333333333333	0	-30	-7.66458333333333	1	0.548828125
2384.76953125	0.00833333333333333	0	30	4.40208333333333	1	0.9814453125
2388.16015625	0.00833333333333333	0	-30	-7.66458333333333	1	0.5751953125
2407.9775390625	0.00833333333333333	0	30	4.40208333333333	2	1.0625
2411.2607421875	0.00833333333333333	0	-30	-7.66458333333333	1	0.611328125
2414.2109375	0.00833333333333333	0	30	4.40208333333333	1	0.8125
2417.3857421875	0.00833333333333333	0	30	4.40208333333333	2	0.791015625
2420.810546875	0.00833333333333333	0	30	4.40208333333333	2	0.861328125
2423.8857421875	0.00833333333333333	0	30	4.40208333333333	2	0.5458984375
2426.65234375	0.00833333333333333	0	-30	-7.66458333333333	1	0.6513671875
2429.5107421875	0.00833333333333333	0	-30	-7.66458333333333	1	0.5458984375
2432.626953125	0.00833333333333333	0	30	4.40208333333333	1	0.5419921875
2435.369140625	0.00833333333333333	0	30	4.40208333333333	1	0.48046875
2438.2607421875	0.00833333333333333	0	-30	-7.53958333333333	1	0.5322265625
2441.09375	0.00833333333333333	0	-30	-7.53958333333333	2	0.6279296875
2443.9189453125	0.00833333333333333	0	-30	-7.53958333333333	1	0.5458984375
2446.642578125	0.00833333333333333	0	-30	-7.53958333333333	1	0.55859375
2449.435546875	0.00833333333333333	0	30	4.40208333333333	2	0.62890625
2452.5263671875	0.00833333333333333	0	30	4.40208333333333	2	0.6181640625
2455.7265625	0.00833333333333333	0	-30	-7.53958333333333	1	0.578125
2458.876953125	0.00833333333333333	0	-30	-7.53958333333333	1	0.5244140625
2461.6171875	0.00833333333333333	0	30	4.40208333333333	1	0.5517578125
2464.4013671875	0.00833333333333333	0	30	4.40208333333333	1	0.5205078125
2467.0849609375	0.00833333333333333	0	30	4.40208333333333	1	0.404296875
2469.91796875	0.00833333333333333	0	30	4.40208333333333	1	0.4833984375
2472.8427734375	0.00833333333333333	0	30	4.40208333333333	1	0.5830078125
2475.951171875	0.00833333333333333	0	30	4.52708333333333	1	0.955078125
2479.4267578125	0.00833333333333333	0	30	4.52708333333333	2	0.943359375
2482.66015625	0.00833333333333333	0	-30	-7.53958333333333	1	0.7021484375
2485.7431640625	0.00833333333333333	0	30	4.52708333333333	2	0.9072265625
2488.859375	0.00833333333333333	0	-30	-7.41458333333333	1	0.783203125
2491.9677734375	0.00833333333333333	0	-30	-7.41458333333333	1	0.74609375
2494.9013671875	0.00833333333333333	0	-30	-7.41458333333333	2	1.3330078125
2498.7431640625	0.00833333333333333	0	-30	-7.41458333333333	2	0.9951171875
2502.134765625	0.00833333333333333	0	-30	-7.41458333333333	2	0.8203125
2505.234375	0.00833333333333333	0	30	4.52708333333333	2	0.6083984375
2508.41796875	0.00833333333333333	0	-30	-7.41458333333333	2	0.80078125
2511.5166015625	0.00833333333333333	0	-30	-7.41458333333333	2	0.6943359375
2514.767578125	0.00833333333333333	0	-30	-7.53958333333333	2	0.5791015625
2517.8173828125	0.00833333333333333	0	-30	-7.53958333333333	2	0.513671875
2520.5087890625	0.00833333333333333	0	-30	-7.53958333333333	2	0.654296875
2523.6923828125	0.00833333333333333	0	-30	-7.53958333333333	1	1.119140625
2527.1162109375	0.00833333333333333	0	30	4.52708333333333	2	1.2236328125
2530.8173828125	0.00833333333333333	0	30	4.52708333333333	2	0.513671875
2533.68359375	0.00833333333333333	0	30	4.40208333333333	1	0.919921875
2537.0751953125	0.00833333333333333	0	30	4.40208333333333	2	0.65625
2539.9423828125	0.00833333333333333	0	-30	-7.53958333333333	1	0.75
2542.9501953125	0.00833333333333333	0	30	4.40208333333333	2	0.4697265625
2545.6494140625	0.00833333333333333	0	-30	-7.53958333333333	1	0.658203125
2548.55078125	0.00833333333333333	0	-30	-7.53958333333333	1	1.2216796875
2551.900390625	0.00833333333333333	0	30	4.40208333333333	1	0.51171875
2554.5087890625	0.00833333333333333	0	-30	-7.53958333333333	2	0.623046875
2557.458984375	0.00833333333333333	0	-30	-7.53958333333333	2	0.79296875
2560.8583984375	0.00833333333333333	0	-30	-7.53958333333333	2	0.72265625
2564.05859375	0.00833333333333333	0	-30	-7.53958333333333	1	0.4580078125
2566.8505859375	0.00833333333333333	0	30	4.40208333333333	2	0.4501953125
2569.908203125	0.00833333333333333	0	30	4.40208333333333	2	0.712890625
2572.80859375	0.00833333333333333	0	30	4.40208333333333	2	0.5322265625
2575.625	0.00833333333333333	0	30	4.40208333333333	2	0.4599609375
2578.3916015625	0.00833333333333333	0	30	4.40208333333333	2	0.453125
2581.224609375	0.00833333333333333	0	30	4.27708333333333	2	0.8046875
2584.3251953125	0.00833333333333333	0	30	4.27708333333333	2	0.4560546875
2587.1416015625	0.00833333333333333	0	-30	-7.53958333333333	1	0.6318359375
2589.849609375	0.00833333333333333	0	30	4.27708333333333	1	0.755859375
2593.033203125	0.00833333333333333	0	-30	-7.53958333333333	1	0.484375
2595.81640625	0.00833333333333333	0	-30	-7.53958333333333	1	0.4931640625
2598.6416015625	0.00833333333333333	0	30	4.27708333333333	1	0.412109375
2601.375	0.00833333333333333	0	30	4.27708333333333	1	0.4228515625
2604.25	0.00833333333333333	0	-30	-7.53958333333333	1	0.515625
2607.2998046875	0.00833333333333333	0	-30	-7.41458333333333	1	0.833984375
2610.541015625	0.00833333333333333	0	-30	-7.41458333333333	1	0.6171875
2613.57421875	0.00833333333333333	0	-30	-7.41458333333333	1	0.568359375
2616.431640625	0.00833333333333333	0	30	4.27708333333333	1	0.470703125
2619.041015625	0.00833333333333333	0	30	4.27708333333333	1	0.4375
2622.0322265625	0.00833333333333333	0	30	4.40208333333333	2	0.7421875
2624.982421875	0.00833333333333333	0	30	4.40208333333333	1	0.7998046875
2628.2490234375	0.00833333333333333	0	30	4.40208333333333	2	0.8056640625
2631.19140625	0.00833333333333333	0	30	4.40208333333333	1	0.85546875
2634.3740234375	0.00833333333333333	0	30	4.40208333333333	1	0.640625
2637.548828125	0.00833333333333333	0	30	4.40208333333333	1	0.578125
2640.2578125	0.00833333333333333	0	30	4.40208333333333	2	0.693359375
2643.3662109375	0.00833333333333333	0	30	4.40208333333333	1	0.6572265625
2646.4736328125	0.00833333333333333	0	30	4.40208333333333	2	0.8056640625
2667.1240234375	0.00833333333333333	0	30	4.40208333333333	2	1.00390625
2670.2890625	0.00833333333333333	0	30	4.40208333333333	2	0.5673828125
2673.4072265625	0.00833333333333333	0	-30	-7.41458333333333	2	0.6171875
2676.365234375	0.00833333333333333	0	30	4.40208333333333	2	0.6748046875
2679.3564453125	0.00833333333333333	0	30	4.40208333333333	2	0.5234375
2682.498046875	0.00833333333333333	0	-30	-7.41458333333333	2	0.4228515625
2685.4150390625	0.00833333333333333	0	30	4.27708333333333	2	0.4814453125
2688.373046875	0.00833333333333333	0	30	4.27708333333333	2	0.435546875
2690.990234375	0.00833333333333333	0	30	4.27708333333333	2	0.474609375
2693.8232421875	0.00833333333333333	0	-30	-7.41458333333333	2	0.4658203125
2696.806640625	0.00833333333333333	0	-30	-7.41458333333333	2	0.41015625
2699.873046875	0.00833333333333333	0	-30	-7.41458333333333	2	0.84765625
2702.9150390625	0.00833333333333333	0	-30	-7.53958333333333	2	0.494140625
2706.03125	0.00833333333333333	0	30	4.27708333333333	2	0.6982421875
2709.09765625	0.00833333333333333	0	-30	-7.53958333333333	2	0.5361328125
2711.9482421875	0.00833333333333333	0	30	4.27708333333333	2	0.78125
2714.9306640625	0.00833333333333333	0	30	4.15208333333333	2	0.4150390625
2717.7060546875	0.00833333333333333	0	-30	-7.53958333333333	1	1.080078125
2721.2060546875	0.00833333333333333	0	-30	-7.53958333333333	2	0.6279296875
2724.3896484375	0.00833333333333333	0	-30	-7.53958333333333	1	0.763671875
2727.2978515625	0.00833333333333333	0	-30	-7.53958333333333	2	0.48828125
2730.1142578125	0.00833333333333333	0	30	4.15208333333333	2	1.1279296875
2733.58984375	0.00833333333333333	0	-30	-7.53958333333333	2	0.7158203125
2736.498046875	0.00833333333333333	0	30	4.15208333333333	2	0.7041015625
2739.3642578125	0.00833333333333333	0	-30	-7.53958333333333	2	0.9736328125
2742.6806640625	0.00833333333333333	0	-30	-7.53958333333333	2	0.498046875
2745.7548828125	0.00833333333333333	0	30	4.15208333333333	2	1.16796875
2749.4228515625	0.00833333333333333	0	-30	-7.53958333333333	2	0.53125
2752.2060546875	0.00833333333333333	0	-30	-7.66458333333333	2	0.5244140625
2755.130859375	0.00833333333333333	0	30	4.15208333333333	2	0.5361328125
2758.197265625	0.00833333333333333	0	-30	-7.66458333333333	2	0.4775390625
2761.10546875	0.00833333333333333	0	-30	-7.66458333333333	2	0.505859375
2764.2060546875	0.00833333333333333	0	30	4.02708333333333	2	0.58984375
2766.9892578125	0.00833333333333333	0	-30	-7.66458333333333	2	0.494140625
2769.6806640625	0.00833333333333333	0	30	4.02708333333333	2	0.6103515625
2772.814453125	0.00833333333333333	0	30	4.02708333333333	2	0.60546875
2775.7802734375	0.00833333333333333	0	30	4.02708333333333	2	0.4716796875
2778.49609375	0.00833333333333333	0	-30	-7.66458333333333	2	0.4111328125
2781.205078125	0.00833333333333333	0	-30	-7.78958333333333	1	0.455078125
2783.955078125	0.00833333333333333	0	30	4.02708333333333	2	0.47265625
2786.9140625	0.00833333333333333	0	30	3.90208333333333	1	0.9375
2789.9462890625	0.00833333333333333	0	30	3.90208333333333	1	0.666015625
2793.1220703125	0.00833333333333333	0	-30	-7.78958333333333	2	0.8095703125
2796.1884765625	0.00833333333333333	0	30	3.90208333333333	1	1.0234375
2799.5048828125	0.00833333333333333	0	30	3.90208333333333	1	1.2998046875
2803.396484375	0.00833333333333333	0	-30	-7.78958333333333	2	1.240234375
2806.9462890625	0.00833333333333333	0	-30	-7.78958333333333	1	0.9072265625
2810.0966796875	0.00833333333333333	0	-30	-7.78958333333333	2	0.900390625
2813.5302734375	0.00833333333333333	0	30	3.90208333333333	1	1.1630859375
2816.8720703125	0.00833333333333333	0	-30	-7.78958333333333	2	0.9091796875
2820.470703125	0.00833333333333333	0	-30	-7.78958333333333	2	0.630859375
2823.6884765625	0.00833333333333333	0	30	4.02708333333333	1	0.9970703125
2826.87109375	0.00833333333333333	0	-30	-7.78958333333333	2	0.845703125
2829.87109375	0.00833333333333333	0	30	4.02708333333333	2	0.7177734375
2833.1455078125	0.00833333333333333	0	-30	-7.78958333333333	2	0.6279296875
2835.9716796875	0.00833333333333333	0	30	4.02708333333333	2	0.689453125
2838.8701171875	0.00833333333333333	0	30	4.02708333333333	2	0.5595703125
2841.8876953125	0.00833333333333333	0	30	4.02708333333333	2	0.56640625
2844.7119140625	0.00833333333333333	0	-30	-7.91458333333333	2	0.61328125
2847.5712890625	0.00833333333333333	0	30	4.02708333333333	2	0.5146484375
2850.38671875	0.00833333333333333	0	30	3.90208333333333	2	0.4990234375
2853.4453125	0.00833333333333333	0	-30	-7.91458333333333	2	0.5048828125
2856.4208984375	0.00833333333333333	0	30	3.90208333333333	2	0.609375
2859.279296875	0.00833333333333333	0	-30	-7.91458333333333	1	0.8232421875
2862.3623046875	0.00833333333333333	0	-30	-7.91458333333333	1	0.6201171875
2865.1279296875	0.00833333333333333	0	-30	-7.91458333333333	2	0.7587890625
2868.162109375	0.00833333333333333	0	-30	-7.91458333333333	1	0.5166015625
2870.828125	0.00833333333333333	0	-30	-7.91458333333333	2	0.74609375
2873.7119140625	0.00833333333333333	0	30	3.90208333333333	1	0.6787109375
2876.7451171875	0.00833333333333333	0	30	3.90208333333333	2	0.58203125
2879.8115234375	0.00833333333333333	0	30	3.90208333333333	1	0.859375
2882.7373046875	0.00833333333333333	0	-30	-7.91458333333333	2	0.6943359375
2885.7783203125	0.00833333333333333	0	30	3.90208333333333	1	0.533203125
2888.5126953125	0.00833333333333333	0	-30	-7.91458333333333	2	0.638671875
2891.6953125	0.00833333333333333	0	30	3.90208333333333	2	0.607421875
2894.6865234375	0.00833333333333333	0	30	3.90208333333333	2	0.6171875
2897.5283203125	0.00833333333333333	0	30	3.90208333333333	1	0.615234375
2900.486328125	0.00833333333333333	0	-30	-7.91458333333333	2	0.8173828125
2903.8203125	0.00833333333333333	0	-30	-7.91458333333333	2	0.619140625
2906.6953125	0.00833333333333333	0	-30	-8.03958333333333	1	0.744140625
2929.4287109375	0.00833333333333333	0	30	3.90208333333333	2	0.947265625
2933.0107421875	0.00833333333333333	0	-30	-8.03958333333333	2	0.830078125
2936.353515625	0.00833333333333333	0	-30	-8.03958333333333	1	1.119140625
2940.0283203125	0.00833333333333333	0	30	3.90208333333333	2	0.548828125
2943.0283203125	0.00833333333333333	0	30	3.90208333333333	2	0.4931640625
2945.8447265625	0.00833333333333333	0	-30	-8.03958333333333	2	2.4765625
2950.552734375	0.00833333333333333	0	30	3.90208333333333	2	0.6083984375
2953.3447265625	0.00833333333333333	0	-30	-8.03958333333333	2	0.5126953125
2956.244140625	0.00833333333333333	0	30	3.90208333333333	2	0.541015625
2959.318359375	0.00833333333333333	0	30	3.77708333333333	2	0.70703125
2962.2197265625	0.00833333333333333	0	-30	-8.03958333333333	2	0.486328125
2965.1865234375	0.00833333333333333	0	30	3.77708333333333	2	0.52734375
2967.7607421875	0.00833333333333333	0	-30	-8.03958333333333	2	0.44921875
2970.4365234375	0.00833333333333333	0	30	3.77708333333333	2	0.4453125
2973.2529296875	0.00833333333333333	0	30	3.77708333333333	2	0.4296875
2976.1611328125	0.00833333333333333	0	30	3.77708333333333	2	0.4970703125
2978.759765625	0.00833333333333333	0	30	3.65208333333333	2	0.5380859375
2981.677734375	0.00833333333333333	0	30	3.65208333333333	2	0.4921875
2984.619140625	0.00833333333333333	0	-30	-8.03958333333333	2	0.54296875
2987.2353515625	0.00833333333333333	0	-30	-8.16458333333333	1	0.615234375
2989.9521484375	0.00833333333333333	0	30	3.65208333333333	2	0.482421875
2992.7685546875	0.00833333333333333	0	-30	-8.16458333333333	1	0.5703125
2995.41015625	0.00833333333333333	0	-30	-8.16458333333333	2	1.13671875
2998.810546875	0.00833333333333333	0	30	3.65208333333333	2	0.5361328125
3001.9345703125	0.00833333333333333	0	30	3.65208333333333	2	0.4921875
3004.7265625	0.00833333333333333	0	-30	-8.16458333333333	1	0.556640625
3007.6435546875	0.00833333333333333	0	30	3.52708333333333	2	0.4794921875
3010.359375	0.00833333333333333	0	30	3.52708333333333	1	0.4677734375
3012.9765625	0.00833333333333333	0	30	3.52708333333333	1	0.70703125
3016.185546875	0.00833333333333333	0	30	3.52708333333333	1	0.5302734375
3019.2021484375	0.00833333333333333	0	-30	-8.16458333333333	2	0.46484375
3021.9013671875	0.00833333333333333	0	-30	-8.16458333333333	1	0.478515625
3024.66015625	0.00833333333333333	0	30	3.52708333333333	1	0.4638671875
3027.2685546875	0.00833333333333333	0	30	3.52708333333333	1	0.5595703125
3030.3017578125	0.00833333333333333	0	30	3.65208333333333	1	0.3818359375
3033.1015625	0.00833333333333333	0	-30	-8.16458333333333	1	0.4140625
3035.6669921875	0.00833333333333333	0	-30	-8.16458333333333	1	0.4326171875
3038.4853515625	0.00833333333333333	0	30	3.65208333333333	1	0.470703125
3041.326171875	0.00833333333333333	0	-30	-8.16458333333333	1	0.421875
3044.1435546875	0.00833333333333333	0	-30	-8.16458333333333	1	0.61328125
3047.0849609375	0.00833333333333333	0	30	3.65208333333333	1	1.015625
3050.41015625	0.00833333333333333	0	-30	-8.03958333333333	1	0.498046875
3053.451171875	0.00833333333333333	0	30	3.65208333333333	1	0.46484375
3056.3671875	0.00833333333333333	0	30	3.65208333333333	1	0.4375
3058.892578125	0.00833333333333333	0	-30	-8.03958333333333	1	0.5205078125
3061.693359375	0.00833333333333333	0	30	3.77708333333333	2	0.439453125
3064.767578125	0.00833333333333333	0	30	3.77708333333333	2	0.4453125
3067.80859375	0.00833333333333333	0	30	3.77708333333333	2	0.64453125
3070.80078125	0.00833333333333333	0	30	3.77708333333333	2	0.396484375
3073.3349609375	0.00833333333333333	0	30	3.77708333333333	2	0.40625
3075.984375	0.00833333333333333	0	-30	-8.03958333333333	2	0.708984375
3079.1083984375	0.00833333333333333	0	30	3.65208333333333	2	0.45703125
3082.009765625	0.00833333333333333	0	-30	-8.03958333333333	1	0.626953125
3085.1083984375	0.00833333333333333	0	-30	-8.03958333333333	1	0.712890625
3088.1513671875	0.00833333333333333	0	30	3.65208333333333	2	0.630859375
3090.91796875	0.00833333333333333	0	-30	-8.03958333333333	1	1.1513671875
3094.408203125	0.00833333333333333	0	30	3.65208333333333	2	0.509765625
3097.3837890625	0.00833333333333333	0	-30	-8.03958333333333	2	0.7978515625
3100.7509765625	0.00833333333333333	0	30	3.65208333333333	1	0.615234375
3103.767578125	0.00833333333333333	0	-30	-8.03958333333333	2	0.8544921875
3106.8251953125	0.00833333333333333	0	-30	-8.03958333333333	2	0.5087890625
3109.900390625	0.00833333333333333	0	-30	-8.03958333333333	1	0.6015625
3112.8828125	0.00833333333333333	0	-30	-8.03958333333333	2	1.01171875
3116.1005859375	0.00833333333333333	0	-30	-8.03958333333333	1	0.7294921875
3119.1748046875	0.00833333333333333	0	30	3.65208333333333	2	0.416015625
3121.875	0.00833333333333333	0	-30	-8.03958333333333	1	0.6357421875
3124.916015625	0.00833333333333333	0	30	3.65208333333333	1	0.5146484375
3128.033203125	0.00833333333333333	0	30	3.65208333333333	1	0.4619140625
3130.8583984375	0.00833333333333333	0	-30	-8.03958333333333	1	0.4208984375
3133.7333984375	0.00833333333333333	0	30	3.65208333333333	1	0.4814453125
3136.708984375	0.00833333333333333	0	-30	-8.03958333333333	1	0.41796875
3139.30859375	0.00833333333333333	0	30	3.65208333333333	1	0.37890625
3141.93359375	0.00833333333333333	0	-30	-8.03958333333333	1	0.4013671875
3144.625	0.00833333333333333	0	30	3.65208333333333	1	0.40625
3147.4755859375	0.00833333333333333	0	-30	-7.91458333333333	1	0.3798828125
3150.0166015625	0.00833333333333333	0	30	3.77708333333333	1	0.3671875
3152.94140625	0.00833333333333333	0	30	3.77708333333333	2	0.6181640625
3156.1669921875	0.00833333333333333	0	-30	-7.91458333333333	1	0.5048828125
3158.93359375	0.00833333333333333	0	30	3.77708333333333	1	0.8828125
3162.06640625	0.00833333333333333	0	30	3.77708333333333	2	0.869140625
3171.7412109375	0.00833333333333333	0	-30	-7.91458333333333	1	1.01953125
3174.8916015625	0.00833333333333333	0	-30	-7.91458333333333	1	0.8447265625
3178.099609375	0.00833333333333333	0	30	3.77708333333333	2	0.6923828125
3181.216796875	0.00833333333333333	0	30	3.77708333333333	2	0.607421875
3184.099609375	0.00833333333333333	0	30	3.77708333333333	2	0.7978515625
3187.31640625	0.00833333333333333	0	30	3.77708333333333	2	0.4521484375
3190.3408203125	0.00833333333333333	0	30	3.65208333333333	2	0.580078125
3193.3662109375	0.00833333333333333	0	-30	-7.91458333333333	2	0.4267578125
3196.1650390625	0.00833333333333333	0	-30	-7.91458333333333	2	0.548828125
3198.8330078125	0.00833333333333333	0	-30	-7.91458333333333	2	0.529296875
3201.4580078125	0.00833333333333333	0	30	3.65208333333333	2	0.65625
3204.69140625	0.00833333333333333	0	-30	-7.91458333333333	2	0.509765625
3207.6728515625	0.00833333333333333	0	30	3.65208333333333	2	0.568359375
3210.57421875	0.00833333333333333	0	30	3.65208333333333	2	0.4990234375
3213.224609375	0.00833333333333333	0	-30	-7.91458333333333	2	0.5771484375
3216.390625	0.00833333333333333	0	30	3.65208333333333	2	0.5390625
3219.0810546875	0.00833333333333333	0	30	3.52708333333333	2	0.48828125
3221.8828125	0.00833333333333333	0	30	3.52708333333333	2	0.447265625
3224.6494140625	0.00833333333333333	0	-30	-8.03958333333333	2	0.720703125
3227.7490234375	0.00833333333333333	0	30	3.52708333333333	2	0.62109375
3230.57421875	0.00833333333333333	0	-30	-8.03958333333333	1	0.564453125
3233.33203125	0.00833333333333333	0	-30	-8.03958333333333	2	0.55859375
3236.107421875	0.00833333333333333	0	30	3.52708333333333	2	0.6064453125
3238.9326171875	0.00833333333333333	0	-30	-8.03958333333333	1	0.7333984375
3242.0654296875	0.00833333333333333	0	-30	-8.03958333333333	1	0.5927734375
3245.173828125	0.00833333333333333	0	30	3.52708333333333	2	0.95703125
3248.7060546875	0.00833333333333333	0	-30	-8.03958333333333	2	0.7763671875
3251.7822265625	0.00833333333333333	0	30	3.40208333333333	2	0.5322265625
3254.482421875	0.00833333333333333	0	-30	-8.03958333333333	1	0.6728515625
3257.2734375	0.00833333333333333	0	-30	-8.03958333333333	2	0.6181640625
3260.298828125	0.00833333333333333	0	-30	-8.03958333333333	1	0.83203125
3263.490234375	0.00833333333333333	0	30	3.40208333333333	2	0.5048828125
3266.431640625	0.00833333333333333	0	30	3.40208333333333	1	0.5234375
3269.5400390625	0.00833333333333333	0	30	3.40208333333333	2	0.8310546875
3272.7734375	0.00833333333333333	0	-30	-8.03958333333333	1	0.8310546875
3276.0400390625	0.00833333333333333	0	-30	-8.03958333333333	1	0.4677734375
3278.931640625	0.00833333333333333	0	-30	-8.03958333333333	1	0.4482421875
3281.9560546875	0.00833333333333333	0	30	3.40208333333333	1	0.51171875
3284.7900390625	0.00833333333333333	0	-30	-8.03958333333333	2	0.845703125
3288.0146484375	0.00833333333333333	0	30	3.40208333333333	2	0.7177734375
3291.0390625	0.00833333333333333	0	30	3.40208333333333	2	0.7568359375
3294.205078125	0.00833333333333333	0	-30	-8.03958333333333	1	0.783203125
3297.47265625	0.00833333333333333	0	-30	-8.03958333333333	2	0.4443359375
3300.498046875	0.00833333333333333	0	30	3.40208333333333	2	0.3779296875
3303.5146484375	0.00833333333333333	0	-30	-8.03958333333333	1	0.3134765625
3306.1474609375	0.00833333333333333	0	30	3.40208333333333	2	0.625
3309.1728515625	0.00833333333333333	0	30	3.40208333333333	1	0.6396484375
3312.28125	0.00833333333333333	0	30	3.40208333333333	2	1.251953125
3315.9716796875	0.00833333333333333	0	30	3.40208333333333	1	0.6650390625
3318.8388671875	0.00833333333333333	0	-30	-8.03958333333333	1	0.734375
3321.73828125	0.00833333333333333	0	-30	-8.03958333333333	2	0.947265625
3325.0478515625	0.00833333333333333	0	30	3.40208333333333	1	1.005859375
3328.40625	0.00833333333333333	0	-30	-8.03958333333333	2	0.638671875
3331.3310546875	0.00833333333333333	0	-30	-8.03958333333333	1	0.6181640625
3334.34765625	0.00833333333333333	0	-30	-8.03958333333333	2	0.6259765625
3337.22265625	0.00833333333333333	0	30	3.40208333333333	1	0.6064453125
3340.2890625	0.00833333333333333	0	30	3.40208333333333	2	0.4931640625
3343.330078125	0.00833333333333333	0	30	3.40208333333333	2	0.5634765625
3346.4384765625	0.00833333333333333	0	-30	-8.03958333333333	1	0.951171875
3349.48046875	0.00833333333333333	0	30	3.40208333333333	1	0.61328125
3352.6298828125	0.00833333333333333	0	-30	-8.03958333333333	2	0.5927734375
3355.4716796875	0.00833333333333333	0	-30	-8.03958333333333	2	0.40625
3358.330078125	0.00833333333333333	0	30	3.40208333333333	2	0.3564453125
3361.013671875	0.00833333333333333	0	30	3.40208333333333	2	0.48828125
3364.12890625	0.00833333333333333	0	30	3.40208333333333	2	0.8291015625
3367.4541015625	0.00833333333333333	0	-30	-8.03958333333333	2	0.5048828125
3370.4296875	0.00833333333333333	0	30	3.40208333333333	1	0.6884765625
3373.421875	0.00833333333333333	0	-30	-8.03958333333333	1	0.9365234375
3376.7802734375	0.00833333333333333	0	-30	-8.03958333333333	2	0.658203125
3379.587890625	0.00833333333333333	0	-30	-8.03958333333333	2	0.69921875
3382.5634765625	0.00833333333333333	0	-30	-8.03958333333333	2	0.595703125
3385.61328125	0.00833333333333333	0	-30	-8.03958333333333	2	0.521484375
3388.7216796875	0.00833333333333333	0	-30	-8.03958333333333	2	0.58984375
3391.50390625	0.00833333333333333	0	30	3.40208333333333	2	0.5517578125
3394.5048828125	0.00833333333333333	0	30	3.40208333333333	2	0.662109375
3397.3466796875	0.00833333333333333	0	30	3.40208333333333	2	0.6533203125
3400.3876953125	0.00833333333333333	0	30	3.40208333333333	2	0.5244140625
3403.1044921875	0.00833333333333333	0	30	3.40208333333333	2	0.5751953125
3405.9794921875	0.00833333333333333	0	-30	-8.16458333333333	2	0.99609375
3409.1376953125	0.00833333333333333	0	30	3.27708333333333	2	0.56640625
3424.12109375	0.00833333333333333	0	30	3.27708333333333	1	1.0556640625
3427.4208984375	0.00833333333333333	0	30	3.27708333333333	2	0.6435546875
3430.4462890625	0.00833333333333333	0	30	3.27708333333333	2	0.4345703125
3433.087890625	0.00833333333333333	0	30	3.27708333333333	2	0.9130859375
3436.345703125	0.00833333333333333	0	-30	-8.16458333333333	1	0.630859375
3439.25390625	0.00833333333333333	0	30	3.27708333333333	2	0.71484375
3442.462890625	0.00833333333333333	0	-30	-8.16458333333333	1	0.634765625
3445.4541015625	0.00833333333333333	0	-30	-8.16458333333333	1	0.5146484375
3448.220703125	0.00833333333333333	0	-30	-8.16458333333333	1	0.4609375
3450.919921875	0.00833333333333333	0	30	3.27708333333333	1	0.521484375
3453.787109375	0.00833333333333333	0	-30	-8.16458333333333	1	0.55078125
3456.662109375	0.00833333333333333	0	-30	-8.03958333333333	1	0.5390625
3459.595703125	0.00833333333333333	0	-30	-8.03958333333333	2	0.669921875
3462.345703125	0.00833333333333333	0	30	3.27708333333333	2	0.720703125
3465.353515625	0.00833333333333333	0	30	3.27708333333333	1	1.0087890625
3468.8369140625	0.00833333333333333	0	30	3.27708333333333	1	0.4609375
3471.6533203125	0.00833333333333333	0	-30	-8.03958333333333	1	0.484375
3474.63671875	0.00833333333333333	0	30	3.27708333333333	2	0.517578125
3477.6953125	0.00833333333333333	0	30	3.27708333333333	2	0.642578125
3480.728515625	0.00833333333333333	0	30	3.27708333333333	1	0.44921875
3483.3115234375	0.00833333333333333	0	30	3.27708333333333	2	0.73828125
3486.26953125	0.00833333333333333	0	30	3.27708333333333	2	0.5810546875
3489.4033203125	0.00833333333333333	0	-30	-8.03958333333333	2	0.5908203125
3492.4619140625	0.00833333333333333	0	-30	-8.03958333333333	1	0.8369140625
3495.494140625	0.00833333333333333	0	-30	-8.03958333333333	2	0.5087890625
3498.3115234375	0.00833333333333333	0	30	3.27708333333333	2	0.71484375
3501.26953125	0.00833333333333333	0	-30	-8.03958333333333	1	0.7890625
3504.5361328125	0.00833333333333333	0	-30	-8.03958333333333	1	0.619140625
3507.3369140625	0.00833333333333333	0	-30	-8.03958333333333	1	0.74609375
3510.419921875	0.00833333333333333	0	30	3.27708333333333	2	0.607421875
3513.3779296875	0.00833333333333333	0	-30	-8.03958333333333	2	0.43359375
3516.3525390625	0.00833333333333333	0	-30	-8.03958333333333	1	0.4990234375
3519.177734375	0.00833333333333333	0	-30	-8.03958333333333	1	0.4580078125
3522.0693359375	0.00833333333333333	0	30	3.27708333333333	2	0.501953125
3524.7607421875	0.00833333333333333	0	-30	-8.03958333333333	2	0.787109375
3527.8779296875	0.00833333333333333	0	30	3.15208333333333	2	0.5576171875
3530.6435546875	0.00833333333333333	0	30	3.15208333333333	2	0.83203125
3533.9775390625	0.00833333333333333	0	30	3.15208333333333	2	1.0107421875
3537.26953125	0.00833333333333333	0	30	3.15208333333333	1	0.478515625
3540.302734375	0.00833333333333333	0	30	3.15208333333333	2	0.3896484375
3542.8359375	0.00833333333333333	0	30	3.15208333333333	2	0.6162109375
3546.01953125	0.00833333333333333	0	-30	-8.03958333333333	1	0.6171875
3548.8603515625	0.00833333333333333	0	-30	-8.03958333333333	2	0.9521484375
3552.3681640625	0.00833333333333333	0	30	3.15208333333333	2	0.4921875
3555.119140625	0.00833333333333333	0	-30	-8.03958333333333	1	0.5419921875
3557.8525390625	0.00833333333333333	0	30	3.15208333333333	2	0.48828125
3560.7607421875	0.00833333333333333	0	-30	-8.03958333333333	1	0.580078125
3563.869140625	0.00833333333333333	0	-30	-8.03958333333333	1	0.82421875
3567.2353515625	0.00833333333333333	0	30	3.15208333333333	1	0.7294921875
3570.2509765625	0.00833333333333333	0	-30	-8.03958333333333	1	0.7060546875
3573.134765625	0.00833333333333333	0	-30	-8.03958333333333	1	0.5107421875
3576.03515625	0.00833333333333333	0	-30	-7.91458333333333	1	0.5458984375
3578.8935546875	0.00833333333333333	0	30	3.15208333333333	2	0.8798828125
3581.9345703125	0.00833333333333333	0	-30	-7.91458333333333	2	1.3671875
3585.8349609375	0.00833333333333333	0	30	3.15208333333333	2	0.634765625
3589.0185546875	0.00833333333333333	0	-30	-7.91458333333333	1	0.5634765625
3591.6767578125	0.00833333333333333	0	30	3.15208333333333	2	0.544921875
3594.4013671875	0.00833333333333333	0	-30	-7.91458333333333	1	0.5087890625
3597.1181640625	0.00833333333333333	0	30	3.15208333333333	1	1.103515625
3600.4931640625	0.00833333333333333	0	-30	-7.91458333333333	2	0.9365234375
3603.5263671875	0.00833333333333333	0	30	3.15208333333333	1	0.6396484375
3606.5517578125	0.00833333333333333	0	-30	-7.91458333333333	2	0.630859375
3609.5771484375	0.00833333333333333	0	-30	-7.91458333333333	2	0.5888671875
3612.3603515625	0.00833333333333333	0	30	3.15208333333333	1	0.7099609375
3615.2841796875	0.00833333333333333	0	30	3.15208333333333	1	0.5146484375
3618.2099609375	0.00833333333333333	0	-30	-7.91458333333333	2	1.94921875
3622.17578125	0.00833333333333333	0	-30	-7.91458333333333	2	0.5751953125
3624.8681640625	0.00833333333333333	0	30	3.15208333333333	1	0.5625
3627.7509765625	0.00833333333333333	0	-30	-8.03958333333333	1	0.7763671875
3630.826171875	0.00833333333333333	0	30	3.27708333333333	1	0.8291015625
3633.734375	0.00833333333333333	0	-30	-8.03958333333333	1	0.529296875
3636.4091796875	0.00833333333333333	0	30	3.27708333333333	1	0.6376953125
3639.3095703125	0.00833333333333333	0	-30	-8.03958333333333	1	0.833984375
3642.384765625	0.00833333333333333	0	30	3.27708333333333	2	0.7109375
3645.484375	0.00833333333333333	0	-30	-8.03958333333333	1	0.4189453125
3648.0673828125	0.00833333333333333	0	-30	-8.03958333333333	1	0.4365234375
3650.609375	0.00833333333333333	0	30	3.27708333333333	1	0.501953125
3653.3505859375	0.00833333333333333	0	30	3.27708333333333	2	0.7373046875
3656.3427734375	0.00833333333333333	0	-30	-7.91458333333333	2	0.720703125
3659.259765625	0.00833333333333333	0	-30	-7.91458333333333	1	0.5400390625
3675.083984375	0.00833333333333333	0	30	3.27708333333333	2	0.8369140625
3678.3916015625	0.00833333333333333	0	30	3.27708333333333	2	0.6005859375
3681.609375	0.00833333333333333	0	30	3.27708333333333	2	0.703125
3684.7587890625	0.00833333333333333	0	-30	-7.91458333333333	2	0.4736328125
3687.6337890625	0.00833333333333333	0	-30	-7.91458333333333	2	0.5517578125
3690.4501953125	0.00833333333333333	0	-30	-7.91458333333333	2	0.798828125
3693.8505859375	0.00833333333333333	0	-30	-7.91458333333333	2	0.5263671875
3696.7919921875	0.00833333333333333	0	30	3.27708333333333	2	0.521484375
3699.68359375	0.00833333333333333	0	-30	-7.91458333333333	2	0.5419921875
3702.8505859375	0.00833333333333333	0	30	3.15208333333333	2	0.470703125
3705.583984375	0.00833333333333333	0	-30	-8.03958333333333	2	0.5615234375
3708.583984375	0.00833333333333333	0	30	3.15208333333333	2	0.505859375
3711.4755859375	0.00833333333333333	0	-30	-8.03958333333333	1	0.5263671875
3714.091796875	0.00833333333333333	0	30	3.15208333333333	2	0.6220703125
3717.25	0.00833333333333333	0	30	3.15208333333333	2	0.5361328125
3720.1005859375	0.00833333333333333	0	-30	-8.03958333333333	1	0.533203125
3723	0.00833333333333333	0	-30	-8.03958333333333	1	0.9619140625
3726.2578125	0.00833333333333333	0	30	3.15208333333333	1	0.560546875
3728.9404296875	0.00833333333333333	0	-30	-8.03958333333333	2	0.57421875
3732.1083984375	0.00833333333333333	0	-30	-8.03958333333333	1	0.5576171875
3734.791015625	0.00833333333333333	0	-30	-8.03958333333333	2	0.5078125
3737.5751953125	0.00833333333333333	0	30	3.15208333333333	2	0.451171875
3740.431640625	0.00833333333333333	0	30	3.15208333333333	2	0.451171875
3743.1328125	0.00833333333333333	0	30	3.15208333333333	2	0.56640625
3746.1240234375	0.00833333333333333	0	-30	-8.03958333333333	2	0.4306640625
3748.8662109375	0.00833333333333333	0	30	3.15208333333333	2	0.48046875
3751.599609375	0.00833333333333333	0	-30	-8.03958333333333	2	0.4189453125
3754.2666015625	0.00833333333333333	0	-30	-8.03958333333333	1	0.6484375
3757.0576171875	0.00833333333333333	0	30	3.15208333333333	1	0.5859375
3760.1826171875	0.00833333333333333	0	30	3.15208333333333	2	0.5087890625
3762.82421875	0.00833333333333333	0	30	3.15208333333333	2	0.458984375
3765.5986328125	0.00833333333333333	0	-30	-8.03958333333333	2	0.4609375
3768.3896484375	0.00833333333333333	0	30	3.15208333333333	2	0.494140625
3771.07421875	0.00833333333333333	0	30	3.15208333333333	2	0.4013671875
3773.974609375	0.00833333333333333	0	30	3.15208333333333	2	0.5009765625
3776.70703125	0.00833333333333333	0	-30	-8.03958333333333	2	0.4248046875
3779.6572265625	0.00833333333333333	0	-30	-8.03958333333333	2	0.490234375
3782.357421875	0.00833333333333333	0	30	3.02708333333333	2	0.494140625
3785.1650390625	0.00833333333333333	0	30	3.02708333333333	2	0.4873046875
3788.2490234375	0.00833333333333333	0	-30	-8.03958333333333	2	0.5712890625
3791.107421875	0.00833333333333333	0	-30	-8.03958333333333	2	0.537109375
3793.798828125	0.00833333333333333	0	30	3.02708333333333	1	0.58984375
3796.9658203125	0.00833333333333333	0	-30	-8.16458333333333	1	0.5830078125
3799.9990234375	0.00833333333333333	0	-30	-8.16458333333333	2	0.8134765625
3803.4072265625	0.00833333333333333	0	-30	-8.16458333333333	1	0.765625
3806.265625	0.00833333333333333	0	-30	-8.16458333333333	1	0.794921875
3809.3740234375	0.00833333333333333	0	30	3.02708333333333	1	0.6953125
3812.3642578125	0.00833333333333333	0	30	3.02708333333333	2	0.8330078125
3815.6572265625	0.00833333333333333	0	-30	-8.16458333333333	1	0.4833984375
3818.3154296875	0.00833333333333333	0	-30	-8.16458333333333	2	0.6572265625
3821.2900390625	0.00833333333333333	0	-30	-8.16458333333333	1	0.53125
3824.3984375	0.00833333333333333	0	30	3.02708333333333	1	0.6064453125
3827.5986328125	0.00833333333333333	0	-30	-8.16458333333333	1	0.462890625
3830.623046875	0.00833333333333333	0	-30	-8.16458333333333	1	0.638671875
3833.740234375	0.00833333333333333	0	-30	-8.16458333333333	1	0.521484375
3836.46484375	0.00833333333333333	0	30	3.02708333333333	1	0.62109375
3839.1904296875	0.00833333333333333	0	30	3.02708333333333	1	0.4716796875
3842.21484375	0.00833333333333333	0	-30	-8.16458333333333	1	0.3994140625
3845.1484375	0.00833333333333333	0	30	3.02708333333333	1	0.3779296875
3847.9228515625	0.00833333333333333	0	30	3.02708333333333	2	1.1552734375
3851.23046875	0.00833333333333333	0	30	3.02708333333333	1	0.6396484375
3854.15625	0.00833333333333333	0	-30	-8.03958333333333	1	0.9619140625
3857.5732421875	0.00833333333333333	0	-30	-8.03958333333333	2	1.2333984375
3860.939453125	0.00833333333333333	0	-30	-8.03958333333333	1	0.6669921875
3864.09765625	0.00833333333333333	0	-30	-8.03958333333333	1	0.7412109375
3867.171875	0.00833333333333333	0	-30	-8.03958333333333	1	0.474609375
3870.1142578125	0.00833333333333333	0	30	3.02708333333333	1	0.740234375
3872.97265625	0.00833333333333333	0	30	3.02708333333333	1	0.72265625
3875.931640625	0.00833333333333333	0	-30	-8.03958333333333	1	1.099609375
3879.580078125	0.00833333333333333	0	-30	-8.03958333333333	1	0.619140625
3882.6474609375	0.00833333333333333	0	-30	-7.91458333333333	1	0.5517578125
3885.47265625	0.00833333333333333	0	30	3.02708333333333	2	0.57421875
3888.373046875	0.00833333333333333	0	-30	-7.91458333333333	1	0.4990234375
3891.171875	0.00833333333333333	0	-30	-7.91458333333333	1	0.5
3893.8642578125	0.00833333333333333	0	-30	-7.91458333333333	1	0.7197265625
3896.921875	0.00833333333333333	0	30	3.02708333333333	2	0.58984375
3900.064453125	0.00833333333333333	0	30	3.02708333333333	2	1.0869140625
3903.4638671875	0.00833333333333333	0	-30	-7.91458333333333	1	0.8642578125
3906.4892578125	0.00833333333333333	0	30	3.02708333333333	2	0.5908203125
3909.2802734375	0.00833333333333333	0	30	3.02708333333333	2	0.7998046875
3933.8388671875	0.00833333333333333	0	30	2.90208333333333	2	0.9296875
3936.8798828125	0.00833333333333333	0	30	2.90208333333333	1	1.4892578125
3940.7216796875	0.00833333333333333	0	30	2.90208333333333	1	1.015625
3944.046875	0.00833333333333333	0	-30	-7.78958333333333	1	0.7939453125
3947.0205078125	0.00833333333333333	0	-30	-7.78958333333333	2	0.6123046875
3949.7880859375	0.00833333333333333	0	30	2.90208333333333	1	1.0693359375
3953.2880859375	0.00833333333333333	0	-30	-7.78958333333333	2	0.5048828125
3955.896484375	0.00833333333333333	0	30	2.90208333333333	2	0.689453125
3958.8134765625	0.00833333333333333	0	-30	-7.78958333333333	2	0.4921875
3961.455078125	0.00833333333333333	0	-30	-7.78958333333333	2	0.466796875
3964.0302734375	0.00833333333333333	0	30	2.90208333333333	1	0.68359375
3967.0380859375	0.00833333333333333	0	30	2.90208333333333	1	0.7802734375
3969.9384765625	0.00833333333333333	0	30	2.90208333333333	1	0.8154296875
3973.087890625	0.00833333333333333	0	-30	-7.78958333333333	2	0.5380859375
3975.9462890625	0.00833333333333333	0	30	2.90208333333333	1	0.568359375
3978.720703125	0.00833333333333333	0	30	2.90208333333333	2	0.74609375
3981.837890625	0.00833333333333333	0	30	2.90208333333333	2	0.716796875
3984.603515625	0.00833333333333333	0	30	2.90208333333333	2	0.9833984375
3987.771484375	0.00833333333333333	0	30	2.90208333333333	1	0.798828125
3990.73828125	0.00833333333333333	0	30	2.90208333333333	2	0.6484375
3994.00390625	0.00833333333333333	0	30	2.90208333333333	1	0.51953125
3996.7626953125	0.00833333333333333	0	30	2.90208333333333	1	0.6240234375
3999.7041015625	0.00833333333333333	0	30	2.90208333333333	1	1.2265625
4003.4462890625	0.00833333333333333	0	30	2.90208333333333	1	1.548828125
4007.0546875	0.00833333333333333	0	-30	-7.91458333333333	2	0.6923828125
4010.287109375	0.00833333333333333	0	-30	-7.91458333333333	1	0.7646484375
4013.4462890625	0.00833333333333333	0	30	2.90208333333333	2	0.7412109375
4016.3623046875	0.00833333333333333	0	30	2.90208333333333	1	0.96875
4019.4873046875	0.00833333333333333	0	-30	-7.91458333333333	2	0.7802734375
4022.3701171875	0.00833333333333333	0	-30	-7.91458333333333	2	0.59375
4025.4365234375	0.00833333333333333	0	30	2.90208333333333	1	0.5673828125
4028.1787109375	0.00833333333333333	0	-30	-7.91458333333333	2	0.4892578125
4031.1533203125	0.00833333333333333	0	30	2.90208333333333	2	0.6904296875
4034.1708984375	0.00833333333333333	0	30	2.90208333333333	2	0.8330078125
4037.4033203125	0.00833333333333333	0	-30	-7.91458333333333	1	0.521484375
4040.0205078125	0.00833333333333333	0	30	2.90208333333333	1	0.6162109375
4042.919921875	0.00833333333333333	0	-30	-7.91458333333333	1	1.0283203125
4046.1943359375	0.00833333333333333	0	30	2.90208333333333	2	0.6181640625
4049.1201171875	0.00833333333333333	0	30	2.90208333333333	1	0.5322265625
4051.919921875	0.00833333333333333	0	-30	-7.91458333333333	2	0.9970703125
4055.1953125	0.00833333333333333	0	30	2.90208333333333	2	0.7216796875
4058.4697265625	0.00833333333333333	0	-30	-7.91458333333333	2	0.5751953125
4061.544921875	0.00833333333333333	0	30	2.90208333333333	1	0.98828125
4064.89453125	0.00833333333333333	0	30	2.90208333333333	1	0.7265625
4067.728515625	0.00833333333333333	0	30	2.90208333333333	1	0.8203125
4070.8447265625	0.00833333333333333	0	-30	-7.91458333333333	2	0.560546875
4073.7939453125	0.00833333333333333	0	30	2.90208333333333	1	0.5712890625
4076.4697265625	0.00833333333333333	0	-30	-7.91458333333333	2	0.5595703125
4079.51171875	0.00833333333333333	0	30	2.90208333333333	2	0.5654296875
4082.435546875	0.00833333333333333	0	30	2.90208333333333	2	0.6982421875
4085.3779296875	0.00833333333333333	0	30	2.90208333333333	2	0.66015625
4088.3115234375	0.00833333333333333	0	30	2.90208333333333	1	0.814453125
4091.63671875	0.00833333333333333	0	30	2.90208333333333	1	0.521484375
4094.302734375	0.00833333333333333	0	-30	-7.91458333333333	1	0.4873046875
4096.986328125	0.00833333333333333	0	-30	-7.91458333333333	1	1.2119140625
4100.302734375	0.00833333333333333	0	30	2.90208333333333	2	0.7275390625
4103.310546875	0.00833333333333333	0	30	2.90208333333333	2	0.5439453125
4105.9931640625	0.00833333333333333	0	30	2.90208333333333	1	0.60546875
4108.96875	0.00833333333333333	0	-30	-7.91458333333333	1	0.525390625
4111.560546875	0.00833333333333333	0	30	2.90208333333333	2	0.662109375
4114.693359375	0.00833333333333333	0	-30	-7.91458333333333	2	0.6015625
4117.4521484375	0.00833333333333333	0	-30	-7.91458333333333	1	0.5302734375
4120.560546875	0.00833333333333333	0	30	2.90208333333333	2	0.5419921875
4123.3779296875	0.00833333333333333	0	-30	-7.91458333333333	2	0.4931640625
4126.1103515625	0.00833333333333333	0	-30	-7.91458333333333	1	0.5537109375
4129.09375	0.00833333333333333	0	30	2.90208333333333	1	0.5537109375
4132.1767578125	0.00833333333333333	0	-30	-7.91458333333333	2	0.494140625
4135.1357421875	0.00833333333333333	0	30	2.90208333333333	2	0.84765625
4138.0859375	0.00833333333333333	0	-30	-7.91458333333333	1	0.6494140625
4141.1943359375	0.00833333333333333	0	30	2.90208333333333	2	0.548828125
4143.9443359375	0.00833333333333333	0	30	2.90208333333333	1	0.958984375
4147.27734375	0.00833333333333333	0	30	2.90208333333333	2	0.578125
4150.318359375	0.00833333333333333	0	-30	-7.91458333333333	2	0.529296875
4153.4521484375	0.00833333333333333	0	-30	-7.91458333333333	2	0.68359375
4156.318359375	0.00833333333333333	0	30	2.90208333333333	1	0.6181640625
4159.0185546875	0.00833333333333333	0	-30	-7.91458333333333	2	0.78125
4162.1171875	0.00833333333333333	0	-30	-7.91458333333333	1	0.8671875
4165.251953125	0.00833333333333333	0	-30	-7.91458333333333	1	0.65234375
4168.259765625	0.00833333333333333	0	-30	-7.91458333333333	2	0.7255859375
4171.1513671875	0.00833333333333333	0	30	2.90208333333333	2	0.4814453125
