onset	duration	titr	surround	centre	response	rt
201.1826171875	0.00833333333333333	1	-30	15	2	2.8876953125
206.43359375	0.00833333333333333	1	-30	14	2	5.0771484375
214.025390625	0.00833333333333333	1	NaN	15	2	1.0771484375
217.408203125	0.00833333333333333	1	-30	-15	1	0.4794921875
220.423828125	0.00833333333333333	1	-30	13	1	0.87890625
223.474609375	0.00833333333333333	1	NaN	-15	1	0.9404296875
226.541015625	0.00833333333333333	1	30	-15	1	5.802734375
234.4658203125	0.00833333333333333	1	-30	14	1	0.677734375
237.349609375	0.00833333333333333	1	-30	-14	1	0.818359375
240.615234375	0.00833333333333333	1	-30	15	2	0.9365234375
244.048828125	0.00833333333333333	1	30	-14	2	0.703125
247.07421875	0.00833333333333333	1	-30	-13	1	0.7333984375
250.1494140625	0.00833333333333333	1	30	15	2	0.6513671875
253.365234375	0.00833333333333333	1	NaN	14	2	0.5634765625
256.07421875	0.00833333333333333	1	-30	-12	1	0.8544921875
259.2744140625	0.00833333333333333	1	-30	14	2	0.677734375
262.19921875	0.00833333333333333	1	NaN	-14	1	0.44921875
265.0986328125	0.00833333333333333	1	NaN	-13	1	1.23828125
268.8486328125	0.00833333333333333	1	30	14	2	0.6484375
272.07421875	0.00833333333333333	1	-30	13	2	0.822265625
275.4072265625	0.00833333333333333	1	30	-15	2	0.5693359375
278.1572265625	0.00833333333333333	1	-30	-11	2	0.755859375
281.44921875	0.00833333333333333	1	NaN	13	2	0.51953125
284.21484375	0.00833333333333333	1	-30	12	2	0.626953125
286.95703125	0.00833333333333333	1	30	13	2	0.5966796875
290.0400390625	0.00833333333333333	1	30	-16	2	0.8173828125
292.990234375	0.00833333333333333	1	NaN	-12	1	2.427734375
297.5322265625	0.00833333333333333	1	30	-17	2	0.6455078125
300.70703125	0.00833333333333333	1	NaN	-11	2	1.359375
304.548828125	0.00833333333333333	1	NaN	-12	2	0.8046875
307.5400390625	0.00833333333333333	1	30	-18	2	0.7255859375
310.7978515625	0.00833333333333333	1	NaN	-13	1	1.4521484375
314.7900390625	0.00833333333333333	1	30	-19	2	0.6767578125
317.5732421875	0.00833333333333333	1	-30	-12	1	1.453125
321.4970703125	0.00833333333333333	1	NaN	-12	1	0.8017578125
324.3984375	0.00833333333333333	1	30	-20	2	0.595703125
327.40625	0.00833333333333333	1	NaN	-11	1	1.1083984375
331.0400390625	0.00833333333333333	1	-30	11	2	0.6669921875
333.8388671875	0.00833333333333333	1	-30	10	2	0.5478515625
336.71484375	0.00833333333333333	1	-30	9	2	0.7197265625
339.6142578125	0.00833333333333333	1	30	12	2	0.61328125
342.814453125	0.00833333333333333	1	NaN	-10	1	0.94921875
345.9892578125	0.00833333333333333	1	-30	-11	1	0.7978515625
349.2890625	0.00833333333333333	1	30	-21	2	0.666015625
352.330078125	0.00833333333333333	1	-30	8	2	0.6337890625
355.1396484375	0.00833333333333333	1	-30	7	2	0.736328125
358.138671875	0.00833333333333333	1	-30	6	1	1.1689453125
361.6728515625	0.00833333333333333	1	NaN	12	2	0.466796875
364.7138671875	0.00833333333333333	1	-30	7	1	0.9140625
368.1552734375	0.00833333333333333	1	30	11	2	0.6005859375
371.013671875	0.00833333333333333	1	NaN	-9	1	0.7265625
374.2890625	0.00833333333333333	1	30	10	2	0.5791015625
377.1640625	0.00833333333333333	1	-30	-10	1	0.8798828125
380.5390625	0.00833333333333333	1	30	9	2	0.6171875
383.6552734375	0.00833333333333333	1	NaN	11	2	0.533203125
386.580078125	0.00833333333333333	1	NaN	10	2	0.5927734375
389.4140625	0.00833333333333333	1	30	-22	2	0.7265625
392.6044921875	0.00833333333333333	1	NaN	9	2	0.568359375
395.447265625	0.00833333333333333	1	30	8	2	0.677734375
398.4638671875	0.00833333333333333	1	NaN	8	2	0.5732421875
401.296875	0.00833333333333333	1	-30	8	1	0.97265625
404.7138671875	0.00833333333333333	1	30	-23	2	2.2998046875
409.263671875	0.00833333333333333	1	-30	9	2	1.1337890625
412.830078125	0.00833333333333333	1	NaN	-8	2	0.935546875
416.2216796875	0.00833333333333333	1	-30	8	1	0.759765625
419.330078125	0.00833333333333333	1	30	-24	1	1.587890625
423.455078125	0.00833333333333333	1	-30	9	1	0.5185546875
426.1298828125	0.00833333333333333	1	-30	10	1	0.580078125
428.771484375	0.00833333333333333	1	30	7	1	0.970703125
431.9462890625	0.00833333333333333	1	-30	-9	1	0.5234375
434.6298828125	0.00833333333333333	1	30	-23	2	0.6162109375
437.3466796875	0.00833333333333333	1	-30	11	1	0.611328125
440.48828125	0.00833333333333333	1	30	-24	2	0.5908203125
443.37109375	0.00833333333333333	1	NaN	7	2	0.53125
446.3212890625	0.00833333333333333	1	-30	-8	1	0.6533203125
449.419921875	0.00833333333333333	1	30	8	2	0.5224609375
452.0380859375	0.00833333333333333	1	-30	12	1	0.44140625
454.611328125	0.00833333333333333	1	30	7	2	0.53125
457.279296875	0.00833333333333333	1	NaN	-9	1	0.919921875
460.6044921875	0.00833333333333333	1	-30	-7	1	0.6904296875
463.3955078125	0.00833333333333333	1	NaN	6	2	1.3720703125
466.904296875	0.00833333333333333	1	NaN	-8	1	1.2548828125
470.4375	0.00833333333333333	1	30	-25	2	0.6015625
473.5869140625	0.00833333333333333	1	NaN	5	1	0.9560546875
477.0458984375	0.00833333333333333	1	30	-26	2	1.59375
480.9873046875	0.00833333333333333	1	NaN	-7	1	0.8603515625
484.154296875	0.00833333333333333	1	NaN	-6	1	0.8369140625
487.412109375	0.00833333333333333	1	-30	-6	1	0.7880859375
490.38671875	0.00833333333333333	1	30	6	2	1.4775390625
494.1787109375	0.00833333333333333	1	30	-27	2	0.6455078125
497.345703125	0.00833333333333333	1	30	-28	2	0.6708984375
500.4951171875	0.00833333333333333	1	NaN	-5	1	0.8095703125
583.9677734375	0.00833333333333333	1	30	5	2	0.8193359375
586.861328125	0.00833333333333333	1	-30	-5	1	0.5498046875
589.6513671875	0.00833333333333333	1	-30	13	2	0.51953125
592.560546875	0.00833333333333333	1	NaN	6	2	0.5625
595.65234375	0.00833333333333333	1	NaN	5	2	0.623046875
598.3603515625	0.00833333333333333	1	30	4	2	0.5869140625
601.068359375	0.00833333333333333	1	-30	-4	1	0.5029296875
604.0517578125	0.00833333333333333	1	30	3	2	0.3359375
606.52734375	0.00833333333333333	1	30	2	2	0.65234375
609.3349609375	0.00833333333333333	1	-30	-3	1	2.2138671875
614.03515625	0.00833333333333333	1	30	-29	1	1.3603515625
617.4765625	0.00833333333333333	1	NaN	-4	1	1.919921875
621.6845703125	0.00833333333333333	1	-30	-2	2	0.775390625
624.693359375	0.00833333333333333	1	-30	-3	2	1.974609375
629.142578125	0.00833333333333333	1	NaN	-3	1	1.1103515625
632.6337890625	0.00833333333333333	1	NaN	4	2	1.04296875
635.9345703125	0.00833333333333333	1	-30	-4	2	2.166015625
640.3935546875	0.00833333333333333	1	30	1	1	1.1474609375
644.017578125	0.00833333333333333	1	30	2	1	1.1708984375
647.4921875	0.00833333333333333	1	NaN	3	1	1.0009765625
650.958984375	0.00833333333333333	1	30	-28	1	1.1259765625
654.2587890625	0.00833333333333333	1	-30	12	2	2.1865234375
658.943359375	0.00833333333333333	1	30	-27	1	0.9736328125
662.017578125	0.00833333333333333	1	NaN	-2	1	1.3564453125
665.9013671875	0.00833333333333333	1	30	-26	1	0.6884765625
669.0673828125	0.00833333333333333	1	30	3	2	1.130859375
672.67578125	0.00833333333333333	1	-30	11	2	0.833984375
675.642578125	0.00833333333333333	1	NaN	-1	1	0.779296875
678.767578125	0.00833333333333333	1	-30	10	2	0.58203125
681.4921875	0.00833333333333333	1	30	2	1	0.8017578125
684.7421875	0.00833333333333333	1	NaN	4	2	1.544921875
688.826171875	0.00833333333333333	1	30	3	2	1.3564453125
692.400390625	0.00833333333333333	1	30	2	1	1.982421875
696.8671875	0.00833333333333333	1	-30	-5	2	0.7958984375
699.7421875	0.00833333333333333	1	NaN	3	2	0.8486328125
703.0341796875	0.00833333333333333	1	30	3	2	1.1328125
706.4091796875	0.00833333333333333	1	-30	-6	2	0.6455078125
709.2001953125	0.00833333333333333	1	30	-25	1	0.6064453125
711.9423828125	0.00833333333333333	1	-30	9	2	0.728515625
714.8583984375	0.00833333333333333	1	NaN	2	2	0.8525390625
718.2587890625	0.00833333333333333	1	-30	8	2	0.63671875
721.1171875	0.00833333333333333	1	30	2	1	1.08203125
724.4423828125	0.00833333333333333	1	30	-24	1	0.63671875
727.1337890625	0.00833333333333333	1	NaN	0	2	1.009765625
730.2587890625	0.00833333333333333	1	NaN	-1	2	1.892578125
734.658203125	0.00833333333333333	1	NaN	1	2	0.8212890625
737.5751953125	0.00833333333333333	1	-30	7	2	0.640625
740.5751953125	0.00833333333333333	1	30	3	2	2.4248046875
745.1669921875	0.00833333333333333	1	NaN	-2	2	1.009765625
748.7236328125	0.00833333333333333	1	-30	6	2	0.6123046875
751.841796875	0.00833333333333333	1	-30	5	2	0.5908203125
755	0.00833333333333333	1	-30	4	2	0.625
758.0419921875	0.00833333333333333	1	30	-23	1	0.6064453125
760.7998046875	0.00833333333333333	1	-30	-7	2	1.1767578125
764.3662109375	0.00833333333333333	1	30	-22	1	0.5703125
767.1416015625	0.00833333333333333	1	NaN	-3	1	1.8671875
771.2666015625	0.00833333333333333	1	-30	3	2	0.89453125
774.4248046875	0.00833333333333333	1	-30	-8	2	1.48828125
778.416015625	0.00833333333333333	1	NaN	-2	2	0.9052734375
781.6748046875	0.00833333333333333	1	-30	2	2	0.654296875
784.857421875	0.00833333333333333	1	NaN	-3	2	1.6640625
788.607421875	0.00833333333333333	1	-30	1	2	0.9541015625
791.6572265625	0.00833333333333333	1	NaN	0	2	1.6806640625
795.7490234375	0.00833333333333333	1	-30	-9	2	0.7646484375
798.8662109375	0.00833333333333333	1	30	-21	1	0.6240234375
801.69921875	0.00833333333333333	1	30	-20	1	0.6953125
804.916015625	0.00833333333333333	1	NaN	-4	1	2.0224609375
809.2734375	0.00833333333333333	1	-30	0	2	0.81640625
812.3994140625	0.00833333333333333	1	NaN	-3	1	1.2109375
815.673828125	0.00833333333333333	1	30	-19	1	0.6650390625
818.6826171875	0.00833333333333333	1	30	-18	1	0.6083984375
821.4658203125	0.00833333333333333	1	-30	-10	1	1.369140625
825.0478515625	0.00833333333333333	1	NaN	-2	1	0.779296875
828.265625	0.00833333333333333	1	30	-17	1	0.5849609375
831.07421875	0.00833333333333333	1	-30	-9	2	1.625
834.95703125	0.00833333333333333	1	-30	-1	2	0.9501953125
838.2236328125	0.00833333333333333	1	NaN	-1	1	0.84375
841.365234375	0.00833333333333333	1	-30	-2	2	0.501953125
844.240234375	0.00833333333333333	1	-30	-10	2	0.5712890625
846.998046875	0.00833333333333333	1	-30	-11	1	1.0771484375
850.4892578125	0.00833333333333333	1	30	-16	1	0.6982421875
853.431640625	0.00833333333333333	1	30	-15	1	0.5400390625
856.22265625	0.00833333333333333	1	NaN	-1	1	1.6376953125
860.248046875	0.00833333333333333	1	30	-14	1	0.4921875
863.1904296875	0.00833333333333333	1	NaN	0	1	2.4453125
868.0732421875	0.00833333333333333	1	NaN	1	2	1.6748046875
872.2236328125	0.00833333333333333	1	-30	-10	2	1.533203125
876.056640625	0.00833333333333333	1	-30	-11	2	0.7880859375
878.998046875	0.00833333333333333	1	NaN	0	2	1.486328125
882.6650390625	0.00833333333333333	1	30	-13	1	0.603515625
902.939453125	0.00833333333333333	1	-30	-3	2	0.75390625
906.0302734375	0.00833333333333333	1	30	-12	1	0.55078125
908.9306640625	0.00833333333333333	1	NaN	-1	1	0.890625
912.0810546875	0.00833333333333333	1	-30	-4	1	0.716796875
915.005859375	0.00833333333333333	1	-30	-3	2	0.607421875
917.9228515625	0.00833333333333333	1	NaN	0	1	1.626953125
921.9306640625	0.00833333333333333	1	-30	-4	2	0.5869140625
924.630859375	0.00833333333333333	1	-30	-5	2	0.54296875
927.447265625	0.00833333333333333	1	-30	-6	2	0.638671875
930.4384765625	0.00833333333333333	1	-30	-7	2	0.6796875
933.421875	0.00833333333333333	1	30	-11	1	0.65625
936.28125	0.00833333333333333	1	-30	-12	2	0.60546875
938.98828125	0.00833333333333333	1	30	-10	1	0.5458984375
941.7802734375	0.00833333333333333	1	-30	-13	2	0.7138671875
944.7294921875	0.00833333333333333	1	30	-9	1	0.541015625
947.4140625	0.00833333333333333	1	-30	-8	2	0.6484375
950.1220703125	0.00833333333333333	1	30	-8	1	0.4931640625
952.7890625	0.00833333333333333	1	-30	-14	2	0.7138671875
955.73046875	0.00833333333333333	1	30	-7	1	0.580078125
958.61328125	0.00833333333333333	1	30	-6	1	0.6181640625
961.513671875	0.00833333333333333	1	-30	-9	2	1.5576171875
965.421875	0.00833333333333333	1	-30	-15	2	1.1455078125
968.955078125	0.00833333333333333	1	-30	-10	2	0.828125
972.2138671875	0.00833333333333333	1	NaN	1	2	0.5859375
975.330078125	0.00833333333333333	1	-30	-11	2	4.8212890625
982.330078125	0.00833333333333333	1	-30	-12	2	0.8701171875
985.654296875	0.00833333333333333	1	-30	-16	2	0.4501953125
988.205078125	0.00833333333333333	1	NaN	0	2	0.611328125
991.23828125	0.00833333333333333	1	NaN	-1	2	0.73828125
994.1884765625	0.00833333333333333	1	30	-5	1	0.6513671875
997.162109375	0.00833333333333333	1	-30	-13	1	0.7265625
1000.3046875	0.00833333333333333	1	NaN	-2	1	0.919921875
1003.462890625	0.00833333333333333	1	NaN	-1	2	0.9619140625
1006.9130859375	0.00833333333333333	1	-30	-17	1	1.5673828125
1010.6376953125	0.00833333333333333	1	-30	-16	1	0.931640625
1013.962890625	0.00833333333333333	1	30	-4	1	0.9580078125
1017.2294921875	0.00833333333333333	1	-30	-12	1	0.7880859375
1020.3876953125	0.00833333333333333	1	30	-3	1	0.7578125
1023.3203125	0.00833333333333333	1	30	-2	1	0.9052734375
1026.4541015625	0.00833333333333333	1	30	-1	1	0.8427734375
1029.3212890625	0.00833333333333333	1	-30	-15	1	0.400390625
1031.87890625	0.00833333333333333	1	30	0	1	0.978515625
1035.095703125	0.00833333333333333	1	-30	-11	1	0.5615234375
1037.9208984375	0.00833333333333333	1	-30	-10	1	1.8486328125
1042.0703125	0.00833333333333333	1	-30	-14	1	1.3955078125
1045.7373046875	0.00833333333333333	1	-30	-13	1	0.728515625
1048.50390625	0.00833333333333333	1	30	1	1	0.5703125
1051.2451171875	0.00833333333333333	1	-30	-12	1	0.6455078125
1054.1123046875	0.00833333333333333	1	-30	-11	2	1.5224609375
1058.0869140625	0.00833333333333333	1	-30	-9	1	1.2353515625
1061.4951171875	0.00833333333333333	1	-30	-8	1	0.8115234375
1064.595703125	0.00833333333333333	1	-30	-7	1	0.958984375
1068.0205078125	0.00833333333333333	1	-30	-6	2	1.23046875
1071.6123046875	0.00833333333333333	1	30	2	1	0.9990234375
1074.6201171875	0.00833333333333333	1	30	3	1	0.6865234375
1077.65234375	0.00833333333333333	1	-30	-12	1	0.8388671875
1080.6123046875	0.00833333333333333	1	30	4	1	0.52734375
1083.4033203125	0.00833333333333333	1	30	5	2	1.3359375
1086.919921875	0.00833333333333333	1	30	4	1	1.67578125
1091.103515625	0.00833333333333333	1	30	5	1	1.0283203125
1094.5537109375	0.00833333333333333	1	30	6	2	0.7861328125
1097.4453125	0.00833333333333333	1	30	5	1	0.8701171875
1100.64453125	0.00833333333333333	1	30	6	2	0.951171875
1104.103515625	0.00833333333333333	1	30	5	1	0.8125
1107.4033203125	0.00833333333333333	1	-30	-5.75	1	0.896484375
1110.5947265625	0.00833333333333333	1	-30	-5.625	1	1.201171875
1114.01953125	0.00833333333333333	1	-30	-6.75	1	1.48046875
1118.0029296875	0.00833333333333333	1	NaN	-0.5	1	0.8896484375
1121.24609375	0.00833333333333333	1	-30	-6.625	1	0.8388671875
1124.4267578125	0.00833333333333333	1	NaN	-1.5	1	1.001953125
1127.6533203125	0.00833333333333333	1	30	4.33333333333333	1	1.263671875
1131.185546875	0.00833333333333333	1	-30	-6.5	1	0.755859375
1134.203125	0.00833333333333333	1	-30	-5.5	1	0.5615234375
1137.0107421875	0.00833333333333333	1	30	4.45833333333333	2	1.5859375
1140.7529296875	0.00833333333333333	1	-30	-5.375	2	0.6923828125
1143.51953125	0.00833333333333333	1	NaN	-1.375	1	1.0615234375
1146.943359375	0.00833333333333333	1	30	4.33333333333333	2	0.7021484375
1149.7109375	0.00833333333333333	1	-30	-6.375	2	1.150390625
1153.001953125	0.00833333333333333	1	NaN	-1.25	1	0.8037109375
1156.1845703125	0.00833333333333333	1	NaN	-1.125	1	0.6767578125
1159.1025390625	0.00833333333333333	1	30	4.20833333333333	2	0.6474609375
1162.052734375	0.00833333333333333	1	30	4.08333333333333	1	0.689453125
1164.7939453125	0.00833333333333333	1	-30	-5.5	2	0.5400390625
1167.5107421875	0.00833333333333333	1	NaN	-1	1	0.455078125
1170.3095703125	0.00833333333333333	1	NaN	-0.875	1	0.384765625
1172.7021484375	0.00833333333333333	1	30	4.20833333333333	2	0.7998046875
1175.8017578125	0.00833333333333333	1	-30	-6.5	1	1.30078125
1179.41015625	0.00833333333333333	1	-30	-5.625	1	2.2763671875
1184.09375	0.00833333333333333	1	30	4.08333333333333	1	0.8564453125
1187.001953125	0.00833333333333333	1	-30	-5.5	1	0.869140625
1190.3505859375	0.00833333333333333	1	-30	-6.375	2	0.8486328125
1193.3681640625	0.00833333333333333	1	30	3.33333333333333	2	0.806640625
1196.5517578125	0.00833333333333333	1	30	3.20833333333333	1	0.638671875
1199.4755859375	0.00833333333333333	1	NaN	-0.375	1	0.7158203125
1202.3349609375	0.00833333333333333	1	-30	-6.5	2	0.8076171875
1241.6171875	0.00833333333333333	1	-30	-5.375	1	6.4072265625
1250.1591796875	0.00833333333333333	1	NaN	-0.75	1	1.169921875
1253.7255859375	0.00833333333333333	1	30	3.33333333333333	2	0.6513671875
1256.884765625	0.00833333333333333	1	NaN	-0.625	1	0.564453125
1259.80078125	0.00833333333333333	1	NaN	-0.5	1	0.5205078125
1262.67578125	0.00833333333333333	1	30	4.20833333333333	2	0.548828125
1265.7177734375	0.00833333333333333	1	30	3.20833333333333	2	0.3955078125
1268.451171875	0.00833333333333333	1	NaN	-0.25	1	0.6865234375
1271.6337890625	0.00833333333333333	1	NaN	-0.125	1	0.751953125
1274.7841796875	0.00833333333333333	1	-30	-5.25	2	0.7373046875
1278.0078125	0.00833333333333333	1	-30	-6.625	1	0.9697265625
1281.474609375	0.00833333333333333	1	NaN	0	1	0.7431640625
1284.67578125	0.00833333333333333	1	-30	-6.5	1	0.7255859375
1287.4833984375	0.00833333333333333	1	30	3.08333333333333	1	0.88671875
1290.7587890625	0.00833333333333333	1	NaN	-0.375	1	0.6435546875
1293.841796875	0.00833333333333333	1	30	3.20833333333333	2	0.7763671875
1296.7001953125	0.00833333333333333	1	-30	-5.375	1	0.685546875
1299.5751953125	0.00833333333333333	1	-30	-6.375	1	0.8271484375
1302.7744140625	0.00833333333333333	1	NaN	0.125	1	0.5556640625
1305.716796875	0.00833333333333333	1	-30	-5.25	1	0.869140625
1308.650390625	0.00833333333333333	1	NaN	0.25	1	0.6083984375
1311.6748046875	0.00833333333333333	1	30	3.08333333333333	1	0.7998046875
1314.5078125	0.00833333333333333	1	30	4.08333333333333	2	0.6953125
1317.400390625	0.00833333333333333	1	30	3.20833333333333	1	0.71484375
1320.3505859375	0.00833333333333333	1	NaN	0.375	1	0.6123046875
1323.0087890625	0.00833333333333333	1	-30	-5.125	2	0.5625
1326.0908203125	0.00833333333333333	1	NaN	0.5	1	0.591796875
1329.05859375	0.00833333333333333	1	NaN	0.625	1	0.48046875
1331.6240234375	0.00833333333333333	1	-30	-5.25	1	0.68359375
1334.650390625	0.00833333333333333	1	NaN	-0.25	1	0.560546875
1337.55859375	0.00833333333333333	1	NaN	0.75	1	0.3408203125
1340.2666015625	0.00833333333333333	1	-30	-6.25	1	0.7451171875
1343.0986328125	0.00833333333333333	1	30	3.95833333333333	1	0.537109375
1345.7666015625	0.00833333333333333	1	30	4.08333333333333	1	0.3896484375
1348.283203125	0.00833333333333333	1	NaN	-0.125	1	0.4326171875
1350.806640625	0.00833333333333333	1	-30	-6.125	2	1.125
1354.3828125	0.00833333333333333	1	30	4.20833333333333	2	0.796875
1357.19921875	0.00833333333333333	1	30	4.08333333333333	1	0.876953125
1360.3232421875	0.00833333333333333	1	-30	-5.125	1	0.96875
1363.615234375	0.00833333333333333	1	NaN	0.875	1	0.60546875
1366.2578125	0.00833333333333333	1	NaN	1	2	0.8349609375
1369.306640625	0.00833333333333333	1	30	4.20833333333333	2	0.73828125
1372.5078125	0.00833333333333333	1	30	4.08333333333333	1	0.7607421875
1375.3828125	0.00833333333333333	1	-30	-6.25	2	0.646484375
1378.19921875	0.00833333333333333	1	-30	-6.375	1	0.7255859375
1380.95703125	0.00833333333333333	1	-30	-5	1	1
1384.1728515625	0.00833333333333333	1	-30	-6.25	2	1.0478515625
1387.3828125	0.00833333333333333	1	NaN	0.875	1	0.8544921875
1390.490234375	0.00833333333333333	1	NaN	0	1	0.970703125
1393.9326171875	0.00833333333333333	1	30	3.33333333333333	1	1.1044921875
1397.2236328125	0.00833333333333333	1	NaN	0.125	1	0.6376953125
1400.03125	0.00833333333333333	1	30	3.45833333333333	1	0.6943359375
1402.7734375	0.00833333333333333	1	30	3.58333333333333	1	0.5439453125
1405.515625	0.00833333333333333	1	30	4.20833333333333	1	0.6904296875
1408.5234375	0.00833333333333333	1	-30	-6.375	1	0.6025390625
1411.2568359375	0.00833333333333333	1	-30	-6.25	1	1.1806640625
1414.822265625	0.00833333333333333	1	NaN	0.25	1	0.6796875
1417.58203125	0.00833333333333333	1	NaN	1	1	0.4716796875
1420.4892578125	0.00833333333333333	1	NaN	0.375	1	0.380859375
1422.873046875	0.00833333333333333	1	30	3.70833333333333	1	1.5810546875
1426.9814453125	0.00833333333333333	1	-30	-4.875	1	1.224609375
1430.298828125	0.00833333333333333	1	-30	-6.125	1	1.091796875
1433.7978515625	0.00833333333333333	1	-30	-6	2	1.640625
1437.9150390625	0.00833333333333333	1	30	3.83333333333333	1	0.6357421875
1440.939453125	0.00833333333333333	1	NaN	1.125	1	0.53125
1443.6396484375	0.00833333333333333	1	-30	-4.75	1	0.85546875
1446.6318359375	0.00833333333333333	1	30	4.33333333333333	2	0.7275390625
1449.8818359375	0.00833333333333333	1	-30	-6.125	1	0.94140625
1453.056640625	0.00833333333333333	1	30	3.95833333333333	1	0.7265625
1455.8564453125	0.00833333333333333	1	NaN	1.25	1	0.5830078125
1458.814453125	0.00833333333333333	1	NaN	0.5	1	0.544921875
1461.572265625	0.00833333333333333	1	-30	-6	1	0.8115234375
1464.4814453125	0.00833333333333333	1	30	4.20833333333333	1	0.6298828125
1467.255859375	0.00833333333333333	1	NaN	1.375	1	0.5361328125
1470.28125	0.00833333333333333	1	-30	-5.875	1	0.734375
1473.2060546875	0.00833333333333333	1	NaN	1.5	1	0.4423828125
1475.9228515625	0.00833333333333333	1	NaN	0.625	1	0.5810546875
1478.8388671875	0.00833333333333333	1	30	4.33333333333333	1	1.44140625
1482.296875	0.00833333333333333	1	30	4.08333333333333	1	0.943359375
1485.40625	0.00833333333333333	1	NaN	1.625	1	0.5302734375
1488.373046875	0.00833333333333333	1	NaN	0.75	1	0.4833984375
1491.0146484375	0.00833333333333333	1	NaN	0.875	1	0.3701171875
1493.8212890625	0.00833333333333333	1	30	4.45833333333333	1	0.33984375
1496.6396484375	0.00833333333333333	1	30	4.20833333333333	2	0.5771484375
1499.755859375	0.00833333333333333	1	30	4.08333333333333	2	0.7646484375
1502.9384765625	0.00833333333333333	1	30	3.95833333333333	2	1.173828125
1506.2392578125	0.00833333333333333	1	NaN	1	1	0.8173828125
1509.388671875	0.00833333333333333	1	NaN	1.75	2	1.32421875
1512.9560546875	0.00833333333333333	1	NaN	1.625	1	0.685546875
1515.74609375	0.00833333333333333	1	-30	-5.75	1	1.0712890625
1519.3125	0.00833333333333333	1	-30	-4.625	2	0.697265625
1522.3134765625	0.00833333333333333	1	30	4.58333333333333	1	0.8076171875
1525.5556640625	0.00833333333333333	1	NaN	1.75	1	0.6943359375
1528.572265625	0.00833333333333333	1	-30	-5.625	1	1.197265625
1531.8720703125	0.00833333333333333	1	30	4.70833333333333	2	0.5537109375
1534.5888671875	0.00833333333333333	1	NaN	1.125	1	2.1416015625
1538.9384765625	0.00833333333333333	1	30	3.83333333333333	2	0.703125
1605.037109375	0.00833333333333333	1	-30	-5.5	1	0.7587890625
1608.1796875	0.00833333333333333	1	NaN	1.25	1	0.8408203125
1611.5537109375	0.00833333333333333	1	30	4.58333333333333	2	0.6025390625
1614.3037109375	0.00833333333333333	1	-30	-5.375	2	0.9013671875
1617.3955078125	0.00833333333333333	1	NaN	1.875	2	0.8330078125
1620.662109375	0.00833333333333333	1	-30	-4.75	2	0.822265625
1623.9873046875	0.00833333333333333	1	30	3.70833333333333	1	1.505859375
1627.9453125	0.00833333333333333	1	30	4.45833333333333	2	0.6279296875
1630.63671875	0.00833333333333333	1	-30	-5.5	2	1.13671875
1634.287109375	0.00833333333333333	1	30	3.83333333333333	1	0.9423828125
1637.76171875	0.00833333333333333	1	-30	-5.625	2	0.603515625
1640.88671875	0.00833333333333333	1	NaN	1.375	2	0.7265625
1643.8037109375	0.00833333333333333	1	30	3.95833333333333	2	1.505859375
1647.4873046875	0.00833333333333333	1	30	3.83333333333333	1	0.92578125
1650.537109375	0.00833333333333333	1	NaN	1.75	2	1.1328125
1653.8701171875	0.00833333333333333	1	NaN	1.25	2	1.7119140625
1658.0205078125	0.00833333333333333	1	-30	-5.75	2	0.705078125
1661.0615234375	0.00833333333333333	1	-30	-4.875	2	0.625
1664.2275390625	0.00833333333333333	1	NaN	1.125	2	1.5947265625
1667.9287109375	0.00833333333333333	1	30	4.33333333333333	2	0.677734375
1670.8369140625	0.00833333333333333	1	-30	-5	2	0.5849609375
1673.5703125	0.00833333333333333	1	NaN	1.625	2	1.5078125
1677.419921875	0.00833333333333333	1	NaN	1.5	2	2.4189453125
1682.0615234375	0.00833333333333333	1	-30	-5.875	2	1.0009765625
1685.169921875	0.00833333333333333	1	NaN	1	2	2.0927734375
1689.7119140625	0.00833333333333333	1	-30	-5.125	2	0.7353515625
1692.9443359375	0.00833333333333333	1	NaN	1.375	2	1.8232421875
1697.2607421875	0.00833333333333333	1	NaN	1.25	2	1.162109375
1700.8359375	0.00833333333333333	1	30	4.20833333333333	2	0.5634765625
1703.65234375	0.00833333333333333	1	30	3.95833333333333	2	0.611328125
1706.7197265625	0.00833333333333333	1	NaN	1.125	2	1.5595703125
1710.509765625	0.00833333333333333	1	NaN	1	2	1.5458984375
1714.419921875	0.00833333333333333	1	NaN	0.875	2	0.916015625
1717.5029296875	0.00833333333333333	1	30	4.08333333333333	1	3.2177734375
1722.96875	0.00833333333333333	1	30	4.20833333333333	2	1.703125
1726.9521484375	0.00833333333333333	1	NaN	0.75	2	1.3603515625
1730.7021484375	0.00833333333333333	1	NaN	0.625	2	0.650390625
1733.427734375	0.00833333333333333	1	30	3.83333333333333	2	1.9970703125
1737.66796875	0.00833333333333333	1	NaN	0.875	1	2.1083984375
1742.134765625	0.00833333333333333	1	-30	-5.25	2	0.689453125
1745.09375	0.00833333333333333	1	NaN	1	1	2.02734375
1749.41015625	0.00833333333333333	1	-30	-6	2	2.3349609375
1754.0849609375	0.00833333333333333	1	NaN	0.5	2	0.8525390625
1757.2353515625	0.00833333333333333	1	-30	-5.375	2	0.677734375
1759.9521484375	0.00833333333333333	1	-30	-6.125	2	0.5927734375
1763.03515625	0.00833333333333333	1	NaN	1.125	2	1.494140625
1766.7021484375	0.00833333333333333	1	-30	-5.5	2	0.6591796875
1769.71875	0.00833333333333333	1	-30	-5.625	2	1.875
1774.0263671875	0.00833333333333333	1	-30	-5.75	2	0.7109375
1777.0263671875	0.00833333333333333	1	-30	-5.875	2	0.623046875
1780.1015625	0.00833333333333333	1	-30	-6	2	0.755859375
1783.2509765625	0.00833333333333333	1	NaN	1	2	1.0546875
1786.4599609375	0.00833333333333333	1	NaN	0.875	2	0.7666015625
1789.701171875	0.00833333333333333	1	-30	-6.125	2	0.6455078125
1792.8681640625	0.00833333333333333	1	-30	-6.25	2	0.59765625
1795.7919921875	0.00833333333333333	1	-30	-6.375	2	2.1708984375
1800.0419921875	0.00833333333333333	1	NaN	0.75	2	1.041015625
1803.3017578125	0.00833333333333333	1	-30	-6.5	2	1.453125
1807.326171875	0.00833333333333333	1	NaN	0.375	1	0.9404296875
1810.3427734375	0.00833333333333333	1	NaN	0.625	2	2.66796875
1815.443359375	0.00833333333333333	1	NaN	0.5	2	0.7041015625
1818.392578125	0.00833333333333333	1	30	3.70833333333333	2	0.73828125
1821.2763671875	0.00833333333333333	1	-30	-6.25	1	2.150390625
1825.966796875	0.00833333333333333	1	-30	-6.125	2	0.7568359375
1828.9169921875	0.00833333333333333	1	-30	-6.625	2	0.6064453125
1831.6083984375	0.00833333333333333	1	30	3.58333333333333	2	1.2509765625
1835.333984375	0.00833333333333333	1	-30	-6.25	1	2.23828125
1839.6513671875	0.00833333333333333	1	30	3.45833333333333	2	3.3525390625
1845.4755859375	0.00833333333333333	1	-30	-6.75	2	0.9765625
1848.6337890625	0.00833333333333333	1	30	3.33333333333333	2	0.970703125
1852.017578125	0.00833333333333333	1	NaN	0.375	1	3.283203125
1857.30859375	0.00833333333333333	1	30	3.20833333333333	2	1.0400390625
1860.4501953125	0.00833333333333333	1	NaN	0.5	2	3.138671875
1865.7841796875	0.00833333333333333	1	-30	-6.875	1	0.900390625
1868.7841796875	0.00833333333333333	1	NaN	0.5	1	3.4287109375
1874.408203125	0.00833333333333333	1	-30	-6.125	1	0.7490234375
1877.30078125	0.00833333333333333	1	-30	-6.75	1	1.400390625
1881.18359375	0.00833333333333333	1	-30	-6	2	1.701171875
1885.0166015625	0.00833333333333333	1	30	3.08333333333333	2	0.7568359375
1887.9833984375	0.00833333333333333	1	NaN	0.625	2	1.40625
1891.5087890625	0.00833333333333333	1	NaN	0.375	1	2.6005859375
1896.2666015625	0.00833333333333333	1	-30	-6.625	1	0.962890625
1899.2919921875	0.00833333333333333	1	NaN	0.5	2	1.7861328125
1903.4736328125	0.00833333333333333	1	30	2.95833333333333	2	0.6923828125
2161.021484375	0.00833333333333333	1	NaN	0.5	2	2.8251953125
2166.162109375	0.00833333333333333	1	NaN	0.375	2	1.46875
2170.1376953125	0.00833333333333333	1	NaN	0.375	2	0.716796875
2173.2958984375	0.00833333333333333	1	NaN	0.25	2	0.9423828125
2176.5458984375	0.00833333333333333	1	NaN	0.125	2	1.7255859375
2180.654296875	0.00833333333333333	1	NaN	0	2	0.705078125
2183.845703125	0.00833333333333333	1	30	2.83333333333333	1	1.337890625
2187.6123046875	0.00833333333333333	1	-30	-6.5	2	0.9072265625
2190.7373046875	0.00833333333333333	1	NaN	-0.125	2	1.1904296875
2194.12890625	0.00833333333333333	1	-30	-6.625	2	0.798828125
2197.1787109375	0.00833333333333333	1	30	2.95833333333333	1	1.31640625
2200.8203125	0.00833333333333333	1	30	3.08333333333333	1	1.8115234375
2204.970703125	0.00833333333333333	1	-30	-6.75	2	0.693359375
2207.6953125	0.00833333333333333	1	NaN	0.25	2	0.9765625
2211.1201171875	0.00833333333333333	1	30	3.20833333333333	1	0.8154296875
2214.3955078125	0.00833333333333333	1	NaN	-0.25	2	1.1328125
2217.787109375	0.00833333333333333	1	30	3.33333333333333	1	0.6611328125
2220.787109375	0.00833333333333333	1	30	3.45833333333333	1	0.6611328125
2223.9697265625	0.00833333333333333	1	-30	-6.875	2	0.6064453125
2226.978515625	0.00833333333333333	1	30	3.58333333333333	1	0.6455078125
2229.7109375	0.00833333333333333	1	NaN	0.125	2	0.6416015625
2232.728515625	0.00833333333333333	1	NaN	-0.375	2	1.1123046875
2236.044921875	0.00833333333333333	1	30	3.70833333333333	1	0.7802734375
2239.3115234375	0.00833333333333333	1	-30	-7	2	1.009765625
2242.7197265625	0.00833333333333333	1	-30	-7.125	2	0.7373046875
2245.76953125	0.00833333333333333	1	NaN	-0.5	2	0.8955078125
2249.0517578125	0.00833333333333333	1	NaN	-0.625	2	0.765625
2252.0947265625	0.00833333333333333	1	NaN	-0.75	2	0.6669921875
2254.9775390625	0.00833333333333333	1	30	3.83333333333333	1	0.6796875
2257.828125	0.00833333333333333	1	NaN	-0.875	1	1.2294921875
2261.52734375	0.00833333333333333	1	NaN	0	1	1.2822265625
2265.0947265625	0.00833333333333333	1	30	3.95833333333333	2	0.619140625
2267.9443359375	0.00833333333333333	1	NaN	-0.75	1	0.7216796875
2270.9609375	0.00833333333333333	1	NaN	0.125	1	1.705078125
2274.744140625	0.00833333333333333	1	NaN	-0.625	1	0.6416015625
2277.7861328125	0.00833333333333333	1	30	3.83333333333333	1	0.7763671875
2280.76953125	0.00833333333333333	1	NaN	-0.5	1	1.041015625
2284.2275390625	0.00833333333333333	1	-30	-7.25	1	0.8388671875
2287.15234375	0.00833333333333333	1	NaN	0.25	1	0.76171875
2290.369140625	0.00833333333333333	1	30	3.95833333333333	2	0.9453125
2293.65234375	0.00833333333333333	1	30	3.83333333333333	1	0.662109375
2296.40234375	0.00833333333333333	1	-30	-7.125	1	0.7919921875
2299.65234375	0.00833333333333333	1	-30	-7	2	0.7109375
2302.435546875	0.00833333333333333	1	NaN	0.375	2	0.6796875
2305.1845703125	0.00833333333333333	1	NaN	0.25	2	0.6748046875
2308.2021484375	0.00833333333333333	1	NaN	-0.375	1	1.0966796875
2311.4755859375	0.00833333333333333	1	NaN	0.125	1	1.0791015625
2315.0439453125	0.00833333333333333	1	NaN	-0.25	1	0.623046875
2317.8271484375	0.00833333333333333	1	NaN	0.25	1	0.7763671875
2320.984375	0.00833333333333333	1	NaN	0.375	1	0.947265625
2324.1103515625	0.00833333333333333	1	NaN	-0.125	1	0.8212890625
2327.28515625	0.00833333333333333	1	NaN	0.5	1	1.486328125
2330.943359375	0.00833333333333333	1	NaN	0.625	1	0.5888671875
2333.66796875	0.00833333333333333	1	-30	-7.125	2	0.6796875
2336.943359375	0.00833333333333333	1	-30	-7.25	1	1.236328125
2340.484375	0.00833333333333333	1	-30	-7.125	2	0.599609375
2343.6171875	0.00833333333333333	1	NaN	0.75	1	0.72265625
2346.7177734375	0.00833333333333333	1	NaN	0.875	2	0.56640625
2349.8095703125	0.00833333333333333	1	NaN	0	2	0.9384765625
2353.068359375	0.00833333333333333	1	-30	-7.25	2	0.6240234375
2356.2333984375	0.00833333333333333	1	-30	-7.375	2	0.8271484375
2359.451171875	0.00833333333333333	1	-30	-7.5	1	2.08203125
2363.7431640625	0.00833333333333333	1	NaN	-0.125	2	0.677734375
2366.826171875	0.00833333333333333	1	-30	-7.375	2	1.306640625
2370.4677734375	0.00833333333333333	1	NaN	0.75	2	0.6650390625
2373.6513671875	0.00833333333333333	1	NaN	-0.25	2	0.666015625
2376.451171875	0.00833333333333333	1	NaN	-0.375	1	1.06640625
2379.5595703125	0.00833333333333333	1	NaN	0.625	1	1.4619140625
2383.3583984375	0.00833333333333333	1	NaN	-0.25	1	1.9990234375
2387.6923828125	0.00833333333333333	1	NaN	0.75	2	0.7294921875
2390.55859375	0.00833333333333333	1	NaN	-0.125	1	1.0546875
2393.9423828125	0.00833333333333333	1	NaN	0.625	1	1.2314453125
2397.201171875	0.00833333333333333	1	NaN	0.75	1	1.052734375
2400.466796875	0.00833333333333333	1	NaN	0	1	0.7236328125
2403.333984375	0.00833333333333333	1	NaN	0.125	1	0.591796875
2405.9755859375	0.00833333333333333	1	NaN	0.25	1	0.3662109375
2408.7333984375	0.00833333333333333	1	NaN	0.875	1	0.361328125
2411.333984375	0.00833333333333333	1	NaN	1	1	0.3681640625
2414.1416015625	0.00833333333333333	1	NaN	0.375	1	0.44921875
2416.875	0.00833333333333333	1	NaN	0.5	1	0.3798828125
2419.68359375	0.00833333333333333	1	NaN	1.125	1	0.3310546875
2422.3916015625	0.00833333333333333	1	NaN	1.25	1	0.302734375
2424.8173828125	0.00833333333333333	1	NaN	1.375	1	0.5419921875
2427.5	0.00833333333333333	1	NaN	1.5	1	0.5234375
2430.5	0.00833333333333333	1	NaN	0.625	1	0.3388671875
2433.283203125	0.00833333333333333	1	NaN	1.625	1	0.419921875
2436.0498046875	0.00833333333333333	1	NaN	0.75	1	0.60546875
2439.19921875	0.00833333333333333	1	NaN	1.75	1	0.591796875
2442.0087890625	0.00833333333333333	1	NaN	1.875	1	0.5263671875
2444.5751953125	0.00833333333333333	1	NaN	0.875	1	0.3447265625
2447.173828125	0.00833333333333333	1	NaN	2	1	0.44921875
2449.7919921875	0.00833333333333333	1	NaN	1	1	0.7919921875
2452.93359375	0.00833333333333333	1	NaN	1.125	1	1.474609375
2456.724609375	0.00833333333333333	1	NaN	1.25	1	0.6435546875
2459.45703125	0.00833333333333333	1	NaN	2.125	1	0.638671875
2487.181640625	0.00833333333333333	1	NaN	2.25	2	1.1953125
2490.3984375	0.00833333333333333	1	NaN	1.375	2	0.5625
2493.365234375	0.00833333333333333	1	NaN	2.125	2	0.748046875
2496.5234375	0.00833333333333333	1	NaN	2	2	0.4541015625
2499.1982421875	0.00833333333333333	1	NaN	1.875	2	0.37890625
2501.564453125	0.00833333333333333	1	NaN	1.75	2	0.380859375
2504.0068359375	0.00833333333333333	1	NaN	1.625	2	0.3310546875
2506.7978515625	0.00833333333333333	1	NaN	1.5	2	0.35546875
2509.615234375	0.00833333333333333	1	NaN	1.375	2	0.39453125
2512.15625	0.00833333333333333	1	NaN	1.25	2	0.525390625
2515.1982421875	0.00833333333333333	1	NaN	1.125	2	0.5390625
2518.15625	0.00833333333333333	1	NaN	1	2	0.421875
2521.123046875	0.00833333333333333	1	NaN	1.25	2	0.279296875
2523.8310546875	0.00833333333333333	1	NaN	0.875	2	0.38671875
2526.5732421875	0.00833333333333333	1	NaN	0.75	2	0.4453125
2529.47265625	0.00833333333333333	1	NaN	1.125	2	0.78515625
2532.78125	0.00833333333333333	1	NaN	1	1	0.5009765625
2535.4638671875	0.00833333333333333	1	NaN	0.625	1	0.666015625
2538.689453125	0.00833333333333333	1	NaN	0.75	1	0.529296875
2541.447265625	0.00833333333333333	1	NaN	1.125	1	0.3232421875
2544.2724609375	0.00833333333333333	1	NaN	1.25	1	0.6337890625
2547.2978515625	0.00833333333333333	1	NaN	0.875	1	0.3525390625
2549.7060546875	0.00833333333333333	1	NaN	1	1	0.6171875
2552.5224609375	0.00833333333333333	1	NaN	1.125	1	0.3046875
2554.8720703125	0.00833333333333333	1	NaN	1.375	1	0.802734375
2557.755859375	0.00833333333333333	1	NaN	1.5	1	0.5595703125
2560.380859375	0.00833333333333333	1	NaN	1.25	1	0.333984375
2562.8056640625	0.00833333333333333	1	NaN	1.375	1	0.333984375
2565.23046875	0.00833333333333333	1	NaN	1.5	1	0.3564453125
2567.7646484375	0.00833333333333333	1	NaN	1.625	1	0.4306640625
2570.4638671875	0.00833333333333333	1	NaN	1.75	1	0.603515625
2573.5390625	0.00833333333333333	1	NaN	1.875	1	0.4326171875
2576.4140625	0.00833333333333333	1	NaN	2	1	0.75
2579.580078125	0.00833333333333333	1	NaN	1.625	1	0.447265625
2582.10546875	0.00833333333333333	1	NaN	1.75	1	0.9228515625
2585.15625	0.00833333333333333	1	NaN	2.125	1	0.4794921875
2587.7392578125	0.00833333333333333	1	NaN	2.25	1	0.5048828125
2590.763671875	0.00833333333333333	1	NaN	1.875	1	0.888671875
2593.98828125	0.00833333333333333	1	NaN	2	1	0.927734375
2597.396484375	0.00833333333333333	1	NaN	2.375	1	0.6962890625
2600.4462890625	0.00833333333333333	1	NaN	2.5	1	0.92578125
2603.8466796875	0.00833333333333333	1	NaN	2.625	1	0.58984375
2606.587890625	0.00833333333333333	1	NaN	2.125	1	0.705078125
2609.4130859375	0.00833333333333333	1	NaN	2.75	1	0.583984375
2612.5224609375	0.00833333333333333	1	NaN	2.875	1	0.9384765625
2615.6884765625	0.00833333333333333	1	NaN	3	2	2.0048828125
2620.0546875	0.00833333333333333	1	NaN	2.25	1	0.89453125
2623.330078125	0.00833333333333333	1	NaN	2.375	2	1.203125
2626.6376953125	0.00833333333333333	0	-30	-6.39375	1	1.3115234375
2630.2294921875	0.00833333333333333	0	30	4.00833333333333	2	0.8076171875
2633.1875	0.00833333333333333	0	-30	-6.39375	2	0.8583984375
2636.4130859375	0.00833333333333333	0	30	4.00833333333333	2	0.9765625
2639.8798828125	0.00833333333333333	0	30	4.00833333333333	2	0.7421875
2642.7041015625	0.00833333333333333	0	30	4.00833333333333	1	0.7734375
2645.49609375	0.00833333333333333	0	30	4.00833333333333	1	0.7744140625
2648.6962890625	0.00833333333333333	0	-30	-6.39375	2	0.669921875
2651.4462890625	0.00833333333333333	0	30	4.00833333333333	2	1.1435546875
2654.74609375	0.00833333333333333	0	30	4.00833333333333	1	1.01171875
2657.8544921875	0.00833333333333333	0	-30	-6.39375	2	0.5595703125
2660.6962890625	0.00833333333333333	0	30	4.00833333333333	2	0.662109375
2663.720703125	0.00833333333333333	0	30	4.00833333333333	1	2.333984375
2668.4375	0.00833333333333333	0	-30	-6.39375	2	0.5849609375
2671.4208984375	0.00833333333333333	0	30	4.00833333333333	2	1.3857421875
2675.171875	0.00833333333333333	0	-30	-6.39375	1	1.02734375
2678.3291015625	0.00833333333333333	0	-30	-6.39375	1	1.3095703125
2682.0791015625	0.00833333333333333	0	30	4.00833333333333	1	1.0078125
2685.1201171875	0.00833333333333333	0	-30	-6.39375	2	0.71875
2688.103515625	0.00833333333333333	0	-30	-6.39375	2	0.83984375
2691.353515625	0.00833333333333333	0	-30	-6.39375	1	1.59765625
2695.1796875	0.00833333333333333	0	30	4.00833333333333	1	0.6923828125
2698.345703125	0.00833333333333333	0	30	4.00833333333333	2	0.6298828125
2701.4287109375	0.00833333333333333	0	-30	-6.39375	2	0.787109375
2704.544921875	0.00833333333333333	0	-30	-6.39375	2	0.6064453125
2707.412109375	0.00833333333333333	0	30	4.00833333333333	1	0.8916015625
2710.6455078125	0.00833333333333333	0	30	4.00833333333333	1	0.787109375
2713.9453125	0.00833333333333333	0	30	4.00833333333333	2	0.630859375
2716.7705078125	0.00833333333333333	0	30	4.00833333333333	2	0.6943359375
2720.029296875	0.00833333333333333	0	-30	-6.39375	2	1.1552734375
2723.5615234375	0.00833333333333333	0	-30	-6.39375	2	0.55078125
2726.328125	0.00833333333333333	0	-30	-6.39375	2	0.896484375
2729.4365234375	0.00833333333333333	0	30	4.00833333333333	2	1.2119140625
2732.89453125	0.00833333333333333	0	-30	-6.51875	2	0.5380859375
2735.8779296875	0.00833333333333333	0	-30	-6.51875	2	0.642578125
2738.828125	0.00833333333333333	0	-30	-6.51875	2	0.6845703125
2741.9697265625	0.00833333333333333	0	-30	-6.51875	2	0.5673828125
2744.6201171875	0.00833333333333333	0	-30	-6.51875	2	0.62109375
2747.7529296875	0.00833333333333333	0	30	4.00833333333333	2	0.671875
2750.7197265625	0.00833333333333333	0	30	4.00833333333333	2	0.666015625
2753.828125	0.00833333333333333	0	30	3.88333333333333	1	1.029296875
2757.1787109375	0.00833333333333333	0	30	3.88333333333333	2	0.8310546875
2760.369140625	0.00833333333333333	0	30	3.88333333333333	2	0.65625
2763.203125	0.00833333333333333	0	-30	-6.64375	2	0.6064453125
2766.02734375	0.00833333333333333	0	-30	-6.64375	2	0.7109375
2768.8447265625	0.00833333333333333	0	30	3.88333333333333	2	0.6455078125
2771.935546875	0.00833333333333333	0	-30	-6.64375	2	0.5703125
2774.8525390625	0.00833333333333333	0	30	3.88333333333333	2	0.669921875
2777.8603515625	0.00833333333333333	0	-30	-6.64375	2	0.57421875
2780.5185546875	0.00833333333333333	0	30	3.88333333333333	2	0.7236328125
2783.5693359375	0.00833333333333333	0	30	3.75833333333333	2	0.80078125
2786.619140625	0.00833333333333333	0	30	3.75833333333333	2	1.5595703125
2790.3857421875	0.00833333333333333	0	-30	-6.64375	2	0.6171875
2793.2197265625	0.00833333333333333	0	-30	-6.76875	1	1.111328125
2796.4189453125	0.00833333333333333	0	-30	-6.76875	2	1.5517578125
2800.2119140625	0.00833333333333333	0	-30	-6.76875	1	0.9990234375
2803.2861328125	0.00833333333333333	0	-30	-6.76875	1	1.1728515625
2806.9521484375	0.00833333333333333	0	-30	-6.76875	1	1.2431640625
2810.40234375	0.00833333333333333	0	30	3.75833333333333	1	0.79296875
2813.4697265625	0.00833333333333333	0	-30	-6.76875	1	0.75
2816.4765625	0.00833333333333333	0	-30	-6.76875	2	1.0224609375
2819.751953125	0.00833333333333333	0	30	3.75833333333333	2	0.8193359375
2822.7021484375	0.00833333333333333	0	30	3.75833333333333	2	0.6611328125
2825.6513671875	0.00833333333333333	0	-30	-6.76875	2	0.6806640625
2828.634765625	0.00833333333333333	0	30	3.75833333333333	1	1.048828125
2831.8603515625	0.00833333333333333	0	30	3.75833333333333	2	0.775390625
2835.1435546875	0.00833333333333333	0	30	3.75833333333333	2	0.64453125
2838.076171875	0.00833333333333333	0	30	3.75833333333333	2	0.3603515625
2840.66015625	0.00833333333333333	0	30	3.75833333333333	2	0.6318359375
2843.751953125	0.00833333333333333	0	-30	-6.76875	2	0.66015625
2846.9765625	0.00833333333333333	0	-30	-6.76875	1	1.419921875
2850.41796875	0.00833333333333333	0	30	3.75833333333333	2	0.9150390625
2853.7509765625	0.00833333333333333	0	-30	-6.76875	2	0.998046875
2856.943359375	0.00833333333333333	0	30	3.63333333333333	2	0.7978515625
2860.16796875	0.00833333333333333	0	-30	-6.76875	2	0.8447265625
2863.1513671875	0.00833333333333333	0	30	3.63333333333333	1	1.0693359375
2866.42578125	0.00833333333333333	0	-30	-6.76875	1	0.955078125
2869.884765625	0.00833333333333333	0	30	3.63333333333333	2	0.7841796875
2872.734375	0.00833333333333333	0	-30	-6.76875	1	0.87890625
2875.8095703125	0.00833333333333333	0	30	3.63333333333333	2	0.740234375
3036.2822265625	0.00833333333333333	0	30	3.63333333333333	1	1.736328125
3040.3154296875	0.00833333333333333	0	-30	-6.76875	2	0.8310546875
3043.6240234375	0.00833333333333333	0	30	3.63333333333333	2	1.146484375
3047.1982421875	0.00833333333333333	0	-30	-6.76875	2	0.61328125
3050.08203125	0.00833333333333333	0	-30	-6.76875	2	0.873046875
3053.19921875	0.00833333333333333	0	30	3.63333333333333	1	0.7958984375
3056.548828125	0.00833333333333333	0	-30	-6.76875	2	0.5908203125
3059.2734375	0.00833333333333333	0	-30	-6.76875	2	0.5859375
3062.1318359375	0.00833333333333333	0	30	3.63333333333333	1	0.6796875
3064.9150390625	0.00833333333333333	0	30	3.63333333333333	1	0.6484375
3067.90625	0.00833333333333333	0	-30	-6.89375	2	0.59375
3070.90625	0.00833333333333333	0	30	3.63333333333333	1	0.689453125
3073.681640625	0.00833333333333333	0	-30	-6.89375	2	0.6181640625
3076.564453125	0.00833333333333333	0	30	3.63333333333333	2	0.6953125
3079.3310546875	0.00833333333333333	0	30	3.63333333333333	1	0.865234375
3082.40625	0.00833333333333333	0	-30	-6.89375	2	0.6142578125
3085.5146484375	0.00833333333333333	0	-30	-6.89375	2	0.6337890625
3088.4892578125	0.00833333333333333	0	-30	-6.89375	2	0.7392578125
3091.3232421875	0.00833333333333333	0	-30	-7.01875	2	0.544921875
3094.1640625	0.00833333333333333	0	30	3.63333333333333	1	0.9921875
3097.59765625	0.00833333333333333	0	30	3.63333333333333	1	0.71875
3100.373046875	0.00833333333333333	0	30	3.63333333333333	1	0.9921875
3103.4228515625	0.00833333333333333	0	30	3.63333333333333	1	0.7099609375
3106.40625	0.00833333333333333	0	-30	-7.01875	2	0.6865234375
3109.3896484375	0.00833333333333333	0	30	3.75833333333333	1	0.9755859375
3112.5224609375	0.00833333333333333	0	-30	-7.01875	2	1.4189453125
3116.2060546875	0.00833333333333333	0	30	3.75833333333333	1	1.3115234375
3119.97265625	0.00833333333333333	0	30	3.75833333333333	1	0.78515625
3122.9892578125	0.00833333333333333	0	-30	-7.01875	2	0.583984375
3125.98046875	0.00833333333333333	0	-30	-7.01875	2	0.8974609375
3129.10546875	0.00833333333333333	0	30	3.75833333333333	2	0.66796875
3132.3388671875	0.00833333333333333	0	-30	-7.14375	2	0.7548828125
3135.4384765625	0.00833333333333333	0	-30	-7.14375	2	0.8232421875
3138.2802734375	0.00833333333333333	0	-30	-7.14375	2	0.58984375
3141.2060546875	0.00833333333333333	0	30	3.75833333333333	2	0.7998046875
3144.080078125	0.00833333333333333	0	-30	-7.14375	2	0.7744140625
3147.080078125	0.00833333333333333	0	-30	-7.14375	2	0.654296875
3149.9970703125	0.00833333333333333	0	-30	-7.26875	2	0.865234375
3152.9638671875	0.00833333333333333	0	30	3.75833333333333	2	0.6103515625
3155.9306640625	0.00833333333333333	0	-30	-7.26875	2	0.908203125
3158.9638671875	0.00833333333333333	0	30	3.75833333333333	1	0.9873046875
3162.3388671875	0.00833333333333333	0	-30	-7.26875	2	0.65234375
3165.3388671875	0.00833333333333333	0	-30	-7.26875	2	0.916015625
3168.513671875	0.00833333333333333	0	-30	-7.26875	2	1.3173828125
3171.9716796875	0.00833333333333333	0	-30	-7.39375	2	0.70703125
3174.796875	0.00833333333333333	0	30	3.75833333333333	1	0.9306640625
3177.771484375	0.00833333333333333	0	-30	-7.39375	2	0.587890625
3180.6630859375	0.00833333333333333	0	30	3.75833333333333	2	0.640625
3183.380859375	0.00833333333333333	0	-30	-7.39375	2	0.7783203125
3186.580078125	0.00833333333333333	0	30	3.75833333333333	2	0.5078125
3189.3134765625	0.00833333333333333	0	30	3.75833333333333	1	0.7177734375
3192.2392578125	0.00833333333333333	0	30	3.75833333333333	1	0.904296875
3195.521484375	0.00833333333333333	0	30	3.75833333333333	2	0.630859375
3198.3798828125	0.00833333333333333	0	-30	-7.39375	2	1.1240234375
3201.5712890625	0.00833333333333333	0	30	3.75833333333333	1	1.3408203125
3205.3876953125	0.00833333333333333	0	30	3.75833333333333	1	0.8447265625
3208.4130859375	0.00833333333333333	0	30	3.75833333333333	2	1.443359375
3211.8876953125	0.00833333333333333	0	30	3.75833333333333	2	1.15234375
3215.2802734375	0.00833333333333333	0	30	3.75833333333333	1	0.7041015625
3218.24609375	0.00833333333333333	0	30	3.75833333333333	1	0.7470703125
3221.12890625	0.00833333333333333	0	30	3.75833333333333	1	0.9599609375
3224.3623046875	0.00833333333333333	0	30	3.75833333333333	2	0.7109375
3227.095703125	0.00833333333333333	0	-30	-7.39375	1	0.7373046875
3230.0966796875	0.00833333333333333	0	30	3.75833333333333	1	0.7763671875
3233.25390625	0.00833333333333333	0	-30	-7.39375	1	0.8349609375
3236.3876953125	0.00833333333333333	0	30	3.75833333333333	2	0.9970703125
3239.6787109375	0.00833333333333333	0	30	3.75833333333333	2	0.73828125
3242.5380859375	0.00833333333333333	0	-30	-7.39375	1	0.7275390625
3245.4208984375	0.00833333333333333	0	-30	-7.39375	1	0.63671875
3248.1376953125	0.00833333333333333	0	-30	-7.39375	1	0.6162109375
3251.212890625	0.00833333333333333	0	-30	-7.26875	2	0.7568359375
3254.2783203125	0.00833333333333333	0	-30	-7.26875	2	1.36328125
3257.6875	0.00833333333333333	0	30	3.75833333333333	1	0.8427734375
3260.5791015625	0.00833333333333333	0	30	3.75833333333333	1	0.87109375
3263.7451171875	0.00833333333333333	0	30	3.75833333333333	2	0.552734375
3266.712890625	0.00833333333333333	0	30	3.75833333333333	2	0.7373046875
3269.595703125	0.00833333333333333	0	-30	-7.26875	2	1.3828125
3273.12890625	0.00833333333333333	0	-30	-7.26875	1	0.6494140625
3276.2119140625	0.00833333333333333	0	30	3.75833333333333	2	0.654296875
3279.3544921875	0.00833333333333333	0	-30	-7.26875	1	0.6396484375
3292.6201171875	0.00833333333333333	0	30	3.75833333333333	2	12.3349609375
3307.3359375	0.00833333333333333	0	-30	-7.26875	1	0.9072265625
3310.353515625	0.00833333333333333	0	-30	-7.26875	1	0.8662109375
3313.2861328125	0.00833333333333333	0	-30	-7.26875	1	0.9658203125
3316.7109375	0.00833333333333333	0	-30	-7.14375	1	0.7724609375
3319.6357421875	0.00833333333333333	0	30	3.75833333333333	2	1.1279296875
3323.078125	0.00833333333333333	0	30	3.63333333333333	2	0.662109375
3326.2109375	0.00833333333333333	0	-30	-7.14375	2	0.79296875
3329.40234375	0.00833333333333333	0	-30	-7.14375	1	1.2978515625
3333.1865234375	0.00833333333333333	0	-30	-7.14375	1	1.09765625
3336.6357421875	0.00833333333333333	0	30	3.63333333333333	2	1.1611328125
3339.9033203125	0.00833333333333333	0	30	3.63333333333333	2	0.8056640625
3342.8115234375	0.00833333333333333	0	30	3.63333333333333	1	0.689453125
3345.9521484375	0.00833333333333333	0	-30	-7.14375	1	0.6845703125
3348.96875	0.00833333333333333	0	30	3.63333333333333	2	0.6923828125
3351.8271484375	0.00833333333333333	0	30	3.63333333333333	2	0.7294921875
3355.0439453125	0.00833333333333333	0	-30	-7.14375	1	1.0732421875
3358.46875	0.00833333333333333	0	-30	-7.14375	1	0.7529296875
3361.494140625	0.00833333333333333	0	-30	-7.01875	1	0.638671875
3364.6357421875	0.00833333333333333	0	30	3.63333333333333	2	1.43359375
3368.09375	0.00833333333333333	0	-30	-7.01875	1	0.8876953125
3371.34375	0.00833333333333333	0	-30	-7.01875	1	0.822265625
3374.244140625	0.00833333333333333	0	-30	-7.01875	1	0.8173828125
3377.2197265625	0.00833333333333333	0	-30	-7.01875	1	0.8818359375
3380.2685546875	0.00833333333333333	0	30	3.63333333333333	1	0.818359375
3383.1767578125	0.00833333333333333	0	30	3.63333333333333	1	1.349609375
3386.7685546875	0.00833333333333333	0	30	3.63333333333333	2	0.6220703125
3389.7265625	0.00833333333333333	0	30	3.63333333333333	2	1.0322265625
3393.28515625	0.00833333333333333	0	-30	-6.89375	1	0.681640625
3396.3935546875	0.00833333333333333	0	-30	-6.89375	1	1.205078125
3399.96875	0.00833333333333333	0	-30	-6.89375	2	1.1181640625
3403.244140625	0.00833333333333333	0	-30	-6.89375	2	1.0830078125
3406.443359375	0.00833333333333333	0	-30	-6.89375	1	0.8115234375
3409.7099609375	0.00833333333333333	0	30	3.63333333333333	2	0.5849609375
3412.3935546875	0.00833333333333333	0	30	3.63333333333333	2	0.6376953125
3415.2685546875	0.00833333333333333	0	-30	-6.89375	2	1.2509765625
3418.76953125	0.00833333333333333	0	30	3.63333333333333	2	0.8056640625
3421.7099609375	0.00833333333333333	0	-30	-6.89375	1	0.873046875
3424.9599609375	0.00833333333333333	0	30	3.50833333333333	2	0.9033203125
3428.0263671875	0.00833333333333333	0	30	3.50833333333333	2	0.7412109375
3430.9345703125	0.00833333333333333	0	30	3.50833333333333	1	1.1767578125
3434.509765625	0.00833333333333333	0	-30	-6.89375	1	2.001953125
3438.7939453125	0.00833333333333333	0	30	3.50833333333333	2	0.677734375
3441.5849609375	0.00833333333333333	0	-30	-6.89375	1	1.0947265625
3445.1767578125	0.00833333333333333	0	30	3.50833333333333	2	0.6875
3448.3671875	0.00833333333333333	0	30	3.50833333333333	1	2.265625
3452.650390625	0.00833333333333333	0	-30	-6.89375	1	0.677734375
3455.66015625	0.00833333333333333	0	-30	-6.89375	1	0.7802734375
3458.54296875	0.00833333333333333	0	-30	-6.76875	1	1.2177734375
3462.16796875	0.00833333333333333	0	30	3.50833333333333	1	0.953125
3465.525390625	0.00833333333333333	0	30	3.50833333333333	1	1.0908203125
3468.8427734375	0.00833333333333333	0	-30	-6.76875	1	0.765625
3471.80078125	0.00833333333333333	0	-30	-6.76875	1	0.591796875
3474.6171875	0.00833333333333333	0	30	3.50833333333333	2	1.0244140625
3477.7421875	0.00833333333333333	0	-30	-6.76875	2	0.8271484375
3481.1005859375	0.00833333333333333	0	30	3.50833333333333	2	0.6689453125
3483.9833984375	0.00833333333333333	0	-30	-6.76875	2	0.578125
3487.0263671875	0.00833333333333333	0	30	3.50833333333333	2	0.638671875
3489.7666015625	0.00833333333333333	0	30	3.50833333333333	2	0.546875
3492.7177734375	0.00833333333333333	0	-30	-6.76875	1	0.6923828125
3495.80859375	0.00833333333333333	0	30	3.50833333333333	2	0.5849609375
3498.5498046875	0.00833333333333333	0	-30	-6.76875	1	0.6201171875
3501.4248046875	0.00833333333333333	0	30	3.38333333333333	2	0.5205078125
3504.2509765625	0.00833333333333333	0	30	3.38333333333333	2	0.5986328125
3507.2587890625	0.00833333333333333	0	-30	-6.76875	1	0.5751953125
3510.0751953125	0.00833333333333333	0	-30	-6.76875	1	0.5830078125
3512.7333984375	0.00833333333333333	0	30	3.38333333333333	2	0.5810546875
3515.4423828125	0.00833333333333333	0	-30	-6.76875	1	0.4482421875
3518.3173828125	0.00833333333333333	0	30	3.38333333333333	2	0.5810546875
3521.0166015625	0.00833333333333333	0	30	3.38333333333333	2	0.6015625
3524.1162109375	0.00833333333333333	0	30	3.25833333333333	2	0.478515625
3526.708984375	0.00833333333333333	0	30	3.25833333333333	2	0.5498046875
3529.75	0.00833333333333333	0	-30	-6.64375	1	0.5966796875
3532.708984375	0.00833333333333333	0	-30	-6.64375	1	0.6298828125
3535.392578125	0.00833333333333333	0	30	3.25833333333333	2	0.810546875
3538.3759765625	0.00833333333333333	0	30	3.25833333333333	2	0.970703125
3541.6005859375	0.00833333333333333	0	30	3.25833333333333	2	0.578125
3544.55078125	0.00833333333333333	0	-30	-6.64375	1	0.62890625
3547.708984375	0.00833333333333333	0	-30	-6.64375	1	0.798828125
3550.6416015625	0.00833333333333333	0	-30	-6.64375	1	0.76171875
3560.9833984375	0.00833333333333333	0	-30	-6.51875	1	0.908203125
3564.091796875	0.00833333333333333	0	30	3.13333333333333	2	0.671875
3566.900390625	0.00833333333333333	0	-30	-6.51875	1	1.111328125
3570.216796875	0.00833333333333333	0	-30	-6.51875	1	0.4755859375
3573.2421875	0.00833333333333333	0	-30	-6.51875	1	0.658203125
3576	0.00833333333333333	0	-30	-6.51875	1	0.5478515625
3578.7080078125	0.00833333333333333	0	30	3.13333333333333	2	0.6083984375
3581.375	0.00833333333333333	0	30	3.13333333333333	2	0.58984375
3584.06640625	0.00833333333333333	0	30	3.13333333333333	2	0.8984375
3587.0830078125	0.00833333333333333	0	-30	-6.39375	1	0.681640625
3589.875	0.00833333333333333	0	30	3.13333333333333	2	0.5537109375
3592.7998046875	0.00833333333333333	0	-30	-6.39375	1	0.6689453125
3595.533203125	0.00833333333333333	0	30	3.00833333333333	2	1.7275390625
3599.5576171875	0.00833333333333333	0	-30	-6.39375	1	0.6953125
3602.4248046875	0.00833333333333333	0	30	3.00833333333333	2	0.755859375
3605.4912109375	0.00833333333333333	0	30	3.00833333333333	2	1.2021484375
3609.0830078125	0.00833333333333333	0	30	3.00833333333333	2	0.9140625
3612.19140625	0.00833333333333333	0	-30	-6.39375	1	0.814453125
3615.2412109375	0.00833333333333333	0	30	3.00833333333333	2	0.63671875
3617.9912109375	0.00833333333333333	0	-30	-6.39375	1	2.142578125
3622.541015625	0.00833333333333333	0	30	2.88333333333333	2	0.728515625
3625.69921875	0.00833333333333333	0	30	2.88333333333333	2	1.1865234375
3629.3330078125	0.00833333333333333	0	30	2.88333333333333	2	0.625
3632.33203125	0.00833333333333333	0	30	2.88333333333333	1	1.07421875
3635.69921875	0.00833333333333333	0	30	2.88333333333333	2	0.9794921875
3639.1904296875	0.00833333333333333	0	-30	-6.26875	1	1.7841796875
3643.3662109375	0.00833333333333333	0	-30	-6.26875	1	0.8564453125
3646.6904296875	0.00833333333333333	0	30	2.88333333333333	2	0.724609375
3649.95703125	0.00833333333333333	0	30	2.88333333333333	1	0.9775390625
3653.3408203125	0.00833333333333333	0	30	2.88333333333333	2	0.681640625
3656.298828125	0.00833333333333333	0	-30	-6.26875	2	0.740234375
3659.3564453125	0.00833333333333333	0	30	2.88333333333333	2	0.5146484375
3662.265625	0.00833333333333333	0	30	2.88333333333333	2	0.7099609375
3665.2822265625	0.00833333333333333	0	-30	-6.26875	2	0.693359375
3668.265625	0.00833333333333333	0	-30	-6.26875	1	0.7099609375
3671.2734375	0.00833333333333333	0	-30	-6.26875	2	0.8857421875
3674.4150390625	0.00833333333333333	0	-30	-6.26875	1	0.8642578125
3677.6982421875	0.00833333333333333	0	30	2.88333333333333	1	0.7177734375
3680.556640625	0.00833333333333333	0	-30	-6.26875	1	0.8427734375
3683.5234375	0.00833333333333333	0	30	2.88333333333333	2	1.076171875
3687.0810546875	0.00833333333333333	0	30	2.88333333333333	2	0.951171875
3690.373046875	0.00833333333333333	0	30	2.88333333333333	1	1.203125
3693.7568359375	0.00833333333333333	0	30	2.88333333333333	2	1.5078125
3697.681640625	0.00833333333333333	0	-30	-6.26875	1	0.791015625
3700.6220703125	0.00833333333333333	0	30	2.88333333333333	2	1.25
3704.1806640625	0.00833333333333333	0	-30	-6.26875	2	1.65234375
3708.056640625	0.00833333333333333	0	-30	-6.26875	2	0.83984375
3711.115234375	0.00833333333333333	0	30	2.88333333333333	2	0.7412109375
3714.255859375	0.00833333333333333	0	30	2.88333333333333	1	0.880859375
3717.2978515625	0.00833333333333333	0	30	2.88333333333333	1	1.783203125
3721.4482421875	0.00833333333333333	0	-30	-6.26875	1	0.896484375
3724.90625	0.00833333333333333	0	30	2.88333333333333	2	0.6875
3728.0390625	0.00833333333333333	0	-30	-6.26875	2	1.08203125
3731.4052734375	0.00833333333333333	0	30	2.88333333333333	2	0.7802734375
3734.322265625	0.00833333333333333	0	-30	-6.26875	2	1.4072265625
3738.146484375	0.00833333333333333	0	-30	-6.26875	1	1.767578125
3742.1396484375	0.00833333333333333	0	30	2.88333333333333	2	0.7666015625
3745.10546875	0.00833333333333333	0	30	2.88333333333333	2	1.96875
3749.2470703125	0.00833333333333333	0	-30	-6.26875	1	0.68359375
3752.1728515625	0.00833333333333333	0	-30	-6.26875	1	0.876953125
3755.564453125	0.00833333333333333	0	30	2.88333333333333	1	0.853515625
3758.61328125	0.00833333333333333	0	30	2.88333333333333	2	0.8447265625
3761.630859375	0.00833333333333333	0	-30	-6.26875	2	1.0439453125
3764.9970703125	0.00833333333333333	0	-30	-6.26875	2	0.94140625
3768.171875	0.00833333333333333	0	30	2.88333333333333	2	0.7666015625
3771.296875	0.00833333333333333	0	-30	-6.26875	2	1.521484375
3774.9892578125	0.00833333333333333	0	30	2.88333333333333	2	0.708984375
3778.197265625	0.00833333333333333	0	30	2.88333333333333	2	1.26171875
3781.830078125	0.00833333333333333	0	30	2.88333333333333	2	0.5966796875
3784.85546875	0.00833333333333333	0	30	2.75833333333333	2	1.1953125
3788.205078125	0.00833333333333333	0	-30	-6.26875	1	0.7666015625
3791.3134765625	0.00833333333333333	0	30	2.75833333333333	2	1.4658203125
3795.1806640625	0.00833333333333333	0	30	2.75833333333333	2	0.638671875
3798.013671875	0.00833333333333333	0	-30	-6.26875	1	0.9580078125
3801.521484375	0.00833333333333333	0	30	2.75833333333333	2	0.73828125
3804.5302734375	0.00833333333333333	0	-30	-6.26875	1	0.673828125
3807.2548828125	0.00833333333333333	0	30	2.75833333333333	2	1.5244140625
3811.2470703125	0.00833333333333333	0	-30	-6.26875	2	0.96484375
3814.6953125	0.00833333333333333	0	30	2.63333333333333	1	1.4765625
3818.263671875	0.00833333333333333	0	-30	-6.26875	1	0.724609375
3975.1943359375	0.00833333333333333	0	-30	-6.26875	2	0.9267578125
3978.2939453125	0.00833333333333333	0	30	2.63333333333333	2	0.779296875
3981.4521484375	0.00833333333333333	0	-30	-6.26875	2	0.845703125
3984.5859375	0.00833333333333333	0	-30	-6.26875	2	0.83984375
3987.7607421875	0.00833333333333333	0	-30	-6.26875	1	1.1533203125
3991.1943359375	0.00833333333333333	0	-30	-6.26875	1	0.7197265625
3994.376953125	0.00833333333333333	0	-30	-6.26875	1	0.9287109375
3997.560546875	0.00833333333333333	0	-30	-6.26875	1	0.666015625
4000.27734375	0.00833333333333333	0	30	2.63333333333333	1	1.564453125
4004.1181640625	0.00833333333333333	0	-30	-6.26875	1	0.5244140625
4006.810546875	0.00833333333333333	0	30	2.63333333333333	1	1.0078125
4010.1181640625	0.00833333333333333	0	-30	-6.14375	1	0.6845703125
4013.1015625	0.00833333333333333	0	30	2.63333333333333	1	0.5810546875
4016.193359375	0.00833333333333333	0	30	2.63333333333333	2	1.009765625
4019.59375	0.00833333333333333	0	-30	-6.14375	1	0.697265625
4022.3271484375	0.00833333333333333	0	30	2.63333333333333	2	0.755859375
4025.384765625	0.00833333333333333	0	30	2.63333333333333	2	0.9296875
4028.7763671875	0.00833333333333333	0	-30	-6.14375	1	0.787109375
4031.6181640625	0.00833333333333333	0	-30	-6.14375	1	0.6806640625
4034.6015625	0.00833333333333333	0	-30	-6.14375	1	0.7939453125
4037.9013671875	0.00833333333333333	0	-30	-6.01875	1	0.662109375
4040.9765625	0.00833333333333333	0	-30	-6.01875	1	0.859375
4044.1513671875	0.00833333333333333	0	30	2.63333333333333	2	1.4599609375
4047.7099609375	0.00833333333333333	0	-30	-6.01875	1	0.861328125
4050.9677734375	0.00833333333333333	0	-30	-6.01875	2	0.7724609375
4054.0009765625	0.00833333333333333	0	30	2.63333333333333	2	0.771484375
4057.259765625	0.00833333333333333	0	-30	-6.01875	1	0.7041015625
4060.29296875	0.00833333333333333	0	-30	-6.01875	1	0.7353515625
4063.18359375	0.00833333333333333	0	-30	-6.01875	1	1.3720703125
4066.833984375	0.00833333333333333	0	30	2.50833333333333	1	0.7626953125
4069.650390625	0.00833333333333333	0	30	2.50833333333333	2	0.666015625
4072.8837890625	0.00833333333333333	0	30	2.50833333333333	2	0.640625
4076.025390625	0.00833333333333333	0	30	2.50833333333333	2	0.5869140625
4079.0830078125	0.00833333333333333	0	-30	-6.01875	1	0.953125
4082.599609375	0.00833333333333333	0	-30	-6.01875	2	1.701171875
4086.6083984375	0.00833333333333333	0	-30	-6.01875	2	1.3330078125
4090.4755859375	0.00833333333333333	0	-30	-6.01875	2	0.8896484375
4093.55859375	0.00833333333333333	0	30	2.50833333333333	2	0.6708984375
4096.3837890625	0.00833333333333333	0	-30	-6.01875	1	0.7978515625
4099.484375	0.00833333333333333	0	30	2.50833333333333	2	0.5537109375
4102.150390625	0.00833333333333333	0	30	2.38333333333333	2	0.5107421875
4105.125	0.00833333333333333	0	30	2.38333333333333	1	1.072265625
4108.6337890625	0.00833333333333333	0	30	2.38333333333333	1	0.68359375
4111.4501953125	0.00833333333333333	0	-30	-6.01875	1	0.6357421875
4114.4501953125	0.00833333333333333	0	30	2.38333333333333	2	0.6201171875
4117.607421875	0.00833333333333333	0	30	2.38333333333333	2	0.7265625
4120.783203125	0.00833333333333333	0	30	2.38333333333333	2	0.646484375
4123.775390625	0.00833333333333333	0	-30	-6.01875	2	1.3583984375
4127.2998046875	0.00833333333333333	0	30	2.38333333333333	2	0.6748046875
4130.0166015625	0.00833333333333333	0	-30	-6.01875	2	0.669921875
4133.0087890625	0.00833333333333333	0	-30	-6.01875	2	1.181640625
4136.408203125	0.00833333333333333	0	-30	-6.01875	2	1.7744140625
4140.3076171875	0.00833333333333333	0	-30	-6.01875	1	0.7392578125
4143.3837890625	0.00833333333333333	0	30	2.38333333333333	2	0.703125
4146.400390625	0.00833333333333333	0	30	2.25833333333333	1	0.5908203125
4149.18359375	0.00833333333333333	0	30	2.25833333333333	2	0.6953125
4152.1162109375	0.00833333333333333	0	-30	-6.01875	2	0.611328125
4154.81640625	0.00833333333333333	0	-30	-6.01875	1	1.0625
4157.9501953125	0.00833333333333333	0	-30	-6.01875	2	0.5693359375
4160.7001953125	0.00833333333333333	0	-30	-6.01875	2	0.5546875
4163.75	0.00833333333333333	0	-30	-6.01875	1	0.609375
4166.875	0.00833333333333333	0	-30	-6.01875	2	0.580078125
4169.923828125	0.00833333333333333	0	30	2.25833333333333	2	0.7880859375
4172.8984375	0.00833333333333333	0	-30	-6.01875	2	0.5576171875
4175.8076171875	0.00833333333333333	0	-30	-6.01875	2	1.1845703125
4179.2998046875	0.00833333333333333	0	30	2.25833333333333	2	0.84375
4182.349609375	0.00833333333333333	0	30	2.25833333333333	2	1.06640625
4185.6240234375	0.00833333333333333	0	30	2.25833333333333	1	0.919921875
4188.9658203125	0.00833333333333333	0	30	2.25833333333333	1	0.90625
4192.3740234375	0.00833333333333333	0	30	2.25833333333333	2	1.3544921875
4195.849609375	0.00833333333333333	0	30	2.25833333333333	2	2.4873046875
4200.6318359375	0.00833333333333333	0	-30	-6.01875	2	0.984375
4204.0078125	0.00833333333333333	0	-30	-6.01875	2	1.1845703125
4207.2236328125	0.00833333333333333	0	-30	-6.14375	2	0.7060546875
4210.4658203125	0.00833333333333333	0	30	2.25833333333333	1	1.3271484375
4214.19921875	0.00833333333333333	0	-30	-6.14375	2	2.4736328125
4218.923828125	0.00833333333333333	0	30	2.25833333333333	2	0.5888671875
4221.8154296875	0.00833333333333333	0	-30	-6.14375	2	0.681640625
4224.982421875	0.00833333333333333	0	30	2.25833333333333	2	0.8271484375
4228.0556640625	0.00833333333333333	0	30	2.25833333333333	2	0.5859375
4250.0869140625	0.00833333333333333	0	-30	-6.14375	2	5.1064453125
4257.4453125	0.00833333333333333	0	30	2.25833333333333	1	1.2041015625
4261.0947265625	0.00833333333333333	0	-30	-6.14375	1	2.802734375
4266.0537109375	0.00833333333333333	0	-30	-6.14375	2	2.0126953125
4270.052734375	0.00833333333333333	0	-30	-6.14375	2	0.8935546875
4273.0615234375	0.00833333333333333	0	30	2.25833333333333	1	0.796875
4276.1611328125	0.00833333333333333	0	-30	-6.14375	2	0.7607421875
4279.1611328125	0.00833333333333333	0	30	2.25833333333333	1	0.7294921875
4282.353515625	0.00833333333333333	0	30	2.25833333333333	1	0.712890625
4285.3359375	0.00833333333333333	0	-30	-6.14375	2	0.6904296875
4288.34375	0.00833333333333333	0	-30	-6.14375	2	0.939453125
4291.552734375	0.00833333333333333	0	30	2.25833333333333	1	0.9541015625
4294.90234375	0.00833333333333333	0	-30	-6.26875	2	0.7880859375
4297.9443359375	0.00833333333333333	0	-30	-6.26875	2	0.73046875
4300.7607421875	0.00833333333333333	0	30	2.38333333333333	1	0.6826171875
4303.8115234375	0.00833333333333333	0	30	2.38333333333333	1	0.775390625
4306.986328125	0.00833333333333333	0	-30	-6.26875	2	0.80078125
4310.0517578125	0.00833333333333333	0	30	2.38333333333333	1	0.767578125
4312.861328125	0.00833333333333333	0	-30	-6.26875	2	0.6298828125
4315.744140625	0.00833333333333333	0	30	2.38333333333333	1	0.6591796875
4318.6025390625	0.00833333333333333	0	30	2.38333333333333	1	0.8173828125
4321.4765625	0.00833333333333333	0	-30	-6.26875	2	0.5595703125
4324.2109375	0.00833333333333333	0	-30	-6.39375	2	0.79296875
4327.3359375	0.00833333333333333	0	-30	-6.39375	2	1.0283203125
4330.52734375	0.00833333333333333	0	-30	-6.39375	2	0.716796875
4333.4853515625	0.00833333333333333	0	-30	-6.39375	2	0.7666015625
4336.52734375	0.00833333333333333	0	-30	-6.39375	2	0.533203125
4339.53515625	0.00833333333333333	0	30	2.50833333333333	1	0.853515625
4342.5859375	0.00833333333333333	0	-30	-6.51875	1	0.818359375
4345.6103515625	0.00833333333333333	0	30	2.50833333333333	1	0.7548828125
4348.6357421875	0.00833333333333333	0	30	2.50833333333333	2	0.6572265625
4351.693359375	0.00833333333333333	0	-30	-6.51875	1	0.4716796875
4354.41015625	0.00833333333333333	0	30	2.50833333333333	1	0.7626953125
4357.310546875	0.00833333333333333	0	30	2.50833333333333	1	0.7421875
4360.4599609375	0.00833333333333333	0	-30	-6.51875	2	0.9052734375
4363.6923828125	0.00833333333333333	0	30	2.50833333333333	2	0.80859375
4366.7431640625	0.00833333333333333	0	-30	-6.51875	2	0.90234375
4370.2021484375	0.00833333333333333	0	-30	-6.51875	2	1.0595703125
4373.826171875	0.00833333333333333	0	30	2.50833333333333	1	0.68359375
4376.66796875	0.00833333333333333	0	-30	-6.51875	2	0.4736328125
4379.3095703125	0.00833333333333333	0	30	2.50833333333333	2	0.576171875
4382.1845703125	0.00833333333333333	0	-30	-6.51875	2	0.9091796875
4385.609375	0.00833333333333333	0	-30	-6.64375	1	2.31640625
4390.0927734375	0.00833333333333333	0	30	2.50833333333333	2	0.689453125
4393.30078125	0.00833333333333333	0	30	2.50833333333333	1	0.9853515625
4396.5517578125	0.00833333333333333	0	30	2.50833333333333	2	1.2861328125
4399.966796875	0.00833333333333333	0	-30	-6.64375	1	1
4403.3837890625	0.00833333333333333	0	30	2.50833333333333	2	0.7109375
4406.2509765625	0.00833333333333333	0	-30	-6.64375	2	1.267578125
4409.8173828125	0.00833333333333333	0	-30	-6.64375	2	0.95703125
4413.0927734375	0.00833333333333333	0	-30	-6.64375	1	1.08984375
4416.5263671875	0.00833333333333333	0	30	2.50833333333333	2	0.6162109375
4419.67578125	0.00833333333333333	0	-30	-6.64375	2	1.515625
4423.583984375	0.00833333333333333	0	30	2.50833333333333	1	0.7275390625
4426.484375	0.00833333333333333	0	-30	-6.64375	1	0.7548828125
4429.7587890625	0.00833333333333333	0	30	2.50833333333333	1	0.640625
4432.7421875	0.00833333333333333	0	30	2.50833333333333	1	0.79296875
4435.6669921875	0.00833333333333333	0	-30	-6.64375	2	1.1962890625
4439.05078125	0.00833333333333333	0	30	2.50833333333333	1	1.1083984375
4442.55078125	0.00833333333333333	0	-30	-6.64375	2	1.2490234375
4446.267578125	0.00833333333333333	0	-30	-6.64375	2	0.98046875
4449.8505859375	0.00833333333333333	0	30	2.50833333333333	1	1.0537109375
4453.392578125	0.00833333333333333	0	30	2.63333333333333	2	0.5673828125
4456.267578125	0.00833333333333333	0	-30	-6.64375	2	0.884765625
4459.6923828125	0.00833333333333333	0	30	2.63333333333333	2	0.7236328125
4462.6171875	0.00833333333333333	0	-30	-6.64375	2	0.87890625
4465.966796875	0.00833333333333333	0	30	2.63333333333333	2	0.529296875
4468.966796875	0.00833333333333333	0	30	2.63333333333333	2	0.849609375
4472.375	0.00833333333333333	0	-30	-6.76875	1	0.75390625
4475.224609375	0.00833333333333333	0	-30	-6.76875	1	0.671875
4478.1748046875	0.00833333333333333	0	-30	-6.76875	1	0.6181640625
4480.9912109375	0.00833333333333333	0	30	2.63333333333333	2	0.8017578125
4484.0087890625	0.00833333333333333	0	30	2.50833333333333	2	0.5439453125
4487.1328125	0.00833333333333333	0	-30	-6.76875	1	0.7568359375
4490.150390625	0.00833333333333333	0	-30	-6.76875	1	0.7626953125
4493.099609375	0.00833333333333333	0	-30	-6.64375	1	0.693359375
4495.9580078125	0.00833333333333333	0	30	2.50833333333333	2	0.7236328125
4499.099609375	0.00833333333333333	0	30	2.50833333333333	2	0.654296875
4502.224609375	0.00833333333333333	0	30	2.50833333333333	2	0.5849609375
4505.298828125	0.00833333333333333	0	30	2.50833333333333	2	0.439453125
4520.75	0.00833333333333333	0	30	2.38333333333333	1	1.076171875
4524.0322265625	0.00833333333333333	0	-30	-6.64375	2	0.994140625
4527.416015625	0.00833333333333333	0	30	2.38333333333333	1	0.7548828125
4530.548828125	0.00833333333333333	0	-30	-6.64375	2	0.341796875
4533.166015625	0.00833333333333333	0	30	2.38333333333333	1	0.892578125
4536.140625	0.00833333333333333	0	30	2.38333333333333	1	0.654296875
4538.9072265625	0.00833333333333333	0	-30	-6.64375	2	0.7119140625
4542.0068359375	0.00833333333333333	0	30	2.38333333333333	1	0.6123046875
4544.982421875	0.00833333333333333	0	-30	-6.64375	1	0.7646484375
4548.0654296875	0.00833333333333333	0	-30	-6.64375	2	0.578125
4550.95703125	0.00833333333333333	0	-30	-6.64375	1	0.7822265625
4553.791015625	0.00833333333333333	0	30	2.50833333333333	2	0.7646484375
4557.0244140625	0.00833333333333333	0	-30	-6.64375	2	0.39453125
4559.8740234375	0.00833333333333333	0	30	2.50833333333333	1	0.5693359375
4562.916015625	0.00833333333333333	0	30	2.50833333333333	1	0.6318359375
4565.740234375	0.00833333333333333	0	30	2.50833333333333	1	0.9677734375
4569.2158203125	0.00833333333333333	0	-30	-6.64375	2	0.7724609375
4572.5576171875	0.00833333333333333	0	30	2.50833333333333	1	0.646484375
4575.7568359375	0.00833333333333333	0	-30	-6.64375	2	0.630859375
4578.6904296875	0.00833333333333333	0	-30	-6.64375	2	1.0732421875
4581.9814453125	0.00833333333333333	0	-30	-6.64375	2	0.6943359375
4585.1484375	0.00833333333333333	0	-30	-6.76875	2	0.15234375
4587.4072265625	0.00833333333333333	0	-30	-6.76875	2	1.1650390625
4590.8564453125	0.00833333333333333	0	30	2.50833333333333	1	0.7724609375
4593.7978515625	0.00833333333333333	0	-30	-6.76875	1	0.8310546875
4596.8486328125	0.00833333333333333	0	30	2.63333333333333	1	0.6923828125
4599.939453125	0.00833333333333333	0	-30	-6.76875	2	0.76171875
4603.0234375	0.00833333333333333	0	-30	-6.76875	2	0.60546875
4606.0986328125	0.00833333333333333	0	-30	-6.76875	2	0.8583984375
4609.3232421875	0.00833333333333333	0	-30	-6.76875	2	0.4736328125
4611.9150390625	0.00833333333333333	0	30	2.63333333333333	1	0.6103515625
4614.9306640625	0.00833333333333333	0	30	2.63333333333333	1	1.8271484375
4619.15625	0.00833333333333333	0	-30	-6.76875	2	0.4169921875
4622.056640625	0.00833333333333333	0	30	2.63333333333333	1	0.6044921875
4625.021484375	0.00833333333333333	0	-30	-6.89375	2	0.6005859375
4628.1396484375	0.00833333333333333	0	30	2.63333333333333	1	0.578125
4630.9814453125	0.00833333333333333	0	-30	-6.89375	2	0.5126953125
4633.9716796875	0.00833333333333333	0	-30	-6.89375	1	1.001953125
4637.34765625	0.00833333333333333	0	30	2.75833333333333	2	1.8427734375
4641.3642578125	0.00833333333333333	0	-30	-6.89375	2	0.5703125
4644.1640625	0.00833333333333333	0	-30	-6.89375	2	0.41015625
4646.9228515625	0.00833333333333333	0	30	2.75833333333333	1	1.083984375
4650.146484375	0.00833333333333333	0	-30	-6.89375	2	0.5234375
4653.1640625	0.00833333333333333	0	30	2.75833333333333	1	0.5947265625
4656.1142578125	0.00833333333333333	0	30	2.75833333333333	1	0.748046875
4659.2802734375	0.00833333333333333	0	30	2.75833333333333	1	1.1904296875
4662.6552734375	0.00833333333333333	0	30	2.75833333333333	1	1.0712890625
4666.12109375	0.00833333333333333	0	30	2.88333333333333	1	1.4296875
4670.1474609375	0.00833333333333333	0	30	2.88333333333333	1	0.6513671875
4673.0810546875	0.00833333333333333	0	-30	-6.89375	2	0.8701171875
4676.0556640625	0.00833333333333333	0	-30	-6.89375	2	0.8232421875
4679.330078125	0.00833333333333333	0	30	2.88333333333333	1	0.5498046875
4682.046875	0.00833333333333333	0	30	2.88333333333333	1	0.7041015625
4684.9306640625	0.00833333333333333	0	30	2.88333333333333	1	0.4931640625
4687.705078125	0.00833333333333333	0	30	3.00833333333333	1	0.470703125
4690.47265625	0.00833333333333333	0	30	3.00833333333333	1	0.55078125
4693.4794921875	0.00833333333333333	0	-30	-7.01875	1	0.48828125
4696.0302734375	0.00833333333333333	0	30	3.00833333333333	1	0.689453125
4698.8720703125	0.00833333333333333	0	30	3.00833333333333	1	0.7763671875
4702.072265625	0.00833333333333333	0	30	3.00833333333333	1	0.447265625
4704.8125	0.00833333333333333	0	30	3.13333333333333	1	0.427734375
4707.60546875	0.00833333333333333	0	30	3.13333333333333	1	0.5068359375
4710.5634765625	0.00833333333333333	0	-30	-7.01875	1	0.28515625
4713.3720703125	0.00833333333333333	0	-30	-7.01875	2	0.5166015625
4716.37109375	0.00833333333333333	0	30	3.13333333333333	1	0.669921875
4719.1552734375	0.00833333333333333	0	-30	-7.01875	2	0.29296875
4722.0205078125	0.00833333333333333	0	30	3.13333333333333	1	0.763671875
4725.1962890625	0.00833333333333333	0	30	3.13333333333333	1	0.541015625
4728.2880859375	0.00833333333333333	0	30	3.25833333333333	1	0.720703125
4731.4130859375	0.00833333333333333	0	30	3.25833333333333	1	1.1162109375
4735.046875	0.00833333333333333	0	30	3.25833333333333	1	0.72265625
4738.3544921875	0.00833333333333333	0	30	3.25833333333333	1	1.0791015625
4741.7041015625	0.00833333333333333	0	-30	-7.01875	1	1.0888671875
4744.9951171875	0.00833333333333333	0	30	3.25833333333333	1	0.798828125
4748.0048828125	0.00833333333333333	0	-30	-7.01875	1	1.052734375
4751.2294921875	0.00833333333333333	0	30	3.38333333333333	1	0.5400390625
4753.8291015625	0.00833333333333333	0	-30	-7.01875	2	0.724609375
4756.8291015625	0.00833333333333333	0	-30	-7.01875	2	0.62109375
4759.7041015625	0.00833333333333333	0	-30	-7.01875	2	0.5458984375
4762.5546875	0.00833333333333333	0	-30	-7.01875	2	0.3916015625
4788.203125	0.00833333333333333	0	30	3.38333333333333	2	1.2314453125
4791.8369140625	0.00833333333333333	0	30	3.38333333333333	2	0.6064453125
4794.6875	0.00833333333333333	0	-30	-7.01875	2	1.091796875
4797.76171875	0.00833333333333333	0	30	3.38333333333333	2	0.76953125
4800.845703125	0.00833333333333333	0	-30	-7.14375	1	0.9814453125
4803.88671875	0.00833333333333333	0	30	3.38333333333333	2	0.7646484375
4806.787109375	0.00833333333333333	0	30	3.38333333333333	2	0.82421875
4809.64453125	0.00833333333333333	0	30	3.25833333333333	2	0.615234375
4812.37890625	0.00833333333333333	0	-30	-7.14375	1	0.720703125
4815.537109375	0.00833333333333333	0	30	3.25833333333333	2	0.6025390625
4818.3955078125	0.00833333333333333	0	30	3.25833333333333	2	0.728515625
4821.3369140625	0.00833333333333333	0	-30	-7.14375	1	0.5791015625
4824.203125	0.00833333333333333	0	-30	-7.14375	1	0.6083984375
4827.103515625	0.00833333333333333	0	-30	-7.14375	1	0.8447265625
4830.2939453125	0.00833333333333333	0	30	3.25833333333333	2	0.837890625
4833.51171875	0.00833333333333333	0	-30	-7.01875	1	0.7646484375
4836.6201171875	0.00833333333333333	0	-30	-7.01875	1	0.6806640625
4839.40234375	0.00833333333333333	0	30	3.25833333333333	2	0.6103515625
4842.5947265625	0.00833333333333333	0	30	3.13333333333333	2	1.330078125
4846.39453125	0.00833333333333333	0	-30	-7.01875	2	1.505859375
4850.0693359375	0.00833333333333333	0	-30	-7.01875	2	0.6953125
4853.1943359375	0.00833333333333333	0	-30	-7.01875	1	2.5546875
4857.9111328125	0.00833333333333333	0	-30	-7.01875	1	3.0537109375
4863.21875	0.00833333333333333	0	30	3.13333333333333	2	0.802734375
4866.3447265625	0.00833333333333333	0	-30	-7.01875	1	0.4208984375
4869.15234375	0.00833333333333333	0	-30	-7.01875	2	0.3251953125
4871.5361328125	0.00833333333333333	0	30	3.13333333333333	2	0.7578125
4874.4775390625	0.00833333333333333	0	-30	-7.01875	1	0.591796875
4877.3271484375	0.00833333333333333	0	-30	-7.01875	1	1.0703125
4880.89453125	0.00833333333333333	0	-30	-7.01875	1	0.6396484375
4883.7607421875	0.00833333333333333	0	30	3.13333333333333	2	0.7099609375
4886.5771484375	0.00833333333333333	0	-30	-7.01875	1	0.4853515625
4889.576171875	0.00833333333333333	0	30	3.13333333333333	2	0.4462890625
4892.2861328125	0.00833333333333333	0	-30	-7.01875	1	0.3359375
4894.66796875	0.00833333333333333	0	-30	-6.89375	1	0.5947265625
4897.59375	0.00833333333333333	0	30	3.00833333333333	2	0.564453125
4900.7021484375	0.00833333333333333	0	-30	-6.89375	1	0.5048828125
4903.3349609375	0.00833333333333333	0	-30	-6.89375	1	0.6552734375
4906.1357421875	0.00833333333333333	0	-30	-6.89375	1	0.55859375
4909.0849609375	0.00833333333333333	0	-30	-6.89375	1	0.5380859375
4911.9189453125	0.00833333333333333	0	30	3.00833333333333	2	0.576171875
4915.001953125	0.00833333333333333	0	-30	-6.76875	1	0.380859375
4917.59375	0.00833333333333333	0	30	3.00833333333333	2	0.5009765625
4920.3935546875	0.00833333333333333	0	-30	-6.76875	1	0.4619140625
4923.126953125	0.00833333333333333	0	-30	-6.76875	1	0.5126953125
4926.03515625	0.00833333333333333	0	30	3.00833333333333	2	0.5244140625
4929.09375	0.00833333333333333	0	-30	-6.76875	1	0.42578125
4932.0439453125	0.00833333333333333	0	30	3.00833333333333	2	0.7158203125
4935.0439453125	0.00833333333333333	0	30	2.88333333333333	2	0.7236328125
4938.1103515625	0.00833333333333333	0	30	2.88333333333333	2	0.7138671875
4941.2587890625	0.00833333333333333	0	30	2.88333333333333	2	0.556640625
4944.16796875	0.00833333333333333	0	30	2.88333333333333	2	0.5283203125
4946.818359375	0.00833333333333333	0	-30	-6.76875	1	0.6142578125
4949.8271484375	0.00833333333333333	0	-30	-6.64375	1	0.7724609375
4952.708984375	0.00833333333333333	0	30	2.88333333333333	2	1.3154296875
4956.41015625	0.00833333333333333	0	30	2.75833333333333	2	0.71875
4959.318359375	0.00833333333333333	0	-30	-6.64375	1	0.642578125
4962.1767578125	0.00833333333333333	0	-30	-6.64375	1	0.5361328125
4964.9267578125	0.00833333333333333	0	-30	-6.64375	1	0.7294921875
4967.7763671875	0.00833333333333333	0	-30	-6.64375	1	1.904296875
4971.892578125	0.00833333333333333	0	30	2.75833333333333	2	0.66796875
4975.134765625	0.00833333333333333	0	-30	-6.51875	1	0.490234375
4977.734375	0.00833333333333333	0	-30	-6.51875	2	1.5068359375
4981.642578125	0.00833333333333333	0	-30	-6.51875	1	0.6787109375
4984.5263671875	0.00833333333333333	0	30	2.75833333333333	2	0.72265625
4987.42578125	0.00833333333333333	0	-30	-6.51875	1	0.751953125
4990.509765625	0.00833333333333333	0	-30	-6.51875	1	0.66015625
4993.267578125	0.00833333333333333	0	30	2.75833333333333	1	1.158203125
4996.5673828125	0.00833333333333333	0	-30	-6.51875	2	1.2265625
5000.17578125	0.00833333333333333	0	-30	-6.51875	1	0.490234375
5003.1337890625	0.00833333333333333	0	30	2.75833333333333	2	0.6044921875
5005.9169921875	0.00833333333333333	0	-30	-6.51875	1	0.5888671875
5008.609375	0.00833333333333333	0	30	2.75833333333333	2	1.6328125
5012.4423828125	0.00833333333333333	0	-30	-6.51875	1	0.5517578125
5015.466796875	0.00833333333333333	0	-30	-6.51875	2	1.03125
5018.8251953125	0.00833333333333333	0	-30	-6.51875	2	0.857421875
5021.80078125	0.00833333333333333	0	-30	-6.51875	1	1.6181640625
5025.5341796875	0.00833333333333333	0	30	2.75833333333333	2	0.724609375
5028.783203125	0.00833333333333333	0	30	2.75833333333333	2	0.603515625
5031.6083984375	0.00833333333333333	0	30	2.75833333333333	2	0.466796875
5044.17578125	0.00833333333333333	0	30	2.63333333333333	2	0.5791015625
5047.1572265625	0.00833333333333333	0	-30	-6.51875	1	0.6376953125
5050.2587890625	0.00833333333333333	0	30	2.63333333333333	2	0.5205078125
5053.216796875	0.00833333333333333	0	30	2.63333333333333	2	0.5224609375
5056.091796875	0.00833333333333333	0	30	2.63333333333333	2	0.439453125
5058.841796875	0.00833333333333333	0	30	2.63333333333333	2	0.361328125
5061.2666015625	0.00833333333333333	0	30	2.50833333333333	2	0.681640625
5064.2412109375	0.00833333333333333	0	-30	-6.51875	1	0.5947265625
5066.974609375	0.00833333333333333	0	30	2.50833333333333	2	0.4775390625
5069.533203125	0.00833333333333333	0	30	2.50833333333333	2	0.5986328125
5072.1826171875	0.00833333333333333	0	30	2.50833333333333	2	0.7255859375
5075.0576171875	0.00833333333333333	0	30	2.50833333333333	2	0.5947265625
5078.1826171875	0.00833333333333333	0	-30	-6.51875	1	0.525390625
5081.1162109375	0.00833333333333333	0	-30	-6.51875	1	0.50390625
5084.06640625	0.00833333333333333	0	-30	-6.39375	1	0.5859375
5086.8828125	0.00833333333333333	0	-30	-6.39375	1	0.521484375
5089.724609375	0.00833333333333333	0	-30	-6.39375	1	0.49609375
5092.416015625	0.00833333333333333	0	30	2.38333333333333	2	0.6123046875
5095.2490234375	0.00833333333333333	0	30	2.38333333333333	2	0.580078125
5098.283203125	0.00833333333333333	0	-30	-6.39375	1	0.6416015625
5101.0830078125	0.00833333333333333	0	30	2.38333333333333	2	0.5302734375
5104.1162109375	0.00833333333333333	0	-30	-6.39375	1	0.4169921875
5106.7314453125	0.00833333333333333	0	30	2.38333333333333	2	0.5302734375
5109.490234375	0.00833333333333333	0	-30	-6.26875	1	0.546875
5112.2578125	0.00833333333333333	0	30	2.38333333333333	2	0.7236328125
5115.1904296875	0.00833333333333333	0	30	2.25833333333333	2	0.53515625
5118.1318359375	0.00833333333333333	0	-30	-6.26875	1	1.7939453125
5122.1826171875	0.00833333333333333	0	-30	-6.26875	1	0.703125
5124.9892578125	0.00833333333333333	0	-30	-6.26875	1	0.6484375
5127.7158203125	0.00833333333333333	0	30	2.25833333333333	2	0.59375
5130.5908203125	0.00833333333333333	0	30	2.25833333333333	2	0.6875
5133.4658203125	0.00833333333333333	0	30	2.25833333333333	2	0.6923828125
5136.34765625	0.00833333333333333	0	30	2.25833333333333	2	0.6669921875
5139.1572265625	0.00833333333333333	0	30	2.13333333333333	2	0.5615234375
5141.8818359375	0.00833333333333333	0	30	2.13333333333333	2	0.6044921875
5144.6904296875	0.00833333333333333	0	-30	-6.26875	1	0.5966796875
5147.640625	0.00833333333333333	0	30	2.13333333333333	2	0.638671875
5150.6572265625	0.00833333333333333	0	-30	-6.14375	1	0.453125
5153.265625	0.00833333333333333	0	30	2.13333333333333	2	0.4775390625
5155.9814453125	0.00833333333333333	0	-30	-6.14375	1	0.41796875
5158.7314453125	0.00833333333333333	0	30	2.13333333333333	2	0.4912109375
5161.3310546875	0.00833333333333333	0	30	2.00833333333333	2	0.5
5164.20703125	0.00833333333333333	0	30	2.00833333333333	2	0.49609375
5166.9228515625	0.00833333333333333	0	30	2.00833333333333	2	0.7001953125
5169.7734375	0.00833333333333333	0	30	2.00833333333333	2	0.9052734375
5173.2734375	0.00833333333333333	0	-30	-6.14375	1	0.509765625
5176.0400390625	0.00833333333333333	0	-30	-6.14375	1	2.86328125
5181.0068359375	0.00833333333333333	0	30	2.00833333333333	2	0.46484375
5183.931640625	0.00833333333333333	0	30	1.88333333333333	2	0.4521484375
5186.9228515625	0.00833333333333333	0	-30	-6.14375	1	0.7333984375
5190.1064453125	0.00833333333333333	0	-30	-6.01875	1	0.59765625
5193.1806640625	0.00833333333333333	0	30	1.88333333333333	2	0.7548828125
5196.2216796875	0.00833333333333333	0	30	1.88333333333333	2	0.5546875
5199.2314453125	0.00833333333333333	0	30	1.88333333333333	2	0.44921875
5201.71484375	0.00833333333333333	0	-30	-6.01875	1	0.509765625
5204.4814453125	0.00833333333333333	0	30	1.88333333333333	2	0.3271484375
5206.9384765625	0.00833333333333333	0	30	1.75833333333333	2	0.57421875
5209.8974609375	0.00833333333333333	0	-30	-6.01875	1	0.3115234375
5212.572265625	0.00833333333333333	0	30	1.75833333333333	2	0.3642578125
5215.380859375	0.00833333333333333	0	-30	-6.01875	1	0.5634765625
5218.462890625	0.00833333333333333	0	-30	-6.01875	1	0.490234375
5221.0224609375	0.00833333333333333	0	-30	-5.89375	1	0.6181640625
5223.947265625	0.00833333333333333	0	30	1.75833333333333	2	0.5576171875
5226.9228515625	0.00833333333333333	0	30	1.75833333333333	2	0.5419921875
5229.9970703125	0.00833333333333333	0	-30	-5.89375	1	0.4921875
5232.6474609375	0.00833333333333333	0	30	1.75833333333333	2	0.4658203125
5235.2890625	0.00833333333333333	0	-30	-5.89375	1	0.5361328125
5238.255859375	0.00833333333333333	0	-30	-5.89375	1	0.8017578125
5241.2802734375	0.00833333333333333	0	-30	-5.89375	1	0.537109375
5244.046875	0.00833333333333333	0	-30	-5.76875	1	0.4912109375
5246.9970703125	0.00833333333333333	0	30	1.63333333333333	2	0.6923828125
5249.7724609375	0.00833333333333333	0	-30	-5.76875	1	0.7734375
5252.60546875	0.00833333333333333	0	-30	-5.76875	2	1.716796875
5256.6552734375	0.00833333333333333	0	-30	-5.76875	2	0.69921875
5259.5390625	0.00833333333333333	0	30	1.63333333333333	1	0.6396484375
5262.48046875	0.00833333333333333	0	30	1.63333333333333	1	0.7138671875
5265.2626953125	0.00833333333333333	0	30	1.63333333333333	1	0.8994140625
5268.646484375	0.00833333333333333	0	30	1.63333333333333	2	0.771484375
5271.85546875	0.00833333333333333	0	-30	-5.76875	2	1.275390625
5275.5458984375	0.00833333333333333	0	30	1.63333333333333	2	1.048828125
5283.7294921875	0.00833333333333333	0	-30	-5.76875	2	0.59375
5286.388671875	0.00833333333333333	0	30	1.63333333333333	1	0.7421875
5289.2705078125	0.00833333333333333	0	-30	-5.76875	2	0.46875
5291.9794921875	0.00833333333333333	0	30	1.63333333333333	2	0.7353515625
5295.103515625	0.00833333333333333	0	30	1.63333333333333	1	0.6279296875
5297.9462890625	0.00833333333333333	0	30	1.63333333333333	1	0.45703125
5300.580078125	0.00833333333333333	0	-30	-5.89375	2	0.5830078125
5303.671875	0.00833333333333333	0	-30	-5.89375	2	0.419921875
5306.404296875	0.00833333333333333	0	-30	-5.89375	2	0.52734375
5309.404296875	0.00833333333333333	0	30	1.63333333333333	1	0.623046875
5312.49609375	0.00833333333333333	0	-30	-5.89375	2	0.5478515625
5315.521484375	0.00833333333333333	0	30	1.63333333333333	1	0.6103515625
5318.5458984375	0.00833333333333333	0	30	1.63333333333333	1	0.73828125
5321.5712890625	0.00833333333333333	0	30	1.75833333333333	1	0.48046875
5324.38671875	0.00833333333333333	0	-30	-5.89375	2	0.513671875
5327.0869140625	0.00833333333333333	0	-30	-6.01875	2	0.6533203125
5330.1044921875	0.00833333333333333	0	30	1.75833333333333	1	0.8681640625
5333.0791015625	0.00833333333333333	0	30	1.75833333333333	1	0.5419921875
5335.7626953125	0.00833333333333333	0	-30	-6.01875	2	0.4658203125
5338.7958984375	0.00833333333333333	0	-30	-6.01875	2	0.529296875
5341.6962890625	0.00833333333333333	0	30	1.75833333333333	2	1.46875
5345.7041015625	0.00833333333333333	0	30	1.75833333333333	1	0.46875
5348.25390625	0.00833333333333333	0	30	1.75833333333333	1	0.462890625
5350.9287109375	0.00833333333333333	0	-30	-6.01875	2	0.572265625
5353.595703125	0.00833333333333333	0	30	1.75833333333333	1	0.6416015625
5356.5458984375	0.00833333333333333	0	30	1.75833333333333	1	0.7392578125
5359.62109375	0.00833333333333333	0	-30	-6.01875	2	0.5283203125
5362.4208984375	0.00833333333333333	0	-30	-6.14375	2	0.560546875
5365.162109375	0.00833333333333333	0	30	1.75833333333333	1	0.5390625
5368.0283203125	0.00833333333333333	0	-30	-6.14375	2	0.7861328125
5370.970703125	0.00833333333333333	0	30	1.88333333333333	1	0.458984375
5373.953125	0.00833333333333333	0	-30	-6.14375	2	0.4208984375
5376.5869140625	0.00833333333333333	0	30	1.88333333333333	1	0.70703125
5379.603515625	0.00833333333333333	0	-30	-6.14375	2	0.9228515625
5383.0615234375	0.00833333333333333	0	-30	-6.14375	2	0.48046875
5385.828125	0.00833333333333333	0	30	1.88333333333333	2	0.826171875
5388.953125	0.00833333333333333	0	-30	-6.26875	2	0.6376953125
5391.76171875	0.00833333333333333	0	-30	-6.26875	2	0.4443359375
5394.50390625	0.00833333333333333	0	30	1.88333333333333	1	0.6064453125
5397.3115234375	0.00833333333333333	0	30	1.88333333333333	1	0.51171875
5400.3369140625	0.00833333333333333	0	30	1.88333333333333	1	0.58984375
5403.4453125	0.00833333333333333	0	-30	-6.26875	2	0.513671875
5406.0361328125	0.00833333333333333	0	-30	-6.26875	2	0.6904296875
5409.0283203125	0.00833333333333333	0	-30	-6.26875	2	0.4111328125
5411.7861328125	0.00833333333333333	0	-30	-6.39375	2	0.556640625
5414.4609375	0.00833333333333333	0	30	1.88333333333333	1	0.4580078125
5417.4609375	0.00833333333333333	0	30	1.88333333333333	1	0.5703125
5420.0947265625	0.00833333333333333	0	-30	-6.39375	1	1.0888671875
5423.5859375	0.00833333333333333	0	-30	-6.39375	2	0.62109375
5426.40234375	0.00833333333333333	0	-30	-6.39375	2	0.533203125
5429.111328125	0.00833333333333333	0	30	2.00833333333333	1	0.5205078125
5431.861328125	0.00833333333333333	0	-30	-6.39375	2	0.7138671875
5435.0947265625	0.00833333333333333	0	-30	-6.39375	2	0.529296875
5437.994140625	0.00833333333333333	0	-30	-6.39375	2	0.5341796875
5440.77734375	0.00833333333333333	0	-30	-6.51875	2	0.4462890625
5443.3271484375	0.00833333333333333	0	-30	-6.51875	1	0.80078125
5446.2109375	0.00833333333333333	0	30	2.00833333333333	1	0.4931640625
5448.84375	0.00833333333333333	0	-30	-6.51875	1	1.1083984375
5452.0859375	0.00833333333333333	0	-30	-6.51875	1	0.826171875
5454.9775390625	0.00833333333333333	0	-30	-6.51875	1	0.8388671875
5457.9853515625	0.00833333333333333	0	-30	-6.51875	2	0.8154296875
5461.1025390625	0.00833333333333333	0	30	2.00833333333333	1	1.2900390625
5464.869140625	0.00833333333333333	0	30	2.00833333333333	1	0.6279296875
5467.6943359375	0.00833333333333333	0	-30	-6.51875	1	1.626953125
5471.6103515625	0.00833333333333333	0	30	2.00833333333333	1	0.470703125
5474.34375	0.00833333333333333	0	-30	-6.51875	2	0.689453125
5477.2607421875	0.00833333333333333	0	30	2.13333333333333	1	0.4521484375
5480.001953125	0.00833333333333333	0	30	2.13333333333333	1	0.51171875
5482.994140625	0.00833333333333333	0	-30	-6.51875	2	0.51953125
5485.818359375	0.00833333333333333	0	-30	-6.51875	2	0.447265625
5488.7431640625	0.00833333333333333	0	-30	-6.51875	2	0.826171875
5491.78515625	0.00833333333333333	0	30	2.13333333333333	1	1.0244140625
5495.3271484375	0.00833333333333333	0	-30	-6.51875	2	0.5146484375
5498.1259765625	0.00833333333333333	0	-30	-6.64375	2	0.7158203125
5501.1103515625	0.00833333333333333	0	30	2.13333333333333	1	0.6435546875
5504.251953125	0.00833333333333333	0	30	2.13333333333333	1	0.5263671875
5507.1767578125	0.00833333333333333	0	-30	-6.64375	2	0.609375
5510.1181640625	0.00833333333333333	0	30	2.25833333333333	1	0.7880859375
5513.3935546875	0.00833333333333333	0	30	2.25833333333333	1	0.9853515625
5516.634765625	0.00833333333333333	0	30	2.25833333333333	1	1.255859375
