onset	duration	titr	surround	centre	response	rt
9.9111328125	0.00833333333333333	1	-30	15	1	38.9169921875
51.2177734375	0.00833333333333333	1	NaN	-15	1	2.6103515625
56.0009765625	0.00833333333333333	1	NaN	15	2	4.5390625
62.841796875	0.00833333333333333	1	-30	-15	1	3.08203125
68.3095703125	0.00833333333333333	1	-30	16	1	2.119140625
72.966796875	0.00833333333333333	1	30	15	2	1.58203125
76.92578125	0.00833333333333333	1	30	-15	2	2.119140625
81.083984375	0.00833333333333333	1	NaN	-14	1	1.4892578125
85.0595703125	0.00833333333333333	1	NaN	-13	1	1.5537109375
89.0673828125	0.00833333333333333	1	NaN	-12	1	2.337890625
93.701171875	0.00833333333333333	1	30	-16	2	1.8642578125
97.625	0.00833333333333333	1	30	14	2	2.65234375
102.5751953125	0.00833333333333333	1	-30	17	1	2.734375
107.3837890625	0.00833333333333333	1	NaN	14	2	1.517578125
111.208984375	0.00833333333333333	1	NaN	-11	1	93.3994140625
206.7568359375	0.00833333333333333	1	-30	-14	2	3.4521484375
212.4326171875	0.00833333333333333	1	-30	-15	1	3.5126953125
218.08203125	0.00833333333333333	1	-30	-14	1	4.103515625
224.357421875	0.00833333333333333	1	-30	18	2	2.0673828125
228.548828125	0.00833333333333333	1	-30	-13	1	2.5087890625
233.2470703125	0.00833333333333333	1	30	-17	1	1.0908203125
236.490234375	0.00833333333333333	1	-30	17	2	0.8876953125
239.8564453125	0.00833333333333333	1	-30	16	2	0.697265625
243.0478515625	0.00833333333333333	1	NaN	-10	1	0.8896484375
246.298828125	0.00833333333333333	1	30	13	2	0.71875
249.3896484375	0.00833333333333333	1	NaN	-9	1	1.33203125
253.15625	0.00833333333333333	1	30	-16	1	0.6943359375
256.22265625	0.00833333333333333	1	NaN	13	2	0.99609375
259.6728515625	0.00833333333333333	1	30	-15	1	0.6337890625
262.5068359375	0.00833333333333333	1	30	-14	1	0.591796875
265.2060546875	0.00833333333333333	1	30	-13	1	0.6044921875
268.23046875	0.00833333333333333	1	30	-12	1	0.6201171875
271.181640625	0.00833333333333333	1	NaN	12	2	0.716796875
274.189453125	0.00833333333333333	1	-30	-12	1	0.6611328125
277.0810546875	0.00833333333333333	1	NaN	11	2	0.5537109375
279.8896484375	0.00833333333333333	1	NaN	10	2	1.185546875
283.1142578125	0.00833333333333333	1	-30	-11	1	0.8251953125
286.4228515625	0.00833333333333333	1	NaN	9	2	0.6123046875
289.498046875	0.00833333333333333	1	NaN	8	2	1.2890625
293.138671875	0.00833333333333333	1	NaN	7	2	1.865234375
297.4140625	0.00833333333333333	1	NaN	-8	1	1.6455078125
301.439453125	0.00833333333333333	1	30	12	2	1.3564453125
305.2802734375	0.00833333333333333	1	-30	-10	1	1.7880859375
309.2724609375	0.00833333333333333	1	-30	15	2	1.01171875
322.6640625	0.00833333333333333	1	30	-11	1	1.3408203125
326.0966796875	0.00833333333333333	1	30	-10	1	1.763671875
330.3544921875	0.00833333333333333	1	NaN	6	2	2.74609375
335.455078125	0.00833333333333333	1	30	11	2	1.349609375
339.021484375	0.00833333333333333	1	-30	-9	1	1.6318359375
342.86328125	0.00833333333333333	1	-30	14	2	0.998046875
346.3134765625	0.00833333333333333	1	NaN	-7	1	1.107421875
349.646484375	0.00833333333333333	1	NaN	5	2	1.1748046875
352.87109375	0.00833333333333333	1	30	-9	1	1.1181640625
356.12109375	0.00833333333333333	1	30	10	2	1.4365234375
359.921875	0.00833333333333333	1	30	9	2	1.3076171875
363.6376953125	0.00833333333333333	1	30	8	2	1.728515625
367.654296875	0.00833333333333333	1	NaN	4	2	1.080078125
371.0712890625	0.00833333333333333	1	NaN	3	2	0.8623046875
374.2626953125	0.00833333333333333	1	30	-8	1	0.86328125
377.5791015625	0.00833333333333333	1	30	7	1	2.107421875
381.837890625	0.00833333333333333	1	30	-7	1	0.9765625
385.146484375	0.00833333333333333	1	30	-6	1	0.68359375
388.0380859375	0.00833333333333333	1	-30	13	2	0.712890625
390.9375	0.00833333333333333	1	NaN	-6	1	0.6689453125
394.0791015625	0.00833333333333333	1	-30	-8	1	0.935546875
397.37890625	0.00833333333333333	1	NaN	-5	1	0.740234375
400.529296875	0.00833333333333333	1	30	8	2	0.765625
403.404296875	0.00833333333333333	1	-30	-7	2	1.3623046875
407.169921875	0.00833333333333333	1	NaN	-4	1	0.7734375
410.1376953125	0.00833333333333333	1	NaN	2	2	1.09375
413.5791015625	0.00833333333333333	1	-30	-8	1	1.171875
416.8369140625	0.00833333333333333	1	30	-5	1	0.9140625
419.8291015625	0.00833333333333333	1	30	7	2	1.6025390625
423.8623046875	0.00833333333333333	1	30	6	2	2.11328125
428.1708984375	0.00833333333333333	1	30	5	2	0.9970703125
431.419921875	0.00833333333333333	1	30	4	1	2.5400390625
436.50390625	0.00833333333333333	1	-30	-7	2	1.8486328125
440.8193359375	0.00833333333333333	1	30	-4	1	0.8125
443.7705078125	0.00833333333333333	1	30	5	2	1.765625
447.853515625	0.00833333333333333	1	30	4	2	2.36328125
452.2783203125	0.00833333333333333	1	NaN	1	1	2.05859375
456.6123046875	0.00833333333333333	1	-30	-8	2	1.388671875
460.060546875	0.00833333333333333	1	-30	12	2	0.8125
463.361328125	0.00833333333333333	1	-30	-9	1	1.5517578125
466.986328125	0.00833333333333333	1	30	-3	1	1.0546875
470.419921875	0.00833333333333333	1	-30	-8	2	1.29296875
474.0947265625	0.00833333333333333	1	-30	11	2	0.6669921875
477.228515625	0.00833333333333333	1	NaN	-3	1	3.1005859375
482.677734375	0.00833333333333333	1	30	-2	1	0.9716796875
485.89453125	0.00833333333333333	1	-30	-9	1	1.130859375
489.4697265625	0.00833333333333333	1	30	3	2	0.9716796875
492.927734375	0.00833333333333333	1	NaN	2	2	0.73046875
495.927734375	0.00833333333333333	1	30	2	1	1.138671875
499.6025390625	0.00833333333333333	1	30	-1	1	0.671875
502.4443359375	0.00833333333333333	1	NaN	-2	1	0.822265625
505.744140625	0.00833333333333333	1	NaN	1	2	1.314453125
509.1943359375	0.00833333333333333	1	-30	-8	2	1.51171875
513.0771484375	0.00833333333333333	1	NaN	-1	1	1.869140625
517.1357421875	0.00833333333333333	1	30	3	1	0.794921875
520.0595703125	0.00833333333333333	1	-30	10	2	0.615234375
523.1025390625	0.00833333333333333	1	-30	9	2	0.6123046875
526.0771484375	0.00833333333333333	1	NaN	0	1	0.7978515625
529.1767578125	0.00833333333333333	1	30	4	2	0.9619140625
532.568359375	0.00833333333333333	1	NaN	0	1	0.875
535.52734375	0.00833333333333333	1	-30	8	2	0.603515625
538.5185546875	0.00833333333333333	1	30	0	1	0.796875
541.8359375	0.00833333333333333	1	-30	-9	1	0.83203125
544.9189453125	0.00833333333333333	1	-30	7	2	0.64453125
547.9267578125	0.00833333333333333	1	30	1	1	0.9091796875
551.0771484375	0.00833333333333333	1	-30	6	2	0.7265625
554.1689453125	0.00833333333333333	1	NaN	1	1	1.123046875
557.53515625	0.00833333333333333	1	30	3	2	0.8525390625
560.7265625	0.00833333333333333	1	30	2	1	0.837890625
563.634765625	0.00833333333333333	1	30	3	1	2.25
568.03515625	0.00833333333333333	1	NaN	2	1	1.1689453125
571.54296875	0.00833333333333333	1	30	2	1	1.021484375
574.84375	0.00833333333333333	1	NaN	3	2	0.697265625
578.03515625	0.00833333333333333	1	NaN	2	2	1.4736328125
582.001953125	0.00833333333333333	1	NaN	1	2	0.7705078125
585.126953125	0.00833333333333333	1	-30	5	2	0.6298828125
588.1435546875	0.00833333333333333	1	30	4	2	1.2451171875
591.701171875	0.00833333333333333	1	30	3	1	0.7919921875
594.759765625	0.00833333333333333	1	NaN	0	2	1.1494140625
598.1181640625	0.00833333333333333	1	-30	4	2	0.6474609375
601.1181640625	0.00833333333333333	1	NaN	1	1	0.9111328125
604.2763671875	0.00833333333333333	1	-30	3	2	0.640625
607.3095703125	0.00833333333333333	1	30	4	2	1.904296875
611.42578125	0.00833333333333333	1	30	3	2	0.9482421875
614.91796875	0.00833333333333333	1	NaN	-1	1	0.736328125
618.05078125	0.00833333333333333	1	-30	2	2	0.5791015625
620.8427734375	0.00833333333333333	1	30	3	1	1.771484375
639.8173828125	0.00833333333333333	1	30	4	1	0.7646484375
642.93359375	0.00833333333333333	1	-30	1	2	0.7451171875
645.7666015625	0.00833333333333333	1	30	2	1	0.8720703125
648.775390625	0.00833333333333333	1	NaN	2	2	0.85546875
651.92578125	0.00833333333333333	1	30	3	1	0.96875
655.142578125	0.00833333333333333	1	30	4	2	2.15234375
659.80078125	0.00833333333333333	1	NaN	0	2	0.90234375
662.9755859375	0.00833333333333333	1	-30	0	2	0.9921875
666.4091796875	0.00833333333333333	1	-30	-1	2	0.58984375
669.216796875	0.00833333333333333	1	NaN	1	2	1.287109375
672.6171875	0.00833333333333333	1	NaN	0	1	1.3583984375
676.3828125	0.00833333333333333	1	30	5	1	0.6572265625
679.1669921875	0.00833333333333333	1	NaN	1	1	1.9853515625
683.5419921875	0.00833333333333333	1	NaN	-1	2	0.73828125
686.650390625	0.00833333333333333	1	30	6	2	0.845703125
689.9580078125	0.00833333333333333	1	NaN	2	2	0.7861328125
692.9658203125	0.00833333333333333	1	NaN	1	2	1.5380859375
696.9501953125	0.00833333333333333	1	-30	-2	2	0.6259765625
699.7734375	0.00833333333333333	1	30	5	2	1.0751953125
703.1650390625	0.00833333333333333	1	NaN	0	2	0.9560546875
706.4912109375	0.00833333333333333	1	-30	-3	2	0.6376953125
709.625	0.00833333333333333	1	-30	-4	1	0.912109375
712.9833984375	0.00833333333333333	1	NaN	-2	1	0.6337890625
715.875	0.00833333333333333	1	NaN	-1	1	0.8056640625
718.740234375	0.00833333333333333	1	30	4	1	1.060546875
722.125	0.00833333333333333	1	-30	-3	2	0.8681640625
725.19140625	0.00833333333333333	1	NaN	0	1	0.826171875
728.2666015625	0.00833333333333333	1	30	5	2	0.6787109375
731.45703125	0.00833333333333333	1	NaN	1	1	0.79296875
734.32421875	0.00833333333333333	1	-30	-4	2	0.9013671875
737.69140625	0.00833333333333333	1	NaN	-1	1	0.638671875
740.8828125	0.00833333333333333	1	-30	-5	1	1.7265625
744.8564453125	0.00833333333333333	1	-30	-4	2	1.4013671875
748.4326171875	0.00833333333333333	1	NaN	2	2	0.689453125
751.4912109375	0.00833333333333333	1	-30	-5	2	0.798828125
754.6240234375	0.00833333333333333	1	-30	-6	2	1.0498046875
757.791015625	0.00833333333333333	1	-30	-7	1	0.923828125
761.1904296875	0.00833333333333333	1	NaN	1	2	1.2275390625
764.4990234375	0.00833333333333333	1	NaN	0	2	0.7431640625
767.423828125	0.00833333333333333	1	30	4	1	0.6826171875
770.1572265625	0.00833333333333333	1	30	5	2	0.59765625
773.1904296875	0.00833333333333333	1	30	4	1	0.7568359375
776.3740234375	0.00833333333333333	1	-30	-6	2	0.62109375
779.482421875	0.00833333333333333	1	NaN	0	1	0.625
782.556640625	0.00833333333333333	1	NaN	-1	2	0.6708984375
785.4736328125	0.00833333333333333	1	NaN	-2	2	0.849609375
788.4072265625	0.00833333333333333	1	NaN	1	1	0.8203125
791.7314453125	0.00833333333333333	1	NaN	-3	1	0.671875
794.740234375	0.00833333333333333	1	NaN	2	2	0.615234375
797.623046875	0.00833333333333333	1	30	5	1	1.244140625
801.08984375	0.00833333333333333	1	-30	-7	1	1.5859375
804.798828125	0.00833333333333333	1	NaN	-2	1	2.220703125
809.115234375	0.00833333333333333	1	-30	-6	1	1.4326171875
812.7734375	0.00833333333333333	1	NaN	-1	1	1.53515625
816.6396484375	0.00833333333333333	1	NaN	0	2	1.044921875
820.0400390625	0.00833333333333333	1	30	6	2	0.7724609375
823.138671875	0.00833333333333333	1	-30	-5	1	1.0419921875
826.513671875	0.00833333333333333	1	NaN	-1	2	2.1796875
830.814453125	0.00833333333333333	1	NaN	-2	1	1.4384765625
834.48046875	0.00833333333333333	1	-30	-4	1	1.15625
837.9228515625	0.00833333333333333	1	NaN	-1	1	1.5859375
841.7978515625	0.00833333333333333	1	-30	-3	2	0.783203125
844.7978515625	0.00833333333333333	1	-30	-4	2	1.21484375
848.46484375	0.00833333333333333	1	NaN	0	2	0.884765625
851.48046875	0.00833333333333333	1	NaN	-1	1	0.6845703125
854.6220703125	0.00833333333333333	1	-30	-5	2	0.83984375
857.7890625	0.00833333333333333	1	-30	-6	1	0.7841796875
861.08984375	0.00833333333333333	1	30	4.33333333333333	1	0.8359375
864.3720703125	0.00833333333333333	1	NaN	0.0833333333333333	2	0.73828125
867.205078125	0.00833333333333333	1	NaN	-0.0416666666666667	2	0.712890625
870.2802734375	0.00833333333333333	1	NaN	-0.166666666666667	1	1.341796875
873.888671875	0.00833333333333333	1	30	3.33333333333333	1	0.7734375
876.9892578125	0.00833333333333333	1	-30	-6.41666666666667	1	0.79296875
880.3720703125	0.00833333333333333	1	30	4.45833333333333	2	0.6982421875
883.380859375	0.00833333333333333	1	-30	-7.41666666666667	1	0.833984375
886.654296875	0.00833333333333333	1	30	4.33333333333333	2	0.9521484375
889.6640625	0.00833333333333333	1	30	3.45833333333333	1	0.7265625
892.671875	0.00833333333333333	1	NaN	-0.916666666666667	1	0.8466796875
895.7294921875	0.00833333333333333	1	30	3.58333333333333	2	0.7333984375
898.896484375	0.00833333333333333	1	NaN	-0.0416666666666667	1	0.7744140625
901.9716796875	0.00833333333333333	1	30	3.45833333333333	1	0.7470703125
905.23046875	0.00833333333333333	1	-30	-7.29166666666667	1	0.9609375
908.6552734375	0.00833333333333333	1	NaN	-0.791666666666667	2	2.3681640625
913.580078125	0.00833333333333333	1	-30	-6.29166666666667	1	1.35546875
917.3798828125	0.00833333333333333	1	-30	-7.16666666666667	2	1.1474609375
920.7802734375	0.00833333333333333	1	NaN	-0.916666666666667	1	2.8837890625
925.7216796875	0.00833333333333333	1	-30	-6.16666666666667	1	1.4296875
929.2548828125	0.00833333333333333	1	30	4.20833333333333	2	1.041015625
932.4716796875	0.00833333333333333	1	30	3.58333333333333	2	1.16796875
935.74609375	0.00833333333333333	1	-30	-7.29166666666667	1	1.078125
939.154296875	0.00833333333333333	1	30	3.45833333333333	1	1.517578125
960.3447265625	0.00833333333333333	1	NaN	-0.791666666666667	1	2.14453125
964.970703125	0.00833333333333333	1	NaN	-0.666666666666667	1	2.0625
969.1962890625	0.00833333333333333	1	30	4.08333333333333	2	0.9404296875
972.529296875	0.00833333333333333	1	30	3.95833333333333	2	0.7119140625
975.4365234375	0.00833333333333333	1	-30	-6.04166666666667	1	0.78125
978.6796875	0.00833333333333333	1	NaN	-0.541666666666667	1	1.994140625
982.8955078125	0.00833333333333333	1	NaN	0.0833333333333333	2	1.2978515625
986.5703125	0.00833333333333333	1	NaN	-0.0416666666666667	1	1.0078125
989.7451171875	0.00833333333333333	1	-30	-7.16666666666667	1	0.7451171875
992.861328125	0.00833333333333333	1	30	3.58333333333333	2	0.7001953125
995.720703125	0.00833333333333333	1	30	3.45833333333333	1	1.0009765625
999.2119140625	0.00833333333333333	1	-30	-7.04166666666667	1	1.4384765625
1002.87890625	0.00833333333333333	1	-30	-5.91666666666667	2	1.1875
1006.4775390625	0.00833333333333333	1	NaN	-0.416666666666667	1	3.2529296875
1011.8115234375	0.00833333333333333	1	30	3.58333333333333	1	0.85546875
1014.728515625	0.00833333333333333	1	30	3.83333333333333	2	0.673828125
1017.6943359375	0.00833333333333333	1	NaN	-0.291666666666667	1	2.4765625
1022.6455078125	0.00833333333333333	1	30	3.70833333333333	1	0.9892578125
1025.677734375	0.00833333333333333	1	NaN	-0.166666666666667	2	0.7578125
1028.728515625	0.00833333333333333	1	-30	-6.04166666666667	2	0.7548828125
1031.8115234375	0.00833333333333333	1	NaN	-0.291666666666667	1	1.5517578125
1035.4365234375	0.00833333333333333	1	NaN	-0.166666666666667	2	1.5751953125
1039.3935546875	0.00833333333333333	1	NaN	0.0833333333333333	2	0.76953125
1042.6865234375	0.00833333333333333	1	30	3.70833333333333	2	0.8291015625
1045.9599609375	0.00833333333333333	1	-30	-6.16666666666667	1	1.1640625
1049.2861328125	0.00833333333333333	1	NaN	-0.291666666666667	2	0.7734375
1052.427734375	0.00833333333333333	1	NaN	-0.416666666666667	2	1.0244140625
1055.5361328125	0.00833333333333333	1	-30	-6.91666666666667	1	2.1875
1060.2109375	0.00833333333333333	1	-30	-6.04166666666667	1	0.9775390625
1063.294921875	0.00833333333333333	1	30	3.58333333333333	1	0.9970703125
1066.552734375	0.00833333333333333	1	-30	-5.91666666666667	1	1.34765625
1070.3193359375	0.00833333333333333	1	NaN	-0.0416666666666667	2	0.9013671875
1073.3779296875	0.00833333333333333	1	NaN	-0.166666666666667	2	1.123046875
1076.994140625	0.00833333333333333	1	-30	-5.79166666666667	2	0.826171875
1079.9853515625	0.00833333333333333	1	NaN	-0.541666666666667	1	1.4755859375
1083.9697265625	0.00833333333333333	1	30	3.70833333333333	1	0.947265625
1087.0693359375	0.00833333333333333	1	NaN	-0.291666666666667	2	0.767578125
1090.0517578125	0.00833333333333333	1	NaN	-0.416666666666667	2	1.2568359375
1093.677734375	0.00833333333333333	1	30	3.83333333333333	1	0.783203125
1096.7529296875	0.00833333333333333	1	-30	-6.79166666666667	2	0.6923828125
1099.626953125	0.00833333333333333	1	NaN	-0.541666666666667	2	0.8984375
1102.810546875	0.00833333333333333	1	-30	-5.91666666666667	1	0.9228515625
1106.0517578125	0.00833333333333333	1	30	3.83333333333333	1	0.8974609375
1109.4091796875	0.00833333333333333	1	30	3.95833333333333	1	1.140625
1112.935546875	0.00833333333333333	1	-30	-6.91666666666667	1	0.6943359375
1116.1435546875	0.00833333333333333	1	NaN	-0.416666666666667	1	4.822265625
1123.28515625	0.00833333333333333	1	-30	-6.79166666666667	1	0.80078125
1126.4765625	0.00833333333333333	1	-30	-5.79166666666667	1	1.9541015625
1130.46875	0.00833333333333333	1	30	3.95833333333333	2	0.5771484375
1133.1513671875	0.00833333333333333	1	-30	-5.66666666666667	1	0.798828125
1136.435546875	0.00833333333333333	1	NaN	-0.666666666666667	1	2.291015625
1140.9345703125	0.00833333333333333	1	NaN	-0.291666666666667	2	0.751953125
1143.884765625	0.00833333333333333	1	30	3.83333333333333	2	2.7138671875
1148.818359375	0.00833333333333333	1	-30	-5.54166666666667	1	0.9091796875
1152.1845703125	0.00833333333333333	1	-30	-6.66666666666667	1	2.0146484375
1156.326171875	0.00833333333333333	1	NaN	-0.541666666666667	2	1.4169921875
1160.150390625	0.00833333333333333	1	NaN	-0.666666666666667	2	1.5693359375
1164.201171875	0.00833333333333333	1	-30	-5.41666666666667	2	1.6865234375
1168.1181640625	0.00833333333333333	1	-30	-5.54166666666667	2	1.0810546875
1171.6845703125	0.00833333333333333	1	NaN	-0.416666666666667	2	1.947265625
1175.7841796875	0.00833333333333333	1	NaN	-0.791666666666667	1	1.3115234375
1179.359375	0.00833333333333333	1	NaN	-0.541666666666667	1	1.240234375
1183.109375	0.00833333333333333	1	NaN	-0.666666666666667	2	1.37890625
1186.7509765625	0.00833333333333333	1	30	3.70833333333333	2	0.9775390625
1189.8681640625	0.00833333333333333	1	NaN	-0.791666666666667	1	1.4365234375
1193.4501953125	0.00833333333333333	1	30	3.58333333333333	1	0.8466796875
1196.6337890625	0.00833333333333333	1	-30	-5.66666666666667	1	1.22265625
1200.2841796875	0.00833333333333333	1	30	4.08333333333333	1	0.8759765625
1203.333984375	0.00833333333333333	1	NaN	-0.666666666666667	1	0.9306640625
1206.8427734375	0.00833333333333333	1	30	3.70833333333333	2	0.8544921875
1210.2255859375	0.00833333333333333	1	-30	-6.54166666666667	1	1.2470703125
1213.6845703125	0.00833333333333333	1	NaN	-0.416666666666667	1	0.9248046875
1216.7919921875	0.00833333333333333	1	-30	-6.41666666666667	1	1.9609375
1221.19921875	0.00833333333333333	1	-30	-6.29166666666667	1	0.73046875
1224.0751953125	0.00833333333333333	1	NaN	-0.541666666666667	2	1.0703125
1227.583984375	0.00833333333333333	1	NaN	-0.666666666666667	2	0.9775390625
1230.6337890625	0.00833333333333333	1	-30	-6.16666666666667	1	1.1435546875
1234.025390625	0.00833333333333333	1	30	4.20833333333333	2	0.7119140625
1236.9921875	0.00833333333333333	1	-30	-5.54166666666667	2	1.345703125
1240.482421875	0.00833333333333333	1	NaN	-0.291666666666667	2	2.3271484375
1245.3671875	0.00833333333333333	1	NaN	-0.416666666666667	1	2.06640625
1249.7666015625	0.00833333333333333	1	-30	-6.04166666666667	2	7.6201171875
1259.44140625	0.00833333333333333	1	-30	-5.66666666666667	1	1.376953125
1286.541015625	0.00833333333333333	1	30	4.08333333333333	1	1.375
1290.31640625	0.00833333333333333	1	30	4.20833333333333	2	1.51953125
1294.1484375	0.00833333333333333	1	30	3.58333333333333	1	0.8232421875
1297.3828125	0.00833333333333333	1	-30	-6.16666666666667	2	0.61328125
1300.1982421875	0.00833333333333333	1	30	4.08333333333333	2	0.6376953125
1303.0908203125	0.00833333333333333	1	30	3.95833333333333	2	1.12890625
1306.291015625	0.00833333333333333	1	-30	-5.54166666666667	1	1.0732421875
1309.607421875	0.00833333333333333	1	30	3.83333333333333	2	0.8125
1312.599609375	0.00833333333333333	1	NaN	-0.291666666666667	2	0.724609375
1315.7158203125	0.00833333333333333	1	30	3.70833333333333	2	1.583984375
1319.765625	0.00833333333333333	1	-30	-6.29166666666667	1	0.87109375
1323.0654296875	0.00833333333333333	1	-30	-6.16666666666667	1	0.8427734375
1326.298828125	0.00833333333333333	1	NaN	-0.791666666666667	1	1.0419921875
1329.69921875	0.00833333333333333	1	30	3.58333333333333	1	1.8095703125
1333.7822265625	0.00833333333333333	1	30	3.70833333333333	2	0.7265625
1336.6982421875	0.00833333333333333	1	-30	-5.41666666666667	2	0.9228515625
1339.8828125	0.00833333333333333	1	-30	-6.04166666666667	1	2.8740234375
1344.931640625	0.00833333333333333	1	-30	-5.91666666666667	2	1.2734375
1348.6484375	0.00833333333333333	1	-30	-6.04166666666667	1	0.7490234375
1351.5986328125	0.00833333333333333	1	30	3.70833333333333	2	0.8310546875
1354.5322265625	0.00833333333333333	1	-30	-5.54166666666667	2	0.953125
1357.95703125	0.00833333333333333	1	-30	-5.66666666666667	1	1.0087890625
1361.390625	0.00833333333333333	1	NaN	-0.666666666666667	2	1.0556640625
1364.9736328125	0.00833333333333333	1	NaN	-0.791666666666667	2	0.9521484375
1368.306640625	0.00833333333333333	1	NaN	-0.416666666666667	2	0.794921875
1371.5234375	0.00833333333333333	1	-30	-5.54166666666667	2	0.73828125
1374.5654296875	0.00833333333333333	1	30	3.58333333333333	2	1.6171875
1378.3232421875	0.00833333333333333	1	30	3.58333333333333	2	0.8515625
1381.431640625	0.00833333333333333	1	-30	-5.91666666666667	2	1.150390625
1384.8310546875	0.00833333333333333	1	NaN	-0.916666666666667	2	0.9912109375
1388.189453125	0.00833333333333333	1	NaN	-1.04166666666667	1	0.7451171875
1391.2900390625	0.00833333333333333	1	-30	-5.66666666666667	2	2.044921875
1395.939453125	0.00833333333333333	1	-30	-6.04166666666667	2	0.859375
1398.931640625	0.00833333333333333	1	30	3.45833333333333	1	2.0751953125
1403.1396484375	0.00833333333333333	1	30	3.45833333333333	1	1.2431640625
1406.5146484375	0.00833333333333333	1	NaN	-0.541666666666667	1	1.876953125
1410.880859375	0.00833333333333333	1	30	3.58333333333333	1	1.263671875
1414.59765625	0.00833333333333333	1	30	3.58333333333333	2	2.6015625
1419.4384765625	0.00833333333333333	1	30	3.45833333333333	1	2.28125
1423.8896484375	0.00833333333333333	1	-30	-5.79166666666667	1	1.75
1427.6728515625	0.00833333333333333	1	30	3.70833333333333	2	1.0390625
1431.1806640625	0.00833333333333333	1	NaN	-0.416666666666667	2	3.0751953125
1436.630859375	0.00833333333333333	1	NaN	-0.916666666666667	2	1.513671875
1440.7470703125	0.00833333333333333	1	30	3.58333333333333	2	1.3017578125
1444.138671875	0.00833333333333333	1	NaN	-0.541666666666667	1	1.6943359375
1448.205078125	0.00833333333333333	1	-30	-5.66666666666667	2	1.02734375
1451.6220703125	0.00833333333333333	1	30	3.58333333333333	1	1.8583984375
1455.763671875	0.00833333333333333	1	-30	-6.16666666666667	2	2.9814453125
1461.0634765625	0.00833333333333333	1	30	3.70833333333333	2	0.7060546875
1464.2216796875	0.00833333333333333	1	NaN	-1.04166666666667	2	0.8271484375
1467.11328125	0.00833333333333333	1	-30	-6.29166666666667	2	0.7197265625
1470.25390625	0.00833333333333333	1	-30	-6.41666666666667	2	1.9072265625
1474.3056640625	0.00833333333333333	1	NaN	-1.16666666666667	1	1.1201171875
1477.5302734375	0.00833333333333333	1	NaN	-0.416666666666667	2	0.966796875
1480.9638671875	0.00833333333333333	1	30	3.58333333333333	2	0.830078125
1483.9375	0.00833333333333333	1	-30	-6.54166666666667	2	1.7998046875
1487.921875	0.00833333333333333	1	-30	-6.66666666666667	1	1.2236328125
1491.6630859375	0.00833333333333333	1	-30	-5.79166666666667	1	1.05078125
1495.1552734375	0.00833333333333333	1	-30	-6.54166666666667	2	0.7109375
1498.0634765625	0.00833333333333333	1	-30	-5.66666666666667	2	0.802734375
1501.24609375	0.00833333333333333	1	30	3.45833333333333	2	0.828125
1504.4052734375	0.00833333333333333	1	-30	-6.66666666666667	2	1.1171875
1507.88671875	0.00833333333333333	1	30	3.33333333333333	1	1.1162109375
1511.2705078125	0.00833333333333333	1	30	3.45833333333333	2	0.732421875
1514.2880859375	0.00833333333333333	1	-30	-6.79166666666667	2	0.779296875
1517.3466796875	0.00833333333333333	1	30	3.33333333333333	1	1.072265625
1520.6875	0.00833333333333333	1	30	3.45833333333333	2	0.7314453125
1523.5791015625	0.00833333333333333	1	-30	-6.91666666666667	1	0.599609375
1526.6298828125	0.00833333333333333	1	-30	-6.79166666666667	1	0.8369140625
1529.7958984375	0.00833333333333333	1	-30	-6.66666666666667	2	3.3994140625
1535.2783203125	0.00833333333333333	1	-30	-6.79166666666667	1	1.189453125
1538.9873046875	0.00833333333333333	1	-30	-6.66666666666667	2	0.83203125
1542.2880859375	0.00833333333333333	0	30	3.57083333333333	2	2.3955078125
1547.1953125	0.00833333333333333	0	30	3.57083333333333	1	2.3203125
1551.7294921875	0.00833333333333333	0	30	3.57083333333333	2	1.8662109375
1555.845703125	0.00833333333333333	0	30	3.57083333333333	2	3.5107421875
1561.4873046875	0.00833333333333333	0	-30	-6.04166666666667	2	1.541015625
1565.37890625	0.00833333333333333	0	30	3.57083333333333	1	1.4814453125
1569.0869140625	0.00833333333333333	0	30	3.57083333333333	2	0.861328125
1572.3623046875	0.00833333333333333	0	-30	-6.04166666666667	2	2.322265625
1576.7373046875	0.00833333333333333	0	-30	-6.04166666666667	2	0.859375
1579.9873046875	0.00833333333333333	0	30	3.57083333333333	1	0.9853515625
1583.0859375	0.00833333333333333	0	-30	-6.04166666666667	2	1.783203125
1587.3623046875	0.00833333333333333	0	-30	-6.04166666666667	2	1.04296875
1590.5947265625	0.00833333333333333	0	30	3.57083333333333	2	1.07421875
1594.1953125	0.00833333333333333	0	-30	-6.16666666666667	2	0.8662109375
1597.537109375	0.00833333333333333	0	-30	-6.16666666666667	2	1.556640625
1601.4951171875	0.00833333333333333	0	-30	-6.16666666666667	2	0.90234375
1604.802734375	0.00833333333333333	0	30	3.57083333333333	2	1.70703125
1609.01171875	0.00833333333333333	0	30	3.57083333333333	2	0.7783203125
1612.1279296875	0.00833333333333333	0	-30	-6.16666666666667	1	1.1259765625
1615.677734375	0.00833333333333333	0	30	3.57083333333333	1	0.9443359375
1619.111328125	0.00833333333333333	0	30	3.57083333333333	2	1.294921875
1622.7109375	0.00833333333333333	0	-30	-6.16666666666667	2	0.8388671875
1625.7197265625	0.00833333333333333	0	-30	-6.16666666666667	2	2.142578125
1629.953125	0.00833333333333333	0	-30	-6.16666666666667	1	2.2451171875
1634.3359375	0.00833333333333333	0	30	3.57083333333333	2	0.958984375
1637.427734375	0.00833333333333333	0	30	3.57083333333333	2	1.73046875
1641.328125	0.00833333333333333	0	30	3.57083333333333	2	0.734375
1644.328125	0.00833333333333333	0	-30	-6.16666666666667	1	2.22265625
1648.810546875	0.00833333333333333	0	30	3.57083333333333	2	0.7880859375
1651.935546875	0.00833333333333333	0	-30	-6.16666666666667	2	2.447265625
1656.8681640625	0.00833333333333333	0	-30	-6.16666666666667	2	0.84375
1660.1845703125	0.00833333333333333	0	-30	-6.16666666666667	1	0.88671875
1663.251953125	0.00833333333333333	0	-30	-6.16666666666667	1	0.9873046875
1666.5439453125	0.00833333333333333	0	30	3.44583333333333	2	0.783203125
1669.4189453125	0.00833333333333333	0	-30	-6.16666666666667	2	1.0849609375
1672.5771484375	0.00833333333333333	0	30	3.44583333333333	1	2.390625
1677.1103515625	0.00833333333333333	0	-30	-6.16666666666667	1	1.009765625
1680.6015625	0.00833333333333333	0	-30	-6.16666666666667	1	2.2548828125
1684.9443359375	0.00833333333333333	0	30	3.44583333333333	2	2.263671875
1689.6103515625	0.00833333333333333	0	-30	-6.16666666666667	2	2.2939453125
1694.1015625	0.00833333333333333	0	30	3.44583333333333	1	1.9384765625
1698.4267578125	0.00833333333333333	0	-30	-6.16666666666667	1	1.7822265625
1702.509765625	0.00833333333333333	0	30	3.44583333333333	2	0.8671875
1705.501953125	0.00833333333333333	0	-30	-6.16666666666667	2	2.3388671875
1710.1591796875	0.00833333333333333	0	30	3.44583333333333	1	1.2900390625
1713.7353515625	0.00833333333333333	0	30	3.44583333333333	1	3.322265625
1719.5185546875	0.00833333333333333	0	-30	-6.16666666666667	1	1.71484375
1723.66015625	0.00833333333333333	0	-30	-6.16666666666667	2	1.6376953125
1727.3505859375	0.00833333333333333	0	-30	-6.16666666666667	2	3.8349609375
1733.7431640625	0.00833333333333333	0	-30	-6.16666666666667	1	3.314453125
1739.134765625	0.00833333333333333	0	30	3.44583333333333	1	3.4111328125
1744.7431640625	0.00833333333333333	0	-30	-6.16666666666667	1	0.875
1747.9013671875	0.00833333333333333	0	30	3.44583333333333	2	0.9970703125
1751.4423828125	0.00833333333333333	0	-30	-6.16666666666667	1	2.1357421875
1755.8515625	0.00833333333333333	0	-30	-6.16666666666667	2	0.958984375
1759.083984375	0.00833333333333333	0	30	3.44583333333333	2	1.478515625
1762.767578125	0.00833333333333333	0	30	3.44583333333333	1	0.947265625
1766.1005859375	0.00833333333333333	0	-30	-6.16666666666667	1	0.91796875
1769.18359375	0.00833333333333333	0	30	3.44583333333333	1	2.7470703125
1774.3173828125	0.00833333333333333	0	30	3.44583333333333	2	0.861328125
1777.4091796875	0.00833333333333333	0	-30	-6.16666666666667	2	0.90625
1780.6591796875	0.00833333333333333	0	-30	-6.16666666666667	2	1.3037109375
1784.025390625	0.00833333333333333	0	30	3.44583333333333	2	0.9775390625
1787.5498046875	0.00833333333333333	0	30	3.44583333333333	2	2.3017578125
1791.966796875	0.00833333333333333	0	-30	-6.16666666666667	1	2.8369140625
1797.2255859375	0.00833333333333333	0	-30	-6.16666666666667	1	1.001953125
1800.2666015625	0.00833333333333333	0	30	3.44583333333333	2	0.79296875
1803.525390625	0.00833333333333333	0	30	3.44583333333333	1	2.8388671875
1808.7001953125	0.00833333333333333	0	30	3.44583333333333	2	0.7763671875
1811.583984375	0.00833333333333333	0	30	3.44583333333333	2	1.1318359375
1814.9169921875	0.00833333333333333	0	-30	-6.16666666666667	2	0.87109375
1818.0576171875	0.00833333333333333	0	30	3.44583333333333	2	2.298828125
1822.6748046875	0.00833333333333333	0	30	3.44583333333333	1	0.7138671875
1825.775390625	0.00833333333333333	0	-30	-6.16666666666667	1	1.677734375
1829.7666015625	0.00833333333333333	0	30	3.44583333333333	2	1.23828125
1833.4833984375	0.00833333333333333	0	30	3.44583333333333	2	0.8095703125
1836.408203125	0.00833333333333333	0	30	3.44583333333333	2	1.0048828125
1839.5166015625	0.00833333333333333	0	-30	-6.16666666666667	2	1.0087890625
1843.033203125	0.00833333333333333	0	30	3.44583333333333	2	1.0439453125
1846.240234375	0.00833333333333333	0	30	3.44583333333333	2	1.2451171875
1878.94140625	0.00833333333333333	0	30	3.32083333333333	2	1.728515625
1882.8408203125	0.00833333333333333	0	-30	-6.16666666666667	1	0.9736328125
1886.3076171875	0.00833333333333333	0	-30	-6.16666666666667	2	0.8193359375
1889.173828125	0.00833333333333333	0	-30	-6.16666666666667	2	0.6171875
1892.048828125	0.00833333333333333	0	-30	-6.16666666666667	2	0.93359375
1895.357421875	0.00833333333333333	0	30	3.32083333333333	1	0.8896484375
1898.7412109375	0.00833333333333333	0	30	3.32083333333333	2	0.9140625
1902.041015625	0.00833333333333333	0	30	3.32083333333333	1	0.9423828125
1905.20703125	0.00833333333333333	0	-30	-6.16666666666667	2	3.2880859375
1910.7568359375	0.00833333333333333	0	30	3.32083333333333	1	1.6025390625
1914.7392578125	0.00833333333333333	0	-30	-6.16666666666667	2	0.8359375
1917.7236328125	0.00833333333333333	0	-30	-6.29166666666667	2	1.8291015625
1921.8740234375	0.00833333333333333	0	30	3.32083333333333	1	0.8134765625
1925.20703125	0.00833333333333333	0	30	3.32083333333333	2	0.6484375
1928.2646484375	0.00833333333333333	0	30	3.32083333333333	1	0.935546875
1931.689453125	0.00833333333333333	0	-30	-6.29166666666667	1	0.806640625
1934.9150390625	0.00833333333333333	0	30	3.32083333333333	2	1.5087890625
1938.5732421875	0.00833333333333333	0	30	3.32083333333333	2	0.71484375
1941.46484375	0.00833333333333333	0	30	3.32083333333333	1	1.18359375
1944.9228515625	0.00833333333333333	0	30	3.32083333333333	2	1.1181640625
1948.2568359375	0.00833333333333333	0	-30	-6.29166666666667	2	0.927734375
1951.5478515625	0.00833333333333333	0	-30	-6.29166666666667	1	0.724609375
1954.865234375	0.00833333333333333	0	30	3.32083333333333	1	0.775390625
1958.03125	0.00833333333333333	0	-30	-6.29166666666667	1	1.2099609375
1961.4814453125	0.00833333333333333	0	30	3.32083333333333	2	0.6396484375
1964.3310546875	0.00833333333333333	0	30	3.32083333333333	2	0.7177734375
1967.47265625	0.00833333333333333	0	30	3.32083333333333	1	0.6884765625
1970.2548828125	0.00833333333333333	0	30	3.32083333333333	2	1.5146484375
1974.0224609375	0.00833333333333333	0	30	3.32083333333333	2	2.1630859375
1978.623046875	0.00833333333333333	0	-30	-6.29166666666667	2	1.314453125
1982.4814453125	0.00833333333333333	0	30	3.32083333333333	1	0.8564453125
1985.6064453125	0.00833333333333333	0	30	3.32083333333333	1	1.2353515625
1989.15625	0.00833333333333333	0	-30	-6.29166666666667	1	1.0458984375
1992.3642578125	0.00833333333333333	0	30	3.32083333333333	2	0.8544921875
1995.4140625	0.00833333333333333	0	-30	-6.29166666666667	2	2.1162109375
1999.73828125	0.00833333333333333	0	30	3.32083333333333	2	0.7998046875
2002.7890625	0.00833333333333333	0	30	3.32083333333333	2	0.94921875
2005.888671875	0.00833333333333333	0	-30	-6.29166666666667	1	0.7861328125
2009.189453125	0.00833333333333333	0	30	3.32083333333333	2	0.8369140625
2012.48046875	0.00833333333333333	0	-30	-6.29166666666667	1	3.2099609375
2017.921875	0.00833333333333333	0	-30	-6.29166666666667	1	1.2568359375
2021.447265625	0.00833333333333333	0	-30	-6.29166666666667	1	1.0595703125
2024.638671875	0.00833333333333333	0	30	3.32083333333333	2	0.7880859375
2027.546875	0.00833333333333333	0	-30	-6.29166666666667	1	0.82421875
2030.546875	0.00833333333333333	0	30	3.19583333333333	2	0.6484375
2033.4306640625	0.00833333333333333	0	-30	-6.16666666666667	1	0.9326171875
2036.4052734375	0.00833333333333333	0	-30	-6.16666666666667	2	0.646484375
2039.4970703125	0.00833333333333333	0	-30	-6.16666666666667	1	0.8349609375
2042.580078125	0.00833333333333333	0	-30	-6.16666666666667	2	0.583984375
2045.4541015625	0.00833333333333333	0	-30	-6.16666666666667	1	1.357421875
2049.2548828125	0.00833333333333333	0	30	3.19583333333333	1	1.0927734375
2052.421875	0.00833333333333333	0	30	3.19583333333333	1	0.998046875
2055.521484375	0.00833333333333333	0	-30	-6.16666666666667	1	0.74609375
2058.8544921875	0.00833333333333333	0	-30	-6.16666666666667	1	0.78125
2062.0302734375	0.00833333333333333	0	30	3.19583333333333	2	0.58984375
2064.7373046875	0.00833333333333333	0	30	3.19583333333333	1	1.01171875
2068.1708984375	0.00833333333333333	0	-30	-6.16666666666667	2	0.9697265625
2071.3212890625	0.00833333333333333	0	30	3.19583333333333	2	0.923828125
2074.3466796875	0.00833333333333333	0	30	3.19583333333333	1	0.8017578125
2077.470703125	0.00833333333333333	0	30	3.19583333333333	2	0.638671875
2080.51171875	0.00833333333333333	0	30	3.19583333333333	2	0.7568359375
2083.5869140625	0.00833333333333333	0	30	3.19583333333333	2	1.0263671875
2087.1455078125	0.00833333333333333	0	30	3.19583333333333	2	0.779296875
2089.98828125	0.00833333333333333	0	-30	-6.16666666666667	2	0.6328125
2092.9365234375	0.00833333333333333	0	30	3.19583333333333	2	1.2685546875
2096.478515625	0.00833333333333333	0	30	3.07083333333333	1	0.8232421875
2099.462890625	0.00833333333333333	0	-30	-6.16666666666667	1	0.791015625
2102.5458984375	0.00833333333333333	0	-30	-6.16666666666667	2	0.6435546875
2105.462890625	0.00833333333333333	0	-30	-6.16666666666667	2	0.7587890625
2108.404296875	0.00833333333333333	0	-30	-6.16666666666667	2	0.7216796875
2111.6962890625	0.00833333333333333	0	30	3.07083333333333	1	1.3740234375
2115.25390625	0.00833333333333333	0	-30	-6.16666666666667	1	0.671875
2118.4541015625	0.00833333333333333	0	-30	-6.16666666666667	1	0.83203125
2121.470703125	0.00833333333333333	0	-30	-6.16666666666667	2	2.111328125
2125.912109375	0.00833333333333333	0	-30	-6.16666666666667	1	0.822265625
2128.8623046875	0.00833333333333333	0	-30	-6.16666666666667	1	0.81640625
2132.052734375	0.00833333333333333	0	30	3.07083333333333	2	0.90625
2135.0537109375	0.00833333333333333	0	30	3.07083333333333	1	0.9853515625
2138.529296875	0.00833333333333333	0	-30	-6.16666666666667	1	0.6376953125
2141.5205078125	0.00833333333333333	0	30	3.07083333333333	1	0.806640625
2201.310546875	0.00833333333333333	0	30	3.07083333333333	1	1.41796875
2204.8857421875	0.00833333333333333	0	30	3.07083333333333	1	0.9072265625
2208.009765625	0.00833333333333333	0	30	3.07083333333333	2	1.359375
2211.6865234375	0.00833333333333333	0	-30	-6.16666666666667	2	1.21875
2215.0283203125	0.00833333333333333	0	30	3.07083333333333	1	1.220703125
2218.6357421875	0.00833333333333333	0	-30	-6.16666666666667	2	1.021484375
2222.1865234375	0.00833333333333333	0	-30	-6.16666666666667	2	1.0390625
2225.39453125	0.00833333333333333	0	-30	-6.16666666666667	1	0.8388671875
2228.486328125	0.00833333333333333	0	30	3.07083333333333	2	0.7392578125
2231.568359375	0.00833333333333333	0	-30	-6.16666666666667	2	1.0419921875
2234.6611328125	0.00833333333333333	0	-30	-6.16666666666667	1	0.884765625
2237.7939453125	0.00833333333333333	0	-30	-6.16666666666667	1	0.81640625
2240.9775390625	0.00833333333333333	0	30	3.07083333333333	1	0.7685546875
2243.90234375	0.00833333333333333	0	-30	-6.16666666666667	2	0.771484375
2247.0439453125	0.00833333333333333	0	30	3.07083333333333	2	1.3349609375
2250.8095703125	0.00833333333333333	0	30	3.07083333333333	2	0.8173828125
2253.9189453125	0.00833333333333333	0	30	3.07083333333333	2	0.7080078125
2256.7353515625	0.00833333333333333	0	-30	-6.16666666666667	1	1.05078125
2259.9765625	0.00833333333333333	0	-30	-6.16666666666667	2	0.658203125
2262.943359375	0.00833333333333333	0	30	3.07083333333333	1	0.7392578125
2265.876953125	0.00833333333333333	0	-30	-6.16666666666667	2	0.5576171875
2268.634765625	0.00833333333333333	0	30	3.07083333333333	1	0.6240234375
2271.7607421875	0.00833333333333333	0	30	3.07083333333333	2	0.6904296875
2274.66015625	0.00833333333333333	0	30	3.07083333333333	2	0.9189453125
2277.77734375	0.00833333333333333	0	-30	-6.16666666666667	1	0.666015625
2280.8935546875	0.00833333333333333	0	30	3.07083333333333	2	1.3662109375
2284.3603515625	0.00833333333333333	0	30	3.07083333333333	1	0.71484375
2287.3095703125	0.00833333333333333	0	30	3.07083333333333	1	1.7900390625
2291.626953125	0.00833333333333333	0	-30	-6.16666666666667	2	0.9443359375
2295.1259765625	0.00833333333333333	0	-30	-6.16666666666667	1	0.693359375
2298.3017578125	0.00833333333333333	0	-30	-6.16666666666667	2	0.6376953125
2301.109375	0.00833333333333333	0	30	3.07083333333333	2	0.8388671875
2304.17578125	0.00833333333333333	0	-30	-6.16666666666667	1	0.755859375
2307.275390625	0.00833333333333333	0	30	3.07083333333333	2	0.984375
2310.5009765625	0.00833333333333333	0	-30	-6.16666666666667	1	0.5595703125
2313.3671875	0.00833333333333333	0	-30	-6.16666666666667	1	1.013671875
2316.68359375	0.00833333333333333	0	30	3.07083333333333	2	0.6650390625
2319.4013671875	0.00833333333333333	0	-30	-6.16666666666667	1	0.763671875
2322.333984375	0.00833333333333333	0	-30	-6.16666666666667	1	0.8310546875
2325.267578125	0.00833333333333333	0	30	3.07083333333333	2	0.7373046875
2328.25	0.00833333333333333	0	30	3.07083333333333	2	1.1787109375
2331.7080078125	0.00833333333333333	0	30	2.94583333333333	2	2.232421875
2336.1513671875	0.00833333333333333	0	-30	-6.04166666666667	1	0.9013671875
2339.3759765625	0.00833333333333333	0	-30	-6.04166666666667	2	0.765625
2342.3759765625	0.00833333333333333	0	-30	-6.04166666666667	1	1.3017578125
2345.8095703125	0.00833333333333333	0	-30	-6.04166666666667	2	0.771484375
2348.8916015625	0.00833333333333333	0	30	2.94583333333333	1	0.8173828125
2352.083984375	0.00833333333333333	0	-30	-6.04166666666667	2	0.8974609375
2355.275390625	0.00833333333333333	0	-30	-6.04166666666667	1	0.5302734375
2357.9580078125	0.00833333333333333	0	-30	-6.04166666666667	2	0.6796875
2360.8671875	0.00833333333333333	0	30	2.94583333333333	2	0.978515625
2364.0341796875	0.00833333333333333	0	30	2.94583333333333	2	1.1640625
2367.724609375	0.00833333333333333	0	-30	-6.04166666666667	2	2.033203125
2372.1005859375	0.00833333333333333	0	30	2.94583333333333	2	1.44921875
2375.9169921875	0.00833333333333333	0	-30	-6.04166666666667	1	1.4970703125
2379.833984375	0.00833333333333333	0	30	2.94583333333333	2	1.1005859375
2383.05859375	0.00833333333333333	0	-30	-6.04166666666667	1	0.8359375
2386.05859375	0.00833333333333333	0	-30	-6.04166666666667	1	1.66015625
2389.8505859375	0.00833333333333333	0	30	2.94583333333333	1	0.755859375
2392.8671875	0.00833333333333333	0	-30	-6.04166666666667	2	0.68359375
2395.7080078125	0.00833333333333333	0	-30	-6.04166666666667	1	0.7626953125
2398.6494140625	0.00833333333333333	0	-30	-6.04166666666667	2	0.7900390625
2401.6171875	0.00833333333333333	0	-30	-6.04166666666667	1	0.998046875
2405	0.00833333333333333	0	-30	-6.04166666666667	1	0.935546875
2408.224609375	0.00833333333333333	0	-30	-6.04166666666667	2	0.87890625
2411.5244140625	0.00833333333333333	0	30	2.94583333333333	1	1.4111328125
2415.2333984375	0.00833333333333333	0	30	2.94583333333333	2	0.974609375
2418.4580078125	0.00833333333333333	0	-30	-6.04166666666667	1	0.853515625
2421.6162109375	0.00833333333333333	0	30	2.94583333333333	1	1.0078125
2425.033203125	0.00833333333333333	0	-30	-6.04166666666667	1	0.951171875
2428.1240234375	0.00833333333333333	0	-30	-6.04166666666667	2	0.7802734375
2431.033203125	0.00833333333333333	0	30	2.94583333333333	1	0.86328125
2434.3916015625	0.00833333333333333	0	30	2.94583333333333	2	1.2490234375
2438.1494140625	0.00833333333333333	0	-30	-6.04166666666667	1	1.3544921875
2441.6494140625	0.00833333333333333	0	-30	-6.04166666666667	1	1.1435546875
2445.1982421875	0.00833333333333333	0	30	2.94583333333333	2	0.73828125
2447.974609375	0.00833333333333333	0	-30	-6.04166666666667	1	0.7705078125
2451.0078125	0.00833333333333333	0	-30	-6.04166666666667	2	0.81640625
2454.1748046875	0.00833333333333333	0	30	2.94583333333333	1	0.673828125
2457.2490234375	0.00833333333333333	0	-30	-6.04166666666667	2	1.576171875
2472.732421875	0.00833333333333333	0	30	2.94583333333333	1	1.5009765625
2476.45703125	0.00833333333333333	0	30	2.94583333333333	2	1.041015625
2479.9658203125	0.00833333333333333	0	30	2.94583333333333	2	0.9404296875
2483.0322265625	0.00833333333333333	0	-30	-6.04166666666667	1	0.7138671875
2486.1474609375	0.00833333333333333	0	-30	-6.04166666666667	1	1.2783203125
2489.5390625	0.00833333333333333	0	30	2.94583333333333	1	0.8232421875
2492.4150390625	0.00833333333333333	0	-30	-6.04166666666667	2	0.619140625
2495.3056640625	0.00833333333333333	0	30	2.94583333333333	1	0.9287109375
2498.33203125	0.00833333333333333	0	-30	-6.04166666666667	1	1.318359375
2501.8564453125	0.00833333333333333	0	30	2.94583333333333	2	0.8818359375
2505.0654296875	0.00833333333333333	0	-30	-6.04166666666667	2	0.7216796875
2508.0068359375	0.00833333333333333	0	30	2.94583333333333	2	1.171875
2511.4404296875	0.00833333333333333	0	-30	-6.04166666666667	1	1.498046875
2515.1982421875	0.00833333333333333	0	30	2.94583333333333	1	0.876953125
2518.3896484375	0.00833333333333333	0	-30	-6.04166666666667	2	0.9892578125
2521.8310546875	0.00833333333333333	0	-30	-6.04166666666667	1	0.8603515625
2525.056640625	0.00833333333333333	0	30	2.94583333333333	1	0.73046875
2528.0234375	0.00833333333333333	0	-30	-6.04166666666667	2	1.595703125
2531.71484375	0.00833333333333333	0	30	2.94583333333333	1	0.8564453125
2534.7568359375	0.00833333333333333	0	30	2.94583333333333	2	1.5107421875
2538.8642578125	0.00833333333333333	0	30	2.94583333333333	1	0.6669921875
2541.8564453125	0.00833333333333333	0	-30	-6.04166666666667	1	0.8349609375
2544.931640625	0.00833333333333333	0	-30	-6.04166666666667	2	1.65625
2548.7392578125	0.00833333333333333	0	30	2.94583333333333	2	0.705078125
2551.7802734375	0.00833333333333333	0	-30	-6.04166666666667	1	1.16015625
2555.1630859375	0.00833333333333333	0	30	2.94583333333333	2	0.857421875
2558.28125	0.00833333333333333	0	30	2.94583333333333	1	2.619140625
2563.0390625	0.00833333333333333	0	-30	-6.04166666666667	1	0.708984375
2566.0478515625	0.00833333333333333	0	30	2.94583333333333	1	0.884765625
2569.388671875	0.00833333333333333	0	30	2.94583333333333	2	1.83203125
2573.4140625	0.00833333333333333	0	30	2.94583333333333	2	1.0546875
2576.8974609375	0.00833333333333333	0	30	2.94583333333333	1	0.8271484375
2580.005859375	0.00833333333333333	0	-30	-6.04166666666667	1	0.9912109375
2583.2890625	0.00833333333333333	0	30	2.94583333333333	1	1.01171875
2586.47265625	0.00833333333333333	0	30	2.94583333333333	2	1.125
2589.712890625	0.00833333333333333	0	30	2.94583333333333	1	0.7080078125
2592.6806640625	0.00833333333333333	0	30	2.94583333333333	1	0.732421875
2595.580078125	0.00833333333333333	0	30	2.94583333333333	2	1.369140625
2599.1123046875	0.00833333333333333	0	30	2.94583333333333	1	0.693359375
2602.1640625	0.00833333333333333	0	-30	-6.04166666666667	1	1.001953125
2605.455078125	0.00833333333333333	0	30	2.94583333333333	1	0.7666015625
2608.73828125	0.00833333333333333	0	-30	-6.04166666666667	1	0.7158203125
2611.7373046875	0.00833333333333333	0	30	2.94583333333333	2	0.8603515625
2614.671875	0.00833333333333333	0	30	2.94583333333333	1	0.830078125
2617.8466796875	0.00833333333333333	0	-30	-5.91666666666667	2	0.7998046875
2620.771484375	0.00833333333333333	0	30	2.94583333333333	1	0.6669921875
2623.7216796875	0.00833333333333333	0	30	2.94583333333333	1	2.052734375
2627.9130859375	0.00833333333333333	0	-30	-5.91666666666667	1	0.9970703125
2631.0048828125	0.00833333333333333	0	30	2.94583333333333	2	0.8740234375
2634.11328125	0.00833333333333333	0	30	2.94583333333333	1	0.7978515625
2637.1552734375	0.00833333333333333	0	-30	-5.91666666666667	2	0.8994140625
2640.421875	0.00833333333333333	0	30	2.94583333333333	1	0.6728515625
2643.4716796875	0.00833333333333333	0	-30	-5.91666666666667	1	0.6875
2646.6376953125	0.00833333333333333	0	30	2.94583333333333	1	1.0576171875
2650.24609375	0.00833333333333333	0	-30	-5.91666666666667	2	2.0087890625
2654.396484375	0.00833333333333333	0	30	2.94583333333333	2	1.3466796875
2657.978515625	0.00833333333333333	0	-30	-5.91666666666667	1	1.2373046875
2661.779296875	0.00833333333333333	0	-30	-5.91666666666667	1	0.98828125
2665.2041015625	0.00833333333333333	0	30	2.94583333333333	2	0.7158203125
2668.4619140625	0.00833333333333333	0	-30	-5.91666666666667	1	0.7783203125
2671.7705078125	0.00833333333333333	0	-30	-5.91666666666667	2	0.6533203125
2674.779296875	0.00833333333333333	0	-30	-5.91666666666667	1	1.052734375
2678.1875	0.00833333333333333	0	-30	-5.91666666666667	2	1.212890625
2681.9296875	0.00833333333333333	0	30	2.94583333333333	2	3.375
2687.5712890625	0.00833333333333333	0	-30	-5.91666666666667	1	1.9970703125
2691.8544921875	0.00833333333333333	0	30	2.94583333333333	1	1.658203125
2695.8876953125	0.00833333333333333	0	-30	-5.91666666666667	1	3.529296875
2701.87109375	0.00833333333333333	0	30	2.94583333333333	2	0.841796875
2704.8876953125	0.00833333333333333	0	-30	-5.91666666666667	1	3.2734375
2710.51171875	0.00833333333333333	0	30	2.94583333333333	2	0.865234375
2713.4951171875	0.00833333333333333	0	30	2.94583333333333	2	0.9697265625
2716.6787109375	0.00833333333333333	0	30	2.94583333333333	2	1.37890625
2720.26953125	0.00833333333333333	0	-30	-5.91666666666667	1	0.908203125
2723.4951171875	0.00833333333333333	0	-30	-5.91666666666667	1	0.7626953125
2726.6533203125	0.00833333333333333	0	-30	-5.79166666666667	2	0.732421875
2729.7783203125	0.00833333333333333	0	30	2.94583333333333	1	0.8798828125
2732.935546875	0.00833333333333333	0	-30	-5.79166666666667	1	0.642578125
2735.6787109375	0.00833333333333333	0	30	2.94583333333333	2	0.787109375
2738.986328125	0.00833333333333333	0	-30	-5.79166666666667	2	1
2742.419921875	0.00833333333333333	0	30	2.94583333333333	2	0.814453125
2773.13671875	0.00833333333333333	0	30	2.94583333333333	1	1.25
2776.626953125	0.00833333333333333	0	-30	-5.79166666666667	2	0.697265625
2779.453125	0.00833333333333333	0	30	2.94583333333333	1	0.8623046875
2782.4013671875	0.00833333333333333	0	30	2.94583333333333	1	0.8095703125
2785.2197265625	0.00833333333333333	0	-30	-5.79166666666667	1	1.015625
2788.3525390625	0.00833333333333333	0	30	2.94583333333333	2	1.0029296875
2791.8271484375	0.00833333333333333	0	30	2.94583333333333	1	0.9609375
2795.2109375	0.00833333333333333	0	30	2.94583333333333	2	0.6650390625
2798.0029296875	0.00833333333333333	0	-30	-5.79166666666667	1	0.705078125
2800.943359375	0.00833333333333333	0	30	2.94583333333333	2	1.0361328125
2804.2431640625	0.00833333333333333	0	30	2.94583333333333	1	1.224609375
2807.626953125	0.00833333333333333	0	30	2.94583333333333	2	0.8330078125
2810.7275390625	0.00833333333333333	0	-30	-5.79166666666667	1	1.1328125
2814.119140625	0.00833333333333333	0	-30	-5.79166666666667	1	1.1572265625
2817.435546875	0.00833333333333333	0	30	2.94583333333333	2	0.6171875
2820.1943359375	0.00833333333333333	0	-30	-5.79166666666667	1	0.7626953125
2823.119140625	0.00833333333333333	0	30	2.94583333333333	1	2.1416015625
2827.66015625	0.00833333333333333	0	-30	-5.66666666666667	1	0.8642578125
2830.6181640625	0.00833333333333333	0	-30	-5.66666666666667	1	0.7783203125
2833.501953125	0.00833333333333333	0	-30	-5.66666666666667	1	0.7431640625
2836.4521484375	0.00833333333333333	0	-30	-5.66666666666667	1	1.033203125
2839.67578125	0.00833333333333333	0	30	2.94583333333333	2	0.6171875
2842.693359375	0.00833333333333333	0	30	2.94583333333333	1	0.6640625
2845.568359375	0.00833333333333333	0	-30	-5.66666666666667	2	1.2451171875
2849.193359375	0.00833333333333333	0	30	2.94583333333333	2	0.748046875
2852.0517578125	0.00833333333333333	0	-30	-5.66666666666667	1	0.8662109375
2855.1767578125	0.00833333333333333	0	30	2.94583333333333	1	0.62109375
2858.0009765625	0.00833333333333333	0	-30	-5.66666666666667	1	0.724609375
2861.1513671875	0.00833333333333333	0	30	2.94583333333333	2	0.791015625
2864.126953125	0.00833333333333333	0	30	2.94583333333333	1	0.6787109375
2867.384765625	0.00833333333333333	0	30	2.94583333333333	2	1.59765625
2871.384765625	0.00833333333333333	0	30	2.94583333333333	2	1.2138671875
2874.818359375	0.00833333333333333	0	30	2.94583333333333	2	0.8837890625
2877.8349609375	0.00833333333333333	0	-30	-5.66666666666667	1	1.69140625
2881.8251953125	0.00833333333333333	0	30	2.94583333333333	2	0.708984375
2884.859375	0.00833333333333333	0	-30	-5.66666666666667	1	0.8994140625
2887.8427734375	0.00833333333333333	0	30	2.94583333333333	2	0.7080078125
2890.8505859375	0.00833333333333333	0	-30	-5.66666666666667	2	3.6845703125
2897.0927734375	0.00833333333333333	0	30	2.82083333333333	1	1.05078125
2900.509765625	0.00833333333333333	0	-30	-5.66666666666667	2	0.78515625
2903.5341796875	0.00833333333333333	0	-30	-5.66666666666667	2	1.6650390625
2907.6845703125	0.00833333333333333	0	30	2.82083333333333	1	1.123046875
2911.1005859375	0.00833333333333333	0	30	2.82083333333333	2	0.962890625
2914.4677734375	0.00833333333333333	0	-30	-5.66666666666667	2	1.763671875
2918.7421875	0.00833333333333333	0	30	2.82083333333333	1	0.8017578125
2922.083984375	0.00833333333333333	0	-30	-5.66666666666667	2	0.8115234375
2925.05078125	0.00833333333333333	0	-30	-5.79166666666667	2	0.869140625
2928.1669921875	0.00833333333333333	0	30	2.82083333333333	1	2.208984375
2932.55859375	0.00833333333333333	0	-30	-5.79166666666667	2	0.6259765625
2935.6259765625	0.00833333333333333	0	-30	-5.79166666666667	2	0.6865234375
2938.80859375	0.00833333333333333	0	-30	-5.79166666666667	2	0.83203125
2942.0830078125	0.00833333333333333	0	-30	-5.79166666666667	1	1.3330078125
2945.57421875	0.00833333333333333	0	30	2.82083333333333	1	1.25
2948.94921875	0.00833333333333333	0	30	2.82083333333333	1	1.01953125
2952.283203125	0.00833333333333333	0	30	2.82083333333333	2	1.26171875
2955.625	0.00833333333333333	0	30	2.82083333333333	1	0.984375
2958.9501953125	0.00833333333333333	0	30	2.82083333333333	1	1.123046875
2962.3251953125	0.00833333333333333	0	30	2.82083333333333	1	1.7001953125
2966.4912109375	0.00833333333333333	0	-30	-5.79166666666667	1	1.4140625
2970.0751953125	0.00833333333333333	0	30	2.82083333333333	1	0.91015625
2973.1083984375	0.00833333333333333	0	30	2.82083333333333	2	3.3408203125
2978.4990234375	0.00833333333333333	0	30	2.82083333333333	2	1.0947265625
2982.07421875	0.00833333333333333	0	-30	-5.79166666666667	1	0.7431640625
2984.974609375	0.00833333333333333	0	30	2.82083333333333	1	0.7314453125
2988.0830078125	0.00833333333333333	0	30	2.82083333333333	1	0.7353515625
2991.173828125	0.00833333333333333	0	30	2.82083333333333	2	1.1640625
2994.875	0.00833333333333333	0	30	2.82083333333333	1	0.8076171875
2997.982421875	0.00833333333333333	0	-30	-5.79166666666667	2	0.7880859375
3000.94921875	0.00833333333333333	0	-30	-5.79166666666667	2	0.7490234375
3004.1494140625	0.00833333333333333	0	-30	-5.79166666666667	1	1.205078125
3007.44140625	0.00833333333333333	0	30	2.82083333333333	1	1.3291015625
3011.041015625	0.00833333333333333	0	30	2.82083333333333	2	0.7373046875
3013.9912109375	0.00833333333333333	0	-30	-5.79166666666667	1	0.6591796875
3016.8330078125	0.00833333333333333	0	-30	-5.79166666666667	1	0.9140625
3020.2578125	0.00833333333333333	0	-30	-5.79166666666667	1	0.873046875
3023.2744140625	0.00833333333333333	0	-30	-5.79166666666667	2	0.697265625
3026.5654296875	0.00833333333333333	0	-30	-5.79166666666667	1	0.9814453125
3029.923828125	0.00833333333333333	0	-30	-5.79166666666667	2	0.919921875
3032.982421875	0.00833333333333333	0	-30	-5.79166666666667	2	0.7646484375
3036.265625	0.00833333333333333	0	30	2.82083333333333	1	1.0419921875
3083.740234375	0.00833333333333333	0	30	2.82083333333333	1	1.8251953125
3087.8310546875	0.00833333333333333	0	-30	-5.79166666666667	2	2.0380859375
3092.2646484375	0.00833333333333333	0	-30	-5.79166666666667	1	1.7724609375
3096.181640625	0.00833333333333333	0	-30	-5.79166666666667	1	0.83203125
3099.1484375	0.00833333333333333	0	-30	-5.79166666666667	2	1.9130859375
3103.1982421875	0.00833333333333333	0	30	2.82083333333333	2	1.19921875
3106.6640625	0.00833333333333333	0	30	2.82083333333333	1	0.998046875
3110.072265625	0.00833333333333333	0	-30	-5.79166666666667	1	1.58984375
3113.814453125	0.00833333333333333	0	-30	-5.79166666666667	1	1.759765625
3117.65625	0.00833333333333333	0	-30	-5.79166666666667	1	1.55078125
3121.40625	0.00833333333333333	0	30	2.82083333333333	2	1.1279296875
3125.072265625	0.00833333333333333	0	30	2.82083333333333	2	0.91015625
3128.2138671875	0.00833333333333333	0	30	2.82083333333333	1	0.80078125
3131.373046875	0.00833333333333333	0	-30	-5.79166666666667	1	2.43359375
3136.1962890625	0.00833333333333333	0	30	2.82083333333333	2	0.7626953125
3139.2060546875	0.00833333333333333	0	30	2.82083333333333	2	0.96875
3142.7392578125	0.00833333333333333	0	-30	-5.79166666666667	1	1.8115234375
3146.6142578125	0.00833333333333333	0	-30	-5.66666666666667	2	0.728515625
3149.47265625	0.00833333333333333	0	30	2.82083333333333	2	0.6953125
3152.3720703125	0.00833333333333333	0	-30	-5.66666666666667	1	0.8271484375
3155.2802734375	0.00833333333333333	0	-30	-5.66666666666667	2	1.0068359375
3158.5634765625	0.00833333333333333	0	30	2.82083333333333	2	0.724609375
3161.4970703125	0.00833333333333333	0	30	2.82083333333333	2	0.7587890625
3164.5556640625	0.00833333333333333	0	30	2.69583333333333	2	0.732421875
3167.5224609375	0.00833333333333333	0	30	2.69583333333333	2	0.861328125
3170.98046875	0.00833333333333333	0	30	2.69583333333333	1	0.7392578125
3174.2880859375	0.00833333333333333	0	30	2.69583333333333	1	1.080078125
3177.5966796875	0.00833333333333333	0	30	2.69583333333333	2	1.107421875
3181.2958984375	0.00833333333333333	0	30	2.69583333333333	1	0.744140625
3184.080078125	0.00833333333333333	0	30	2.69583333333333	1	0.6396484375
3187.021484375	0.00833333333333333	0	30	2.69583333333333	1	1.1787109375
3190.37109375	0.00833333333333333	0	30	2.69583333333333	2	0.7255859375
3193.3798828125	0.00833333333333333	0	-30	-5.66666666666667	1	0.62890625
3196.3212890625	0.00833333333333333	0	30	2.69583333333333	1	0.7998046875
3199.271484375	0.00833333333333333	0	30	2.69583333333333	1	1.216796875
3202.888671875	0.00833333333333333	0	-30	-5.66666666666667	2	2.2880859375
3207.470703125	0.00833333333333333	0	30	2.69583333333333	2	0.73828125
3210.7548828125	0.00833333333333333	0	-30	-5.66666666666667	1	1.0859375
3214.1630859375	0.00833333333333333	0	-30	-5.66666666666667	2	1.173828125
3217.7119140625	0.00833333333333333	0	-30	-5.66666666666667	1	0.76171875
3220.6455078125	0.00833333333333333	0	-30	-5.66666666666667	1	0.68359375
3223.6630859375	0.00833333333333333	0	-30	-5.66666666666667	2	0.7626953125
3226.779296875	0.00833333333333333	0	-30	-5.66666666666667	2	0.6787109375
3229.8046875	0.00833333333333333	0	30	2.69583333333333	2	0.6689453125
3232.845703125	0.00833333333333333	0	30	2.69583333333333	2	0.6357421875
3235.970703125	0.00833333333333333	0	-30	-5.66666666666667	2	1.2236328125
3239.470703125	0.00833333333333333	0	30	2.69583333333333	1	1.130859375
3243.12109375	0.00833333333333333	0	-30	-5.66666666666667	2	0.9453125
3246.50390625	0.00833333333333333	0	30	2.69583333333333	2	0.6982421875
3249.6796875	0.00833333333333333	0	-30	-5.66666666666667	1	0.771484375
3252.9375	0.00833333333333333	0	-30	-5.66666666666667	1	0.689453125
3255.712890625	0.00833333333333333	0	-30	-5.66666666666667	2	0.8662109375
3258.669921875	0.00833333333333333	0	30	2.69583333333333	2	1.7255859375
3262.9287109375	0.00833333333333333	0	-30	-5.66666666666667	2	0.642578125
3266.0458984375	0.00833333333333333	0	-30	-5.66666666666667	1	0.62890625
3269.2041015625	0.00833333333333333	0	30	2.69583333333333	2	0.6474609375
3272.2197265625	0.00833333333333333	0	30	2.69583333333333	2	0.6875
3275.2041015625	0.00833333333333333	0	-30	-5.66666666666667	2	0.7587890625
3278.3955078125	0.00833333333333333	0	30	2.69583333333333	2	0.7841796875
3281.63671875	0.00833333333333333	0	-30	-5.66666666666667	1	0.7822265625
3284.7861328125	0.00833333333333333	0	-30	-5.66666666666667	2	0.5849609375
3287.77734375	0.00833333333333333	0	-30	-5.66666666666667	2	0.5859375
3290.9619140625	0.00833333333333333	0	30	2.57083333333333	2	0.76953125
3294.1455078125	0.00833333333333333	0	-30	-5.66666666666667	1	1.001953125
3297.3623046875	0.00833333333333333	0	-30	-5.66666666666667	2	0.8740234375
3300.6611328125	0.00833333333333333	0	30	2.57083333333333	1	1.0869140625
3304.060546875	0.00833333333333333	0	30	2.57083333333333	2	0.6396484375
3306.9951171875	0.00833333333333333	0	-30	-5.66666666666667	1	0.625
3309.9697265625	0.00833333333333333	0	-30	-5.66666666666667	2	0.7861328125
3312.9697265625	0.00833333333333333	0	-30	-5.66666666666667	1	0.72265625
3316.2119140625	0.00833333333333333	0	-30	-5.66666666666667	1	1.2490234375
3319.9189453125	0.00833333333333333	0	30	2.57083333333333	2	0.6298828125
3323.0283203125	0.00833333333333333	0	-30	-5.66666666666667	2	0.80078125
3326.1943359375	0.00833333333333333	0	30	2.57083333333333	2	0.7060546875
3329.3779296875	0.00833333333333333	0	30	2.57083333333333	2	0.8271484375
3332.3603515625	0.00833333333333333	0	30	2.57083333333333	2	0.63671875
3335.5107421875	0.00833333333333333	0	30	2.44583333333333	2	1.1181640625
3339.15234375	0.00833333333333333	0	-30	-5.66666666666667	1	0.9091796875
3342.369140625	0.00833333333333333	0	-30	-5.66666666666667	1	0.6767578125
3345.244140625	0.00833333333333333	0	30	2.44583333333333	2	0.841796875
3356.935546875	0.00833333333333333	0	30	2.44583333333333	1	1.24609375
3360.46875	0.00833333333333333	0	30	2.44583333333333	1	0.77734375
3363.3857421875	0.00833333333333333	0	-30	-5.66666666666667	1	1.5
3367.3603515625	0.00833333333333333	0	30	2.44583333333333	2	0.91796875
3370.802734375	0.00833333333333333	0	-30	-5.66666666666667	2	0.9072265625
3374.119140625	0.00833333333333333	0	30	2.44583333333333	2	1.7197265625
3378.0107421875	0.00833333333333333	0	-30	-5.66666666666667	1	1.2353515625
3381.53515625	0.00833333333333333	0	-30	-5.66666666666667	2	1.8876953125
3385.9013671875	0.00833333333333333	0	-30	-5.66666666666667	2	0.9609375
3389.376953125	0.00833333333333333	0	-30	-5.66666666666667	2	0.845703125
3392.443359375	0.00833333333333333	0	30	2.44583333333333	2	1.01171875
3395.693359375	0.00833333333333333	0	30	2.44583333333333	2	0.7861328125
3398.7265625	0.00833333333333333	0	30	2.44583333333333	1	1.560546875
3402.6357421875	0.00833333333333333	0	30	2.44583333333333	2	0.69140625
3405.90234375	0.00833333333333333	0	30	2.44583333333333	2	0.6005859375
3409.04296875	0.00833333333333333	0	30	2.44583333333333	2	0.8046875
3412.3603515625	0.00833333333333333	0	-30	-5.66666666666667	1	0.8076171875
3415.6435546875	0.00833333333333333	0	30	2.44583333333333	2	0.923828125
3418.9013671875	0.00833333333333333	0	30	2.44583333333333	1	1.1220703125
3422.4599609375	0.00833333333333333	0	30	2.44583333333333	2	0.7080078125
3425.29296875	0.00833333333333333	0	-30	-5.66666666666667	1	1.03515625
3428.501953125	0.00833333333333333	0	-30	-5.66666666666667	2	0.921875
3431.8427734375	0.00833333333333333	0	30	2.44583333333333	1	0.95703125
3434.8759765625	0.00833333333333333	0	-30	-5.66666666666667	2	2.572265625
3439.68359375	0.00833333333333333	0	-30	-5.66666666666667	1	0.7568359375
3442.701171875	0.00833333333333333	0	-30	-5.66666666666667	2	0.5791015625
3445.7763671875	0.00833333333333333	0	-30	-5.66666666666667	2	0.6318359375
3448.7431640625	0.00833333333333333	0	-30	-5.66666666666667	1	1.7373046875
3452.8681640625	0.00833333333333333	0	30	2.44583333333333	1	1.2763671875
3456.4345703125	0.00833333333333333	0	30	2.44583333333333	2	1.23828125
3460.0341796875	0.00833333333333333	0	-30	-5.66666666666667	2	0.7109375
3462.8583984375	0.00833333333333333	0	30	2.44583333333333	1	1.2548828125
3466.259765625	0.00833333333333333	0	-30	-5.66666666666667	2	0.9736328125
3469.7177734375	0.00833333333333333	0	30	2.44583333333333	1	1.251953125
3473.0498046875	0.00833333333333333	0	30	2.44583333333333	2	1.583984375
3476.734375	0.00833333333333333	0	30	2.44583333333333	1	2.01171875
3480.8828125	0.00833333333333333	0	-30	-5.66666666666667	1	1.20703125
3484.5673828125	0.00833333333333333	0	-30	-5.66666666666667	1	0.8427734375
3487.841796875	0.00833333333333333	0	30	2.44583333333333	1	1.1044921875
3491.525390625	0.00833333333333333	0	-30	-5.66666666666667	2	0.9091796875
3494.7587890625	0.00833333333333333	0	30	2.44583333333333	2	0.8359375
3497.951171875	0.00833333333333333	0	30	2.44583333333333	2	1.36328125
3501.716796875	0.00833333333333333	0	-30	-5.66666666666667	1	1.4775390625
3505.7421875	0.00833333333333333	0	-30	-5.66666666666667	2	1.1640625
3509.216796875	0.00833333333333333	0	-30	-5.66666666666667	1	1.1220703125
3512.55078125	0.00833333333333333	0	-30	-5.66666666666667	2	0.6044921875
3515.466796875	0.00833333333333333	0	-30	-5.66666666666667	2	0.7685546875
3518.3671875	0.00833333333333333	0	30	2.44583333333333	2	1.2841796875
3521.8662109375	0.00833333333333333	0	-30	-5.66666666666667	1	1.224609375
3525.43359375	0.00833333333333333	0	-30	-5.66666666666667	2	0.8173828125
3528.591796875	0.00833333333333333	0	30	2.44583333333333	2	0.6357421875
3531.6826171875	0.00833333333333333	0	30	2.44583333333333	2	1.1767578125
3535.3583984375	0.00833333333333333	0	30	2.32083333333333	2	1.013671875
3538.56640625	0.00833333333333333	0	30	2.32083333333333	1	0.8369140625
3541.7666015625	0.00833333333333333	0	30	2.32083333333333	2	1.021484375
3545.2744140625	0.00833333333333333	0	-30	-5.66666666666667	2	0.8974609375
3548.5830078125	0.00833333333333333	0	-30	-5.66666666666667	2	0.9814453125
3551.732421875	0.00833333333333333	0	-30	-5.66666666666667	1	0.943359375
3554.7236328125	0.00833333333333333	0	-30	-5.66666666666667	2	0.6162109375
3557.8818359375	0.00833333333333333	0	-30	-5.66666666666667	1	1.1220703125
3561.490234375	0.00833333333333333	0	30	2.32083333333333	1	1.07421875
3565.0576171875	0.00833333333333333	0	30	2.32083333333333	2	0.73046875
3568.2568359375	0.00833333333333333	0	30	2.32083333333333	2	0.66796875
3571.365234375	0.00833333333333333	0	30	2.32083333333333	2	0.6396484375
3574.515625	0.00833333333333333	0	30	2.32083333333333	2	0.720703125
3577.6494140625	0.00833333333333333	0	30	2.32083333333333	1	0.8837890625
3580.765625	0.00833333333333333	0	-30	-5.66666666666667	2	0.8876953125
3583.916015625	0.00833333333333333	0	30	2.32083333333333	2	1.9130859375
3588.0654296875	0.00833333333333333	0	-30	-5.66666666666667	2	1.33203125
3591.69921875	0.00833333333333333	0	30	2.32083333333333	1	1.6982421875
3595.8740234375	0.00833333333333333	0	30	2.32083333333333	1	0.66796875
3598.7060546875	0.00833333333333333	0	-30	-5.66666666666667	2	1.01953125
3601.998046875	0.00833333333333333	0	-30	-5.66666666666667	2	0.615234375
3604.732421875	0.00833333333333333	0	-30	-5.66666666666667	1	0.609375
3607.740234375	0.00833333333333333	0	-30	-5.66666666666667	1	0.6416015625
3610.70703125	0.00833333333333333	0	30	2.32083333333333	2	0.72265625
3613.9736328125	0.00833333333333333	0	30	2.32083333333333	2	0.6884765625
3617.1142578125	0.00833333333333333	0	30	2.32083333333333	1	0.8037109375
3620.0068359375	0.00833333333333333	0	30	2.32083333333333	2	0.783203125
3623.0234375	0.00833333333333333	0	30	2.32083333333333	1	0.7431640625
3661.0478515625	0.00833333333333333	0	30	2.32083333333333	2	1.359375
3664.5810546875	0.00833333333333333	0	30	2.32083333333333	2	1.3388671875
3668.2470703125	0.00833333333333333	0	30	2.32083333333333	1	0.8408203125
3671.09765625	0.00833333333333333	0	-30	-5.66666666666667	2	0.646484375
3674.0888671875	0.00833333333333333	0	30	2.32083333333333	1	0.85546875
3677.1474609375	0.00833333333333333	0	30	2.32083333333333	2	0.5810546875
3679.7890625	0.00833333333333333	0	30	2.32083333333333	2	0.619140625
3682.623046875	0.00833333333333333	0	30	2.32083333333333	2	0.8173828125
3685.814453125	0.00833333333333333	0	-30	-5.66666666666667	1	1.08203125
3689.005859375	0.00833333333333333	0	30	2.32083333333333	1	0.6826171875
3692.10546875	0.00833333333333333	0	-30	-5.66666666666667	1	0.8154296875
3695.123046875	0.00833333333333333	0	-30	-5.66666666666667	2	0.59765625
3697.837890625	0.00833333333333333	0	-30	-5.66666666666667	1	1.2587890625
3701.2802734375	0.00833333333333333	0	30	2.32083333333333	1	0.8564453125
3704.646484375	0.00833333333333333	0	30	2.32083333333333	1	0.75390625
3707.4970703125	0.00833333333333333	0	30	2.32083333333333	1	0.896484375
3710.8056640625	0.00833333333333333	0	30	2.32083333333333	1	0.779296875
3713.837890625	0.00833333333333333	0	30	2.44583333333333	1	0.923828125
3717.1640625	0.00833333333333333	0	-30	-5.66666666666667	2	0.7578125
3720.1552734375	0.00833333333333333	0	30	2.44583333333333	1	0.814453125
3723.1884765625	0.00833333333333333	0	-30	-5.66666666666667	1	0.9248046875
3726.580078125	0.00833333333333333	0	-30	-5.66666666666667	2	0.693359375
3729.380859375	0.00833333333333333	0	-30	-5.66666666666667	1	0.5810546875
3732.138671875	0.00833333333333333	0	30	2.44583333333333	2	0.55078125
3734.9970703125	0.00833333333333333	0	30	2.44583333333333	1	0.7568359375
3737.947265625	0.00833333333333333	0	-30	-5.66666666666667	2	0.53515625
3740.7548828125	0.00833333333333333	0	-30	-5.66666666666667	1	0.5908203125
3743.412109375	0.00833333333333333	0	-30	-5.66666666666667	1	0.8623046875
3746.5634765625	0.00833333333333333	0	-30	-5.66666666666667	1	0.783203125
3749.572265625	0.00833333333333333	0	-30	-5.66666666666667	1	0.654296875
3752.646484375	0.00833333333333333	0	30	2.44583333333333	2	0.755859375
3755.9296875	0.00833333333333333	0	-30	-5.66666666666667	1	0.6650390625
3758.646484375	0.00833333333333333	0	-30	-5.54166666666667	1	1.01171875
3761.796875	0.00833333333333333	0	30	2.44583333333333	2	0.845703125
3765.029296875	0.00833333333333333	0	-30	-5.54166666666667	2	0.7177734375
3767.9716796875	0.00833333333333333	0	-30	-5.54166666666667	1	0.7275390625
3771.0712890625	0.00833333333333333	0	30	2.44583333333333	2	0.8115234375
3774.3125	0.00833333333333333	0	-30	-5.54166666666667	2	0.73046875
3777.1298828125	0.00833333333333333	0	-30	-5.54166666666667	2	1.44921875
3780.9619140625	0.00833333333333333	0	30	2.44583333333333	2	0.6982421875
3783.9794921875	0.00833333333333333	0	30	2.44583333333333	1	1.0078125
3787.1123046875	0.00833333333333333	0	30	2.44583333333333	2	0.6513671875
3790.2216796875	0.00833333333333333	0	30	2.44583333333333	2	0.90234375
3793.5458984375	0.00833333333333333	0	-30	-5.54166666666667	2	0.73828125
3796.6796875	0.00833333333333333	0	-30	-5.54166666666667	1	0.8525390625
3799.7958984375	0.00833333333333333	0	-30	-5.54166666666667	1	1.0166015625
3802.9375	0.00833333333333333	0	-30	-5.54166666666667	1	0.7626953125
3805.7294921875	0.00833333333333333	0	-30	-5.54166666666667	2	0.4345703125
3808.5791015625	0.00833333333333333	0	-30	-5.54166666666667	1	0.6572265625
3811.4873046875	0.00833333333333333	0	-30	-5.54166666666667	1	0.7412109375
3814.4296875	0.00833333333333333	0	30	2.44583333333333	2	0.5830078125
3817.5126953125	0.00833333333333333	0	-30	-5.54166666666667	1	0.68359375
3820.6708984375	0.00833333333333333	0	-30	-5.54166666666667	1	0.7099609375
3823.87109375	0.00833333333333333	0	-30	-5.54166666666667	2	0.8056640625
3826.8369140625	0.00833333333333333	0	30	2.44583333333333	1	0.6962890625
3830.029296875	0.00833333333333333	0	-30	-5.54166666666667	2	0.744140625
3833.3203125	0.00833333333333333	0	30	2.44583333333333	2	3.1728515625
3838.9873046875	0.00833333333333333	0	30	2.44583333333333	2	1.9619140625
3843.1953125	0.00833333333333333	0	-30	-5.54166666666667	1	1.673828125
3847.3125	0.00833333333333333	0	-30	-5.54166666666667	2	1.9970703125
3851.669921875	0.00833333333333333	0	30	2.44583333333333	1	2.8154296875
3856.578125	0.00833333333333333	0	30	2.44583333333333	2	0.7236328125
3859.828125	0.00833333333333333	0	-30	-5.54166666666667	2	0.689453125
3862.9697265625	0.00833333333333333	0	30	2.44583333333333	2	0.9326171875
3866.162109375	0.00833333333333333	0	-30	-5.54166666666667	2	0.8046875
3869.185546875	0.00833333333333333	0	30	2.44583333333333	2	1.3408203125
3872.662109375	0.00833333333333333	0	-30	-5.54166666666667	1	0.671875
3875.361328125	0.00833333333333333	0	-30	-5.54166666666667	1	0.6845703125
3878.244140625	0.00833333333333333	0	30	2.44583333333333	2	1.130859375
3881.4619140625	0.00833333333333333	0	30	2.44583333333333	2	0.80078125
3884.7783203125	0.00833333333333333	0	30	2.32083333333333	2	0.7646484375
3887.611328125	0.00833333333333333	0	-30	-5.54166666666667	2	0.6435546875
3890.443359375	0.00833333333333333	0	-30	-5.54166666666667	2	0.947265625
3893.853515625	0.00833333333333333	0	-30	-5.54166666666667	2	0.681640625
3897.0361328125	0.00833333333333333	0	-30	-5.54166666666667	2	0.794921875
3900.244140625	0.00833333333333333	0	-30	-5.54166666666667	1	1.1552734375
3903.8447265625	0.00833333333333333	0	30	2.32083333333333	2	0.9228515625
3906.8193359375	0.00833333333333333	0	-30	-5.54166666666667	2	0.7080078125
3909.7861328125	0.00833333333333333	0	30	2.32083333333333	2	0.92578125
3912.9609375	0.00833333333333333	0	30	2.32083333333333	2	0.88671875
3940.03515625	0.00833333333333333	0	-30	-5.54166666666667	1	1.6533203125
3944.04296875	0.00833333333333333	0	30	2.32083333333333	1	1.662109375
3947.9775390625	0.00833333333333333	0	-30	-5.54166666666667	1	3.4072265625
3953.9267578125	0.00833333333333333	0	-30	-5.54166666666667	2	0.73046875
3956.8359375	0.00833333333333333	0	-30	-5.54166666666667	2	0.853515625
3960.193359375	0.00833333333333333	0	30	2.32083333333333	2	1.0556640625
3963.619140625	0.00833333333333333	0	-30	-5.54166666666667	2	0.7099609375
3966.71875	0.00833333333333333	0	30	2.32083333333333	1	0.8427734375
3969.6435546875	0.00833333333333333	0	30	2.32083333333333	1	0.6943359375
3972.7265625	0.00833333333333333	0	-30	-5.54166666666667	1	0.890625
3975.9853515625	0.00833333333333333	0	30	2.32083333333333	1	0.6806640625
3978.8603515625	0.00833333333333333	0	30	2.32083333333333	1	0.9501953125
3982.0517578125	0.00833333333333333	0	-30	-5.54166666666667	2	0.6865234375
3984.9765625	0.00833333333333333	0	-30	-5.54166666666667	1	1.6171875
3988.884765625	0.00833333333333333	0	-30	-5.54166666666667	1	1.037109375
3991.9931640625	0.00833333333333333	0	30	2.32083333333333	1	1.048828125
3995.3017578125	0.00833333333333333	0	-30	-5.54166666666667	2	0.6845703125
3998.1015625	0.00833333333333333	0	-30	-5.54166666666667	1	0.95703125
4001.4599609375	0.00833333333333333	0	-30	-5.54166666666667	1	0.734375
4004.5009765625	0.00833333333333333	0	30	2.44583333333333	2	1.5419921875
4008.5595703125	0.00833333333333333	0	30	2.44583333333333	1	0.875
4011.80078125	0.00833333333333333	0	-30	-5.54166666666667	2	1.322265625
4015.6181640625	0.00833333333333333	0	30	2.44583333333333	1	0.7451171875
4018.568359375	0.00833333333333333	0	-30	-5.54166666666667	2	0.650390625
4021.6181640625	0.00833333333333333	0	30	2.44583333333333	2	1.041015625
4025.142578125	0.00833333333333333	0	30	2.44583333333333	2	0.98828125
4028.2763671875	0.00833333333333333	0	-30	-5.54166666666667	2	0.623046875
4031.333984375	0.00833333333333333	0	30	2.44583333333333	1	0.6298828125
4034.2177734375	0.00833333333333333	0	30	2.44583333333333	2	0.8173828125
4037.583984375	0.00833333333333333	0	-30	-5.54166666666667	1	1.1240234375
4041.033203125	0.00833333333333333	0	-30	-5.54166666666667	2	0.6181640625
4044.0166015625	0.00833333333333333	0	30	2.44583333333333	2	0.8349609375
4047.076171875	0.00833333333333333	0	-30	-5.54166666666667	1	0.8955078125
4050.392578125	0.00833333333333333	0	30	2.44583333333333	1	1.1796875
4053.9091796875	0.00833333333333333	0	30	2.44583333333333	2	0.6552734375
4056.708984375	0.00833333333333333	0	-30	-5.54166666666667	2	0.599609375
4059.609375	0.00833333333333333	0	30	2.44583333333333	2	0.71484375
4062.7919921875	0.00833333333333333	0	-30	-5.54166666666667	2	0.66015625
4065.8671875	0.00833333333333333	0	-30	-5.54166666666667	2	0.609375
4068.8671875	0.00833333333333333	0	-30	-5.54166666666667	1	1.09765625
4072.43359375	0.00833333333333333	0	-30	-5.54166666666667	2	0.6513671875
4075.30859375	0.00833333333333333	0	30	2.44583333333333	1	0.6162109375
4078.208984375	0.00833333333333333	0	-30	-5.54166666666667	1	1.01953125
4081.3828125	0.00833333333333333	0	30	2.44583333333333	2	1.1904296875
4084.9501953125	0.00833333333333333	0	30	2.44583333333333	2	0.703125
4087.7333984375	0.00833333333333333	0	-30	-5.54166666666667	2	0.65625
4090.4658203125	0.00833333333333333	0	-30	-5.54166666666667	2	0.9072265625
4093.716796875	0.00833333333333333	0	-30	-5.54166666666667	1	1.47265625
4097.56640625	0.00833333333333333	0	30	2.44583333333333	2	0.71875
4100.732421875	0.00833333333333333	0	30	2.44583333333333	2	0.8408203125
4103.716796875	0.00833333333333333	0	-30	-5.54166666666667	1	1.5849609375
4107.658203125	0.00833333333333333	0	-30	-5.54166666666667	1	2.748046875
4112.5078125	0.00833333333333333	0	-30	-5.54166666666667	2	1.4267578125
4116.158203125	0.00833333333333333	0	30	2.44583333333333	1	2.7763671875
4121.19921875	0.00833333333333333	0	-30	-5.54166666666667	1	1.4228515625
4124.82421875	0.00833333333333333	0	-30	-5.54166666666667	2	0.7177734375
4127.83203125	0.00833333333333333	0	-30	-5.54166666666667	1	1.134765625
4131.2900390625	0.00833333333333333	0	-30	-5.54166666666667	2	0.8681640625
4134.2998046875	0.00833333333333333	0	-30	-5.54166666666667	1	1.0185546875
4137.607421875	0.00833333333333333	0	-30	-5.54166666666667	2	0.783203125
4140.765625	0.00833333333333333	0	30	2.44583333333333	2	0.8173828125
4143.732421875	0.00833333333333333	0	-30	-5.54166666666667	2	0.6103515625
4146.69921875	0.00833333333333333	0	30	2.44583333333333	1	0.8037109375
4149.7744140625	0.00833333333333333	0	-30	-5.54166666666667	1	0.81640625
4152.90625	0.00833333333333333	0	-30	-5.54166666666667	2	0.59765625
4156.0244140625	0.00833333333333333	0	30	2.44583333333333	2	0.6953125
4159.2158203125	0.00833333333333333	0	30	2.44583333333333	2	0.7041015625
4162.265625	0.00833333333333333	0	30	2.44583333333333	1	0.9013671875
4165.2822265625	0.00833333333333333	0	30	2.44583333333333	2	1.005859375
4168.8564453125	0.00833333333333333	0	30	2.44583333333333	2	0.83203125
4172.1318359375	0.00833333333333333	0	30	2.44583333333333	2	0.5400390625
4175.2236328125	0.00833333333333333	0	30	2.44583333333333	1	0.82421875
4178.423828125	0.00833333333333333	0	-30	-5.54166666666667	2	0.560546875
4181.3974609375	0.00833333333333333	0	30	2.44583333333333	2	0.6748046875
4184.140625	0.00833333333333333	0	30	2.44583333333333	2	0.67578125
4187.2060546875	0.00833333333333333	0	-30	-5.54166666666667	2	0.5146484375
4189.83984375	0.00833333333333333	0	-30	-5.54166666666667	2	0.5927734375
4192.7978515625	0.00833333333333333	0	-30	-5.54166666666667	2	0.6103515625
4195.7314453125	0.00833333333333333	0	-30	-5.66666666666667	2	0.861328125
4198.6982421875	0.00833333333333333	0	30	2.44583333333333	1	0.734375
4262.5888671875	0.00833333333333333	0	30	2.44583333333333	1	1.26953125
4266.3974609375	0.00833333333333333	0	-30	-5.66666666666667	2	0.8212890625
4269.35546875	0.00833333333333333	0	30	2.44583333333333	1	1.51171875
4273.2724609375	0.00833333333333333	0	-30	-5.66666666666667	2	0.71484375
4276.439453125	0.00833333333333333	0	-30	-5.66666666666667	2	0.755859375
4279.255859375	0.00833333333333333	0	-30	-5.66666666666667	2	0.70703125
4282.2890625	0.00833333333333333	0	-30	-5.79166666666667	2	1.146484375
4285.9140625	0.00833333333333333	0	-30	-5.79166666666667	2	0.681640625
4288.888671875	0.00833333333333333	0	-30	-5.79166666666667	2	0.779296875
4292.0966796875	0.00833333333333333	0	-30	-5.79166666666667	2	0.794921875
4295.1806640625	0.00833333333333333	0	-30	-5.79166666666667	1	1.4072265625
4299.013671875	0.00833333333333333	0	30	2.44583333333333	1	0.669921875
4302.1640625	0.00833333333333333	0	-30	-5.79166666666667	1	0.7119140625
4305.0390625	0.00833333333333333	0	-30	-5.79166666666667	2	0.7568359375
4308.2548828125	0.00833333333333333	0	30	2.44583333333333	2	0.685546875
4311.138671875	0.00833333333333333	0	30	2.44583333333333	2	0.8095703125
4314.2138671875	0.00833333333333333	0	30	2.44583333333333	1	0.7421875
4317.3134765625	0.00833333333333333	0	-30	-5.79166666666667	1	1.5146484375
4321.2880859375	0.00833333333333333	0	30	2.44583333333333	2	0.5966796875
4323.912109375	0.00833333333333333	0	30	2.44583333333333	1	0.9892578125
4327.23828125	0.00833333333333333	0	-30	-5.79166666666667	2	1.7509765625
4331.4462890625	0.00833333333333333	0	-30	-5.79166666666667	1	0.9345703125
4334.6962890625	0.00833333333333333	0	-30	-5.79166666666667	1	0.708984375
4337.705078125	0.00833333333333333	0	-30	-5.79166666666667	1	1.2041015625
4341.3134765625	0.00833333333333333	0	-30	-5.79166666666667	1	1.0595703125
4344.4287109375	0.00833333333333333	0	30	2.44583333333333	2	1.873046875
4348.5126953125	0.00833333333333333	0	-30	-5.79166666666667	1	0.9169921875
4351.6044921875	0.00833333333333333	0	30	2.44583333333333	2	1.46484375
4355.1298828125	0.00833333333333333	0	-30	-5.66666666666667	1	1.419921875
4358.646484375	0.00833333333333333	0	30	2.44583333333333	1	0.85546875
4361.8125	0.00833333333333333	0	30	2.44583333333333	2	0.5693359375
4364.5126953125	0.00833333333333333	0	-30	-5.66666666666667	1	0.9091796875
4367.5546875	0.00833333333333333	0	-30	-5.66666666666667	1	0.771484375
4370.6962890625	0.00833333333333333	0	30	2.44583333333333	2	0.8134765625
4373.87109375	0.00833333333333333	0	30	2.44583333333333	1	0.623046875
4376.5458984375	0.00833333333333333	0	-30	-5.66666666666667	2	0.5966796875
4379.654296875	0.00833333333333333	0	-30	-5.66666666666667	1	1.0244140625
4382.8125	0.00833333333333333	0	30	2.44583333333333	1	1.07421875
4386.2373046875	0.00833333333333333	0	-30	-5.66666666666667	2	0.8173828125
4389.154296875	0.00833333333333333	0	30	2.44583333333333	1	0.6767578125
4392.01171875	0.00833333333333333	0	30	2.44583333333333	1	0.68359375
4395.0537109375	0.00833333333333333	0	30	2.44583333333333	2	0.5615234375
4397.76171875	0.00833333333333333	0	30	2.44583333333333	1	0.7412109375
4400.87890625	0.00833333333333333	0	30	2.44583333333333	1	0.6640625
4403.6533203125	0.00833333333333333	0	30	2.44583333333333	1	0.59375
4406.7861328125	0.00833333333333333	0	30	2.44583333333333	2	0.96484375
4410.0537109375	0.00833333333333333	0	-30	-5.66666666666667	1	0.7861328125
4413.169921875	0.00833333333333333	0	-30	-5.66666666666667	1	2.4697265625
4417.787109375	0.00833333333333333	0	-30	-5.66666666666667	2	1.2529296875
4421.5703125	0.00833333333333333	0	30	2.44583333333333	2	0.693359375
4424.5703125	0.00833333333333333	0	30	2.44583333333333	1	0.669921875
4427.3447265625	0.00833333333333333	0	30	2.44583333333333	1	1.103515625
4430.5439453125	0.00833333333333333	0	-30	-5.66666666666667	1	0.9599609375
4433.7197265625	0.00833333333333333	0	-30	-5.66666666666667	1	1.7529296875
4437.986328125	0.00833333333333333	0	-30	-5.66666666666667	1	0.822265625
4440.9365234375	0.00833333333333333	0	-30	-5.66666666666667	1	0.83984375
4444.0947265625	0.00833333333333333	0	30	2.44583333333333	2	0.6982421875
4447.169921875	0.00833333333333333	0	-30	-5.66666666666667	1	0.7587890625
4450.39453125	0.00833333333333333	0	30	2.44583333333333	2	0.8466796875
4453.4609375	0.00833333333333333	0	-30	-5.54166666666667	2	1.1318359375
4457.01953125	0.00833333333333333	0	-30	-5.54166666666667	1	0.765625
4459.8525390625	0.00833333333333333	0	30	2.44583333333333	2	0.796875
4462.88671875	0.00833333333333333	0	-30	-5.54166666666667	1	0.7548828125
4465.927734375	0.00833333333333333	0	30	2.44583333333333	2	0.8173828125
4468.8857421875	0.00833333333333333	0	-30	-5.54166666666667	2	0.8994140625
4471.9111328125	0.00833333333333333	0	-30	-5.54166666666667	1	1.0107421875
4475.427734375	0.00833333333333333	0	-30	-5.54166666666667	1	0.7822265625
4478.7529296875	0.00833333333333333	0	-30	-5.54166666666667	2	0.9130859375
4481.7109375	0.00833333333333333	0	30	2.44583333333333	2	0.7626953125
4484.8935546875	0.00833333333333333	0	-30	-5.54166666666667	2	0.7802734375
4488.14453125	0.00833333333333333	0	30	2.32083333333333	2	1.4013671875
4491.6689453125	0.00833333333333333	0	30	2.32083333333333	1	0.8134765625
4494.869140625	0.00833333333333333	0	-30	-5.54166666666667	1	0.876953125
4497.9853515625	0.00833333333333333	0	30	2.32083333333333	2	0.953125
4501.435546875	0.00833333333333333	0	30	2.32083333333333	2	0.7744140625
4504.6943359375	0.00833333333333333	0	30	2.32083333333333	2	0.7080078125
4507.66796875	0.00833333333333333	0	30	2.32083333333333	2	0.806640625
4510.677734375	0.00833333333333333	0	30	2.32083333333333	1	0.8046875
4513.8359375	0.00833333333333333	0	-30	-5.54166666666667	1	1.0791015625
4516.9609375	0.00833333333333333	0	-30	-5.54166666666667	2	0.7783203125
