onset	duration	titr	surround	centre	response	rt
135.7705078125	0.00833333333333333	1	NaN	-15	1	1.4365234375
139.6201171875	0.00833333333333333	1	NaN	-14	1	1.0517578125
143.14453125	0.00833333333333333	1	-30	15	2	0.966796875
146.603515625	0.00833333333333333	1	-30	14	2	0.7001953125
149.470703125	0.00833333333333333	1	-30	-15	1	0.953125
152.6279296875	0.00833333333333333	1	30	15	2	0.828125
155.5693359375	0.00833333333333333	1	-30	13	2	0.89453125
158.869140625	0.00833333333333333	1	30	14	2	0.66796875
161.59375	0.00833333333333333	1	-30	-14	1	0.7109375
164.51171875	0.00833333333333333	1	-30	-13	1	0.728515625
167.486328125	0.00833333333333333	1	NaN	15	2	0.5859375
170.361328125	0.00833333333333333	1	NaN	14	2	0.53515625
173.3017578125	0.00833333333333333	1	30	13	2	0.6748046875
176.27734375	0.00833333333333333	1	30	12	2	0.5556640625
178.9443359375	0.00833333333333333	1	NaN	-13	1	0.5927734375
181.6943359375	0.00833333333333333	1	NaN	-12	1	0.5146484375
184.7607421875	0.00833333333333333	1	NaN	-11	1	0.50390625
187.65234375	0.00833333333333333	1	30	11	2	0.6123046875
190.4111328125	0.00833333333333333	1	-30	-12	1	0.6220703125
193.4443359375	0.00833333333333333	1	NaN	13	2	0.61328125
196.5361328125	0.00833333333333333	1	30	-15	1	0.78515625
199.8935546875	0.00833333333333333	1	NaN	-10	1	0.6435546875
202.8193359375	0.00833333333333333	1	NaN	-9	1	0.646484375
205.5693359375	0.00833333333333333	1	30	-14	1	0.640625
208.7109375	0.00833333333333333	1	-30	-11	2	1.1552734375
212.1025390625	0.00833333333333333	1	-30	-12	2	1.1396484375
215.4091796875	0.00833333333333333	1	NaN	-8	1	1.0888671875
218.7431640625	0.00833333333333333	1	NaN	12	2	1.2109375
222.5185546875	0.00833333333333333	1	NaN	11	2	1.259765625
226.04296875	0.00833333333333333	1	30	10	2	1.3916015625
229.9853515625	0.00833333333333333	1	30	9	2	1.529296875
233.876953125	0.00833333333333333	1	-30	-13	1	1.1416015625
237.318359375	0.00833333333333333	1	-30	-12	2	1.3642578125
241.134765625	0.00833333333333333	1	30	8	2	0.8115234375
244.1767578125	0.00833333333333333	1	NaN	-7	1	0.9140625
247.2431640625	0.00833333333333333	1	NaN	10	2	1.111328125
250.7431640625	0.00833333333333333	1	-30	12	2	0.68359375
253.8427734375	0.00833333333333333	1	30	7	2	0.744140625
256.7099609375	0.00833333333333333	1	30	6	2	0.861328125
259.8427734375	0.00833333333333333	1	30	5	2	0.8486328125
263.2685546875	0.00833333333333333	1	30	4	2	0.7265625
266.5009765625	0.00833333333333333	1	-30	-13	2	1.6865234375
270.66796875	0.00833333333333333	1	NaN	9	2	1.248046875
274.017578125	0.00833333333333333	1	NaN	8	2	1.474609375
277.884765625	0.00833333333333333	1	30	3	2	0.9189453125
281.1171875	0.00833333333333333	1	NaN	-6	1	1.20703125
284.5009765625	0.00833333333333333	1	-30	11	2	1.18359375
287.9921875	0.00833333333333333	1	30	-13	1	0.66796875
291.201171875	0.00833333333333333	1	30	2	2	1.0830078125
294.5087890625	0.00833333333333333	1	30	-12	1	0.7119140625
297.3427734375	0.00833333333333333	1	NaN	7	2	1.0537109375
300.6669921875	0.00833333333333333	1	30	-11	1	0.74609375
303.67578125	0.00833333333333333	1	NaN	6	2	0.6728515625
306.5341796875	0.00833333333333333	1	-30	-14	1	0.703125
309.4091796875	0.00833333333333333	1	-30	10	2	0.595703125
312.1669921875	0.00833333333333333	1	-30	-13	1	0.6943359375
315.208984375	0.00833333333333333	1	NaN	5	2	0.8837890625
318.3173828125	0.00833333333333333	1	-30	-12	1	0.7119140625
321.333984375	0.00833333333333333	1	-30	9	2	0.6396484375
324.3837890625	0.00833333333333333	1	NaN	4	2	0.6298828125
327.6083984375	0.00833333333333333	1	NaN	-5	1	1.517578125
331.5244140625	0.00833333333333333	1	NaN	-4	1	1.0732421875
335.0830078125	0.00833333333333333	1	NaN	3	2	0.6669921875
338.125	0.00833333333333333	1	NaN	2	2	0.689453125
340.9248046875	0.00833333333333333	1	30	-10	1	0.705078125
344.1416015625	0.00833333333333333	1	NaN	-3	2	0.880859375
347.43359375	0.00833333333333333	1	NaN	1	2	0.556640625
350.3330078125	0.00833333333333333	1	NaN	0	2	0.9130859375
353.482421875	0.00833333333333333	1	NaN	-1	2	0.64453125
356.6162109375	0.00833333333333333	1	30	1	2	1.22265625
360.041015625	0.00833333333333333	1	30	-9	1	1.8056640625
364.3916015625	0.00833333333333333	1	-30	8	2	0.6474609375
367.3251953125	0.00833333333333333	1	30	0	1	0.6015625
370.2666015625	0.00833333333333333	1	30	1	1	0.63671875
373.30859375	0.00833333333333333	1	NaN	-4	1	0.5068359375
375.9912109375	0.00833333333333333	1	NaN	-3	1	0.4638671875
378.5322265625	0.00833333333333333	1	NaN	-2	2	1.0107421875
381.8076171875	0.00833333333333333	1	-30	7	2	0.7275390625
384.666015625	0.00833333333333333	1	-30	-11	1	0.8134765625
387.8994140625	0.00833333333333333	1	30	-8	1	0.7001953125
390.8076171875	0.00833333333333333	1	NaN	-2	1	6.6240234375
399.6748046875	0.00833333333333333	1	NaN	-1	1	0.62109375
402.5576171875	0.00833333333333333	1	NaN	-3	1	0.5224609375
405.265625	0.00833333333333333	1	-30	-10	1	0.623046875
408.173828125	0.00833333333333333	1	NaN	0	1	0.7060546875
411.08203125	0.00833333333333333	1	NaN	-2	1	0.646484375
414.173828125	0.00833333333333333	1	NaN	-1	1	0.650390625
417.1904296875	0.00833333333333333	1	-30	-9	1	1.3857421875
420.666015625	0.00833333333333333	1	30	2	2	0.966796875
423.890625	0.00833333333333333	1	-30	-8	2	0.8779296875
426.982421875	0.00833333333333333	1	30	-7	1	1.650390625
430.681640625	0.00833333333333333	1	NaN	0	2	0.8154296875
433.7734375	0.00833333333333333	1	NaN	1	2	1.0439453125
490.630859375	0.00833333333333333	1	30	-6	1	1.5
494.5146484375	0.00833333333333333	1	30	1	1	0.720703125
497.271484375	0.00833333333333333	1	NaN	-1	2	0.763671875
500.1064453125	0.00833333333333333	1	-30	-9	2	0.9130859375
503.2890625	0.00833333333333333	1	30	-5	1	0.681640625
506.322265625	0.00833333333333333	1	-30	-10	2	1.10546875
509.6962890625	0.00833333333333333	1	30	-4	2	1.3876953125
513.447265625	0.00833333333333333	1	NaN	0	2	0.6767578125
516.314453125	0.00833333333333333	1	30	2	2	0.8017578125
519.630859375	0.00833333333333333	1	-30	6	2	0.525390625
522.48046875	0.00833333333333333	1	NaN	-2	2	0.70703125
525.5966796875	0.00833333333333333	1	30	1	2	0.671875
528.4306640625	0.00833333333333333	1	NaN	-3	2	0.8857421875
531.6640625	0.00833333333333333	1	30	-5	1	0.9560546875
534.8544921875	0.00833333333333333	1	30	0	2	0.93359375
538.3125	0.00833333333333333	1	-30	5	2	0.8759765625
541.5966796875	0.00833333333333333	1	NaN	-1	2	0.7998046875
544.9140625	0.00833333333333333	1	30	-1	2	0.7626953125
547.8642578125	0.00833333333333333	1	-30	-11	2	0.748046875
550.86328125	0.00833333333333333	1	-30	4	2	0.5341796875
553.796875	0.00833333333333333	1	-30	3	2	0.583984375
556.61328125	0.00833333333333333	1	NaN	-4	2	0.7197265625
559.697265625	0.00833333333333333	1	-30	-12	2	2.2841796875
564.5458984375	0.00833333333333333	1	NaN	-2	2	1.0439453125
568.072265625	0.00833333333333333	1	-30	2	2	0.541015625
570.98046875	0.00833333333333333	1	NaN	-3	1	0.76171875
574.2548828125	0.00833333333333333	1	NaN	-2	2	0.56640625
577.3212890625	0.00833333333333333	1	30	-2	2	0.99609375
580.61328125	0.00833333333333333	1	30	-4	2	1.16015625
583.8623046875	0.00833333333333333	1	30	-3	2	0.671875
586.99609375	0.00833333333333333	1	NaN	-5	2	1.2255859375
590.455078125	0.00833333333333333	1	-30	1	2	0.7109375
593.36328125	0.00833333333333333	1	NaN	-3	1	1.0673828125
596.705078125	0.00833333333333333	1	30	-4	1	1.2216796875
600.396484375	0.00833333333333333	1	30	-3	2	1.5703125
604.4716796875	0.00833333333333333	1	NaN	-6	1	0.7509765625
607.6455078125	0.00833333333333333	1	-30	-13	1	0.76953125
610.61328125	0.00833333333333333	1	-30	-12	1	3.4013671875
616.0380859375	0.00833333333333333	1	-30	-11	1	1.2724609375
619.8291015625	0.00833333333333333	1	30	-4	2	1.3857421875
623.50390625	0.00833333333333333	1	30	-5	1	1.1357421875
627.12890625	0.00833333333333333	1	-30	-10	2	1.1025390625
630.4873046875	0.00833333333333333	1	-30	-11	2	1.5361328125
634.3212890625	0.00833333333333333	1	30	-4	2	1.5986328125
638.00390625	0.00833333333333333	1	NaN	-5	2	1.6201171875
641.736328125	0.00833333333333333	1	NaN	-6	2	0.8955078125
645.1953125	0.00833333333333333	1	30	-5	2	0.8525390625
648.5615234375	0.00833333333333333	1	-30	-12	2	0.958984375
652.044921875	0.00833333333333333	1	30	-5	2	1.099609375
655.5537109375	0.00833333333333333	1	-30	-13	1	1.4384765625
659.2041015625	0.00833333333333333	1	NaN	-2	2	1.083984375
662.6201171875	0.00833333333333333	1	NaN	-7	1	0.7724609375
665.9453125	0.00833333333333333	1	NaN	-3	1	1.0478515625
669.220703125	0.00833333333333333	1	-30	-12	1	0.724609375
672.38671875	0.00833333333333333	1	-30	-11	1	1.1337890625
675.953125	0.00833333333333333	1	30	-6	1	2.248046875
680.5947265625	0.00833333333333333	1	NaN	-2	1	0.7900390625
683.5869140625	0.00833333333333333	1	-30	-10	1	1.40625
687.0703125	0.00833333333333333	1	NaN	-6	1	0.7314453125
690.14453125	0.00833333333333333	1	-30	-9	1	1.6005859375
694.2783203125	0.00833333333333333	1	30	-5	1	0.7626953125
697.1865234375	0.00833333333333333	1	NaN	-1	2	0.8876953125
700.603515625	0.00833333333333333	1	-30	-8	2	0.5419921875
703.419921875	0.00833333333333333	1	-30	0	2	0.7744140625
706.4619140625	0.00833333333333333	1	NaN	-2	2	0.6923828125
709.5869140625	0.00833333333333333	1	NaN	-3	1	0.6552734375
712.736328125	0.00833333333333333	1	NaN	-5	1	0.7861328125
715.9453125	0.00833333333333333	1	-30	-9	2	1.0166015625
719.3349609375	0.00833333333333333	1	-30	-1	2	1.4755859375
723.302734375	0.00833333333333333	1	-30	-10	1	0.923828125
726.6533203125	0.00833333333333333	1	-30	-2	2	0.7333984375
729.552734375	0.00833333333333333	1	30	-6	1	0.76953125
732.76171875	0.00833333333333333	1	30	-4	1	0.7216796875
735.9365234375	0.00833333333333333	1	NaN	-4	1	0.6982421875
738.89453125	0.00833333333333333	1	30	-5	1	0.7646484375
742.177734375	0.00833333333333333	1	30	-4	1	1.185546875
745.6279296875	0.00833333333333333	1	30	-3	1	0.7431640625
748.7109375	0.00833333333333333	1	NaN	-3	1	1.65234375
752.4599609375	0.00833333333333333	1	30	-2	1	0.7431640625
755.51953125	0.00833333333333333	1	30	-3	1	1.1640625
758.7685546875	0.00833333333333333	1	-30	-3	1	4.1953125
765.177734375	0.00833333333333333	1	30	-1	1	0.7626953125
768.16796875	0.00833333333333333	1	NaN	-2	1	1.228515625
771.6015625	0.00833333333333333	1	30	0	1	1.298828125
775.501953125	0.00833333333333333	1	-30	-2	2	1.173828125
778.9599609375	0.00833333333333333	1	30	-2	2	0.9482421875
782.3017578125	0.00833333333333333	1	30	1	1	0.9423828125
785.3857421875	0.00833333333333333	1	30	2	1	1.458984375
789.060546875	0.00833333333333333	1	30	-3	1	0.6240234375
949.4912109375	0.00833333333333333	1	30	-2	1	1.0625
952.9912109375	0.00833333333333333	1	30	-1	1	0.8427734375
956.0908203125	0.00833333333333333	1	30	3	2	1.18359375
959.5908203125	0.00833333333333333	1	-30	-3	2	0.6513671875
962.31640625	0.00833333333333333	1	30	0	2	0.90234375
965.4072265625	0.00833333333333333	1	30	-1	2	0.794921875
968.732421875	0.00833333333333333	1	30	-2	2	0.7177734375
971.5654296875	0.00833333333333333	1	30	-3	2	0.796875
974.541015625	0.00833333333333333	1	NaN	-1	2	0.7099609375
977.3994140625	0.00833333333333333	1	NaN	-2	2	1.02734375
981.0078125	0.00833333333333333	1	NaN	-3	2	0.7392578125
983.8740234375	0.00833333333333333	1	30	-4	1	0.7529296875
987.0078125	0.00833333333333333	1	30	-3	1	0.84375
990.3408203125	0.00833333333333333	1	-30	-4	2	0.7587890625
993.2744140625	0.00833333333333333	1	-30	-5	2	0.6171875
996.365234375	0.00833333333333333	1	30	-2	1	1.7900390625
1000.673828125	0.00833333333333333	1	NaN	-4	2	1.1298828125
1004.056640625	0.00833333333333333	1	30	-1	2	1.1630859375
1007.6484375	0.00833333333333333	1	NaN	-5	1	0.787109375
1010.9814453125	0.00833333333333333	1	30	-2	2	0.8388671875
1014.048828125	0.00833333333333333	1	NaN	-4	2	0.859375
1017.240234375	0.00833333333333333	1	30	-3	2	0.66796875
1020.240234375	0.00833333333333333	1	30	-4	1	0.8525390625
1023.1064453125	0.00833333333333333	1	-30	-6	2	0.7294921875
1026.189453125	0.00833333333333333	1	-30	-7	2	0.783203125
1029.21484375	0.00833333333333333	1	-30	-8	2	0.58984375
1032.0146484375	0.00833333333333333	1	-30	-9	2	0.58984375
1034.7822265625	0.00833333333333333	1	-30	-10	2	0.56640625
1037.7978515625	0.00833333333333333	1	NaN	-5	1	1.3515625
1041.5068359375	0.00833333333333333	1	-30	-11	2	0.802734375
1044.59765625	0.00833333333333333	1	-30	-12	1	0.9755859375
1047.6318359375	0.00833333333333333	1	NaN	-4	1	0.7333984375
1050.4228515625	0.00833333333333333	1	-30	-11	2	0.88671875
1053.8310546875	0.00833333333333333	1	NaN	-3	1	0.8701171875
1057.2314453125	0.00833333333333333	1	-30	-12	1	0.92578125
1060.4150390625	0.00833333333333333	1	-30	-11	1	1.111328125
1063.8720703125	0.00833333333333333	1	NaN	-2	1	0.7099609375
1067.0478515625	0.00833333333333333	1	NaN	-1	2	0.8623046875
1070.33984375	0.00833333333333333	1	-30	-10	1	1.0029296875
1073.873046875	0.00833333333333333	1	-30	-9	1	0.708984375
1077.0478515625	0.00833333333333333	1	-30	-8	1	0.6220703125
1079.7890625	0.00833333333333333	1	-30	-7	1	1.2255859375
1083.3642578125	0.00833333333333333	1	-30	-6	1	4.4267578125
1089.9140625	0.00833333333333333	1	-30	-5	2	1.109375
1093.59765625	0.00833333333333333	1	-30	-6	2	0.6494140625
1096.6728515625	0.00833333333333333	1	-30	-7	2	0.7744140625
1099.9892578125	0.00833333333333333	1	-30	-8	1	0.8974609375
1103.2060546875	0.00833333333333333	1	-30	-7	2	0.697265625
1106.4140625	0.00833333333333333	1	-30	-8	2	0.720703125
1109.34765625	0.00833333333333333	1	-30	-9	2	0.6435546875
1112.263671875	0.00833333333333333	1	-30	-10	2	0.6875
1115.5390625	0.00833333333333333	1	-30	-11	1	0.8837890625
1118.48828125	0.00833333333333333	1	-30	-10	1	0.759765625
1121.6884765625	0.00833333333333333	1	-30	-9	1	0.7509765625
1124.771484375	0.00833333333333333	1	-30	-8	1	1.8203125
1128.6640625	0.00833333333333333	1	-30	-7	2	1.3115234375
1132.2880859375	0.00833333333333333	1	NaN	-3.58333333333333	1	0.6640625
1135.130859375	0.00833333333333333	1	-30	-8.83333333333333	2	0.6767578125
1138.1552734375	0.00833333333333333	1	-30	-9.83333333333333	2	0.7890625
1141.197265625	0.00833333333333333	1	-30	-9.95833333333333	2	0.802734375
1144.3232421875	0.00833333333333333	1	NaN	-3.45833333333333	1	0.60546875
1147.396484375	0.00833333333333333	1	30	-2.25	1	0.7724609375
1150.7294921875	0.00833333333333333	1	-30	-8.95833333333333	1	0.5673828125
1153.4296875	0.00833333333333333	1	NaN	-3.33333333333333	1	0.5390625
1156.5302734375	0.00833333333333333	1	NaN	-2.58333333333333	1	0.54296875
1159.271484375	0.00833333333333333	1	NaN	-3.20833333333333	2	0.78515625
1162.580078125	0.00833333333333333	1	30	-2.125	2	0.93359375
1165.6884765625	0.00833333333333333	1	NaN	-3.33333333333333	1	1.296875
1169.3466796875	0.00833333333333333	1	NaN	-3.20833333333333	1	0.6064453125
1172.080078125	0.00833333333333333	1	30	-3.25	1	1.3935546875
1175.787109375	0.00833333333333333	1	-30	-10.0833333333333	1	0.7900390625
1179.0380859375	0.00833333333333333	1	NaN	-2.45833333333333	2	0.8837890625
1182.0546875	0.00833333333333333	1	-30	-8.83333333333333	2	0.7626953125
1185.0458984375	0.00833333333333333	1	-30	-9.95833333333333	2	1.1318359375
1188.6455078125	0.00833333333333333	1	NaN	-3.08333333333333	1	1.4599609375
1192.5625	0.00833333333333333	1	-30	-8.95833333333333	2	0.9189453125
1196.0205078125	0.00833333333333333	1	30	-2.25	1	0.7412109375
1199.3212890625	0.00833333333333333	1	-30	-10.0833333333333	1	0.78515625
1202.6796875	0.00833333333333333	1	NaN	-2.95833333333333	1	0.6982421875
1205.9375	0.00833333333333333	1	30	-3.125	1	0.560546875
1208.9794921875	0.00833333333333333	1	30	-2.125	1	0.4951171875
1211.74609375	0.00833333333333333	1	-30	-9.95833333333333	1	0.7841796875
1215.00390625	0.00833333333333333	1	-30	-9.08333333333333	1	0.6865234375
1217.919921875	0.00833333333333333	1	-30	-9.83333333333333	1	0.890625
1221.1708984375	0.00833333333333333	1	30	-3	1	0.6962890625
1224.279296875	0.00833333333333333	1	NaN	-2.83333333333333	2	1.0361328125
1227.470703125	0.00833333333333333	1	-30	-8.95833333333333	1	0.8125
1230.8125	0.00833333333333333	1	-30	-8.83333333333333	2	1.439453125
1234.50390625	0.00833333333333333	1	-30	-8.95833333333333	1	0.859375
1237.537109375	0.00833333333333333	1	-30	-8.83333333333333	2	1.5302734375
1241.228515625	0.00833333333333333	1	30	-2	2	1.279296875
1244.6123046875	0.00833333333333333	1	NaN	-2.95833333333333	1	0.7431640625
1247.51171875	0.00833333333333333	1	NaN	-2.58333333333333	1	0.587890625
1257.111328125	0.00833333333333333	1	NaN	-2.45833333333333	2	1.1962890625
1260.828125	0.00833333333333333	1	-30	-8.95833333333333	1	0.83203125
1264.0615234375	0.00833333333333333	1	30	-2.125	1	1.0224609375
1267.453125	0.00833333333333333	1	NaN	-2.83333333333333	2	0.5830078125
1270.4287109375	0.00833333333333333	1	30	-2.875	1	0.7041015625
1273.4697265625	0.00833333333333333	1	NaN	-2.58333333333333	2	0.5029296875
1276.2353515625	0.00833333333333333	1	NaN	-2.95833333333333	1	0.5849609375
1279.0693359375	0.00833333333333333	1	30	-2	2	1.0712890625
1282.361328125	0.00833333333333333	1	-30	-9.70833333333333	2	0.8037109375
1285.736328125	0.00833333333333333	1	30	-2.125	1	0.8203125
1289.01171875	0.00833333333333333	1	NaN	-2.70833333333333	2	0.7373046875
1292.1201171875	0.00833333333333333	1	NaN	-2.83333333333333	1	0.685546875
1295.26171875	0.00833333333333333	1	-30	-9.83333333333333	1	0.6474609375
1298.39453125	0.00833333333333333	1	NaN	-2.83333333333333	1	0.5546875
1301.236328125	0.00833333333333333	1	30	-2	1	0.7294921875
1304.0693359375	0.00833333333333333	1	NaN	-2.70833333333333	1	0.65625
1306.9033203125	0.00833333333333333	1	-30	-9.70833333333333	1	0.56640625
1309.736328125	0.00833333333333333	1	NaN	-2.58333333333333	1	0.5654296875
1312.810546875	0.00833333333333333	1	NaN	-2.70833333333333	1	0.8115234375
1316.060546875	0.00833333333333333	1	30	-2.75	1	0.4814453125
1318.810546875	0.00833333333333333	1	30	-2.625	2	1.1474609375
1322.2431640625	0.00833333333333333	1	-30	-8.83333333333333	1	0.73046875
1325.28515625	0.00833333333333333	1	30	-2.75	1	0.705078125
1328.3525390625	0.00833333333333333	1	NaN	-2.45833333333333	1	0.58984375
1331.1103515625	0.00833333333333333	1	-30	-9.58333333333333	1	0.6396484375
1334.1103515625	0.00833333333333333	1	30	-1.875	2	1.8798828125
1338.1025390625	0.00833333333333333	1	-30	-8.70833333333333	2	0.7685546875
1341.2939453125	0.00833333333333333	1	30	-2	1	0.697265625
1344.3271484375	0.00833333333333333	1	-30	-8.83333333333333	1	0.6318359375
1347.1025390625	0.00833333333333333	1	-30	-8.70833333333333	1	0.7607421875
1350.134765625	0.00833333333333333	1	30	-1.875	1	1.0166015625
1353.6435546875	0.00833333333333333	1	NaN	-2.58333333333333	1	0.4921875
1356.6015625	0.00833333333333333	1	-30	-8.58333333333333	1	0.494140625
1359.201171875	0.00833333333333333	1	30	-1.75	1	0.6142578125
1362.068359375	0.00833333333333333	1	NaN	-2.33333333333333	1	0.626953125
1365.251953125	0.00833333333333333	1	30	-2.625	1	0.6513671875
1368.2099609375	0.00833333333333333	1	-30	-8.45833333333333	1	0.6142578125
1371.3603515625	0.00833333333333333	1	30	-1.625	1	0.3994140625
1373.9677734375	0.00833333333333333	1	30	-2.5	1	0.560546875
1376.6767578125	0.00833333333333333	1	NaN	-2.20833333333333	1	0.130859375
1378.943359375	0.00833333333333333	1	-30	-8.33333333333333	1	0.9052734375
1382.41015625	0.00833333333333333	1	NaN	-2.08333333333333	2	0.734375
1385.7099609375	0.00833333333333333	1	-30	-8.20833333333333	2	0.8828125
1389.1513671875	0.00833333333333333	1	30	-2.375	2	0.7294921875
1392.1591796875	0.00833333333333333	1	NaN	-2.45833333333333	1	0.5771484375
1395.1015625	0.00833333333333333	1	NaN	-2.20833333333333	1	0.5390625
1398.234375	0.00833333333333333	1	30	-1.5	2	0.7265625
1401.1015625	0.00833333333333333	1	30	-2.5	1	0.7470703125
1404.17578125	0.00833333333333333	1	30	-2.375	1	0.5849609375
1407.3095703125	0.00833333333333333	1	30	-2.25	1	0.5712890625
1410.1767578125	0.00833333333333333	1	NaN	-2.08333333333333	1	0.5126953125
1412.9677734375	0.00833333333333333	1	30	-2.125	1	0.44140625
1415.767578125	0.00833333333333333	1	NaN	-2.33333333333333	1	0.4658203125
1418.3837890625	0.00833333333333333	1	NaN	-2.20833333333333	1	0.689453125
1421.1513671875	0.00833333333333333	1	30	-2	1	0.482421875
1423.826171875	0.00833333333333333	1	NaN	-1.95833333333333	1	0.462890625
1426.451171875	0.00833333333333333	1	-30	-8.33333333333333	1	0.57421875
1429.451171875	0.00833333333333333	1	NaN	-2.08333333333333	1	0.3662109375
1431.9091796875	0.00833333333333333	1	NaN	-1.95833333333333	1	0.32421875
1434.6337890625	0.00833333333333333	1	-30	-8.20833333333333	1	0.328125
1437.41796875	0.00833333333333333	1	-30	-8.08333333333333	1	0.431640625
1440.201171875	0.00833333333333333	1	30	-1.625	1	0.6171875
1443.0087890625	0.00833333333333333	1	-30	-9.45833333333333	2	0.76953125
1445.93359375	0.00833333333333333	1	NaN	-1.83333333333333	1	0.6123046875
1448.80078125	0.00833333333333333	1	NaN	-1.83333333333333	2	0.8017578125
1451.8759765625	0.00833333333333333	1	-30	-7.95833333333333	1	0.57421875
1454.9833984375	0.00833333333333333	1	-30	-7.83333333333333	2	1.1708984375
1458.484375	0.00833333333333333	1	-30	-9.58333333333333	1	0.7421875
1461.3173828125	0.00833333333333333	1	-30	-7.95833333333333	2	0.7177734375
1464.4169921875	0.00833333333333333	1	NaN	-1.70833333333333	1	1.08203125
1468.017578125	0.00833333333333333	1	NaN	-1.95833333333333	1	0.59375
1471.0087890625	0.00833333333333333	1	30	-1.875	1	0.5703125
1473.8173828125	0.00833333333333333	1	-30	-9.45833333333333	1	0.59375
1476.8505859375	0.00833333333333333	1	30	-1.75	1	0.4482421875
1479.841796875	0.00833333333333333	1	NaN	-1.58333333333333	1	0.8818359375
1483.0751953125	0.00833333333333333	1	NaN	-1.45833333333333	2	0.80859375
1486.2587890625	0.00833333333333333	1	NaN	-1.58333333333333	2	0.6328125
1489.4169921875	0.00833333333333333	1	NaN	-1.83333333333333	2	0.787109375
1492.4833984375	0.00833333333333333	1	NaN	-1.70833333333333	2	0.6162109375
1495.5166015625	0.00833333333333333	1	NaN	-1.83333333333333	2	0.6474609375
1498.7080078125	0.00833333333333333	1	NaN	-1.95833333333333	2	0.4560546875
1501.599609375	0.00833333333333333	1	30	-1.5	2	0.580078125
1504.55859375	0.00833333333333333	1	-30	-8.08333333333333	2	0.75
1507.482421875	0.00833333333333333	1	30	-1.625	1	0.7138671875
1510.291015625	0.00833333333333333	1	30	-1.5	2	1.06640625
1513.8828125	0.00833333333333333	1	-30	-9.33333333333333	1	0.90625
1517.1328125	0.00833333333333333	1	NaN	-2.08333333333333	2	0.576171875
1519.81640625	0.00833333333333333	1	30	-1.625	2	0.916015625
1523.1416015625	0.00833333333333333	1	-30	-8.20833333333333	2	0.783203125
1526.4833984375	0.00833333333333333	1	-30	-8.33333333333333	2	0.7373046875
1529.3662109375	0.00833333333333333	1	NaN	-2.20833333333333	2	0.5986328125
1532.2744140625	0.00833333333333333	1	30	-1.625	1	1.39453125
1535.9326171875	0.00833333333333333	1	30	-1.5	1	0.7685546875
1538.8076171875	0.00833333333333333	1	NaN	-1.95833333333333	1	0.8134765625
1542.166015625	0.00833333333333333	1	-30	-8.45833333333333	1	0.6630859375
1545.107421875	0.00833333333333333	1	NaN	-1.83333333333333	2	0.9697265625
1548.3994140625	0.00833333333333333	1	30	-1.375	1	1.013671875
1551.923828125	0.00833333333333333	1	-30	-9.20833333333333	1	0.841796875
1555.1396484375	0.00833333333333333	1	-30	-8.33333333333333	2	0.75390625
1634.814453125	0.00833333333333333	1	NaN	-1.95833333333333	2	0.8984375
1638.03125	0.00833333333333333	1	-30	-9.08333333333333	1	0.609375
1640.78125	0.00833333333333333	1	30	-1.25	1	0.603515625
1643.4560546875	0.00833333333333333	1	30	-1.75	1	0.80078125
1646.40625	0.00833333333333333	1	NaN	-2.33333333333333	2	0.9150390625
1649.58984375	0.00833333333333333	1	NaN	-2.45833333333333	2	1.0830078125
1653.2060546875	0.00833333333333333	1	NaN	-2.08333333333333	1	0.634765625
1656.314453125	0.00833333333333333	1	-30	-8.95833333333333	1	0.638671875
1659.1220703125	0.00833333333333333	1	NaN	-2.58333333333333	1	0.4873046875
1661.7978515625	0.00833333333333333	1	30	-1.125	2	0.9072265625
1665.1806640625	0.00833333333333333	1	-30	-8.83333333333333	2	0.8603515625
1668.5390625	0.00833333333333333	1	30	-1.625	2	0.9267578125
1672.0810546875	0.00833333333333333	1	-30	-8.45833333333333	2	0.6728515625
1675.0556640625	0.00833333333333333	1	30	-1.25	2	1.0341796875
1678.447265625	0.00833333333333333	1	NaN	-2.45833333333333	1	0.9228515625
1681.896484375	0.00833333333333333	1	-30	-8.58333333333333	1	1.265625
1685.2724609375	0.00833333333333333	1	30	-1.375	1	0.8017578125
1688.138671875	0.00833333333333333	1	NaN	-2.33333333333333	1	0.7275390625
1690.9892578125	0.00833333333333333	1	-30	-8.95833333333333	2	1.037109375
1694.3720703125	0.00833333333333333	1	NaN	-2.20833333333333	1	0.91796875
1697.4970703125	0.00833333333333333	1	30	-1.75	1	0.7216796875
1700.6962890625	0.00833333333333333	1	NaN	-2.08333333333333	1	0.5380859375
1703.5302734375	0.00833333333333333	1	NaN	-1.95833333333333	1	0.3525390625
1705.9462890625	0.00833333333333333	1	NaN	-1.83333333333333	1	0.6884765625
1709.197265625	0.00833333333333333	1	NaN	-1.70833333333333	2	0.6220703125
1711.947265625	0.00833333333333333	1	30	-1.25	1	1.7197265625
1715.8798828125	0.00833333333333333	1	NaN	-1.95833333333333	2	1.8193359375
1720.10546875	0.00833333333333333	1	NaN	-2.08333333333333	1	0.9296875
1723.3466796875	0.00833333333333333	1	NaN	-1.95833333333333	1	0.728515625
1726.330078125	0.00833333333333333	1	30	-1.625	1	0.849609375
1729.3134765625	0.00833333333333333	1	30	-1.125	1	0.818359375
1732.5966796875	0.00833333333333333	1	-30	-9.08333333333333	1	0.638671875
1735.388671875	0.00833333333333333	1	30	-1	1	0.630859375
1738.5546875	0.00833333333333333	1	30	-1.5	2	1.0654296875
1742.1455078125	0.00833333333333333	1	-30	-8.95833333333333	2	0.833984375
1745.2294921875	0.00833333333333333	1	30	-0.875	2	0.6787109375
1748.0537109375	0.00833333333333333	1	30	-1	2	1.158203125
1751.3134765625	0.00833333333333333	1	NaN	-1.83333333333333	2	0.6826171875
1754.5126953125	0.00833333333333333	1	30	-1.125	1	0.763671875
1757.4130859375	0.00833333333333333	1	-30	-9.08333333333333	1	0.783203125
1760.5048828125	0.00833333333333333	1	NaN	-1.95833333333333	1	0.66796875
1763.5048828125	0.00833333333333333	1	NaN	-1.83333333333333	2	0.5712890625
1766.1962890625	0.00833333333333333	1	-30	-8.95833333333333	2	0.82421875
1769.4462890625	0.00833333333333333	1	NaN	-1.95833333333333	1	0.734375
1772.6796875	0.00833333333333333	1	NaN	-1.83333333333333	1	1.1015625
1775.9541015625	0.00833333333333333	1	NaN	-1.83333333333333	1	0.779296875
1779.0029296875	0.00833333333333333	1	-30	-9.08333333333333	1	16.8505859375
1798.0537109375	0.00833333333333333	1	-30	-8.95833333333333	2	1.16015625
1801.5205078125	0.00833333333333333	1	NaN	-1.70833333333333	2	0.6376953125
1804.6953125	0.00833333333333333	1	NaN	-1.70833333333333	2	0.703125
1808.00390625	0.00833333333333333	1	-30	-9.08333333333333	2	0.6982421875
1811.119140625	0.00833333333333333	1	-30	-9.20833333333333	2	0.646484375
1814.3291015625	0.00833333333333333	1	NaN	-1.83333333333333	2	0.5732421875
1817.4365234375	0.00833333333333333	1	30	-1	2	0.7861328125
1820.478515625	0.00833333333333333	1	-30	-9.33333333333333	2	0.7041015625
1823.5869140625	0.00833333333333333	1	NaN	-1.95833333333333	2	0.771484375
1826.5283203125	0.00833333333333333	1	-30	-9.45833333333333	2	0.734375
1829.4697265625	0.00833333333333333	1	30	-1.125	1	0.7451171875
1832.494140625	0.00833333333333333	1	NaN	-2.08333333333333	2	1.400390625
1836.3037109375	0.00833333333333333	1	30	-1	2	0.5595703125
1839.13671875	0.00833333333333333	1	30	-1.125	2	0.5986328125
1841.88671875	0.00833333333333333	1	-30	-9.58333333333333	2	0.6640625
1844.7783203125	0.00833333333333333	1	NaN	-2.20833333333333	1	1.037109375
1848.0869140625	0.00833333333333333	1	30	-1.25	2	1.6640625
1852.0869140625	0.00833333333333333	1	-30	-9.70833333333333	2	1.9443359375
1856.427734375	0.00833333333333333	1	NaN	-2.08333333333333	2	2.5400390625
1861.5947265625	0.00833333333333333	1	30	-1.375	1	0.8212890625
1864.88671875	0.00833333333333333	1	-30	-9.83333333333333	1	0.7529296875
1867.76171875	0.00833333333333333	1	30	-1.25	2	1.4384765625
1871.4443359375	0.00833333333333333	0	30	-1.45625	2	0.8115234375
1874.88671875	0.00833333333333333	0	-30	-8.84583333333333	2	0.689453125
1877.8857421875	0.00833333333333333	0	-30	-8.84583333333333	2	0.8271484375
1880.927734375	0.00833333333333333	0	30	-1.45625	2	0.8486328125
1884.1953125	0.00833333333333333	0	-30	-8.84583333333333	1	0.92578125
1887.4697265625	0.00833333333333333	0	30	-1.45625	1	0.72265625
1890.7197265625	0.00833333333333333	0	-30	-8.84583333333333	2	0.9453125
1894.2861328125	0.00833333333333333	0	-30	-8.84583333333333	2	1.0107421875
1897.736328125	0.00833333333333333	0	-30	-8.84583333333333	2	0.9365234375
1900.90234375	0.00833333333333333	0	30	-1.45625	1	1.443359375
1904.71875	0.00833333333333333	0	30	-1.45625	1	0.8349609375
1908.02734375	0.00833333333333333	0	30	-1.45625	1	0.6064453125
1910.8515625	0.00833333333333333	0	-30	-8.84583333333333	2	1.1181640625
1914.2109375	0.00833333333333333	0	30	-1.45625	2	0.8388671875
1917.2021484375	0.00833333333333333	0	30	-1.45625	1	0.8154296875
1920.2021484375	0.00833333333333333	0	-30	-8.84583333333333	2	0.7197265625
1923.3427734375	0.00833333333333333	0	30	-1.45625	2	3.603515625
1929.2607421875	0.00833333333333333	0	-30	-8.97083333333333	2	0.60546875
1932.2607421875	0.00833333333333333	0	30	-1.45625	2	0.7255859375
1935.27734375	0.00833333333333333	0	30	-1.45625	1	0.9091796875
1938.560546875	0.00833333333333333	0	-30	-8.97083333333333	1	0.833984375
1941.8857421875	0.00833333333333333	0	30	-1.45625	1	0.5888671875
1944.6181640625	0.00833333333333333	0	-30	-8.97083333333333	1	1.9599609375
1948.9599609375	0.00833333333333333	0	-30	-8.97083333333333	1	0.73046875
1951.9521484375	0.00833333333333333	0	-30	-8.97083333333333	1	0.7470703125
1955.2353515625	0.00833333333333333	0	-30	-8.97083333333333	2	0.84765625
1958.2265625	0.00833333333333333	0	-30	-8.97083333333333	1	0.7919921875
1961.4853515625	0.00833333333333333	0	-30	-8.97083333333333	1	0.8779296875
1964.91015625	0.00833333333333333	0	30	-1.45625	1	1.029296875
1968.04296875	0.00833333333333333	0	-30	-8.97083333333333	2	0.8408203125
1971.134765625	0.00833333333333333	0	-30	-8.97083333333333	2	0.7734375
1974.1181640625	0.00833333333333333	0	-30	-8.97083333333333	2	0.884765625
1977.451171875	0.00833333333333333	0	30	-1.45625	2	0.8642578125
1980.5263671875	0.00833333333333333	0	30	-1.45625	2	0.6376953125
1983.5849609375	0.00833333333333333	0	-30	-8.97083333333333	2	0.626953125
1986.484375	0.00833333333333333	0	30	-1.45625	2	0.5517578125
1989.5341796875	0.00833333333333333	0	30	-1.45625	2	0.685546875
1992.54296875	0.00833333333333333	0	-30	-8.97083333333333	2	0.60546875
1995.7099609375	0.00833333333333333	0	30	-1.45625	2	0.998046875
1999.1845703125	0.00833333333333333	0	-30	-9.09583333333333	2	0.8515625
2002.4091796875	0.00833333333333333	0	30	-1.58125	1	1.2197265625
2006.0751953125	0.00833333333333333	0	-30	-9.09583333333333	1	0.8251953125
2009.208984375	0.00833333333333333	0	-30	-9.09583333333333	1	0.7236328125
2012.2177734375	0.00833333333333333	0	-30	-9.09583333333333	1	0.68359375
2015.25	0.00833333333333333	0	-30	-9.09583333333333	2	1.099609375
2018.958984375	0.00833333333333333	0	-30	-9.09583333333333	2	1.0380859375
2022.451171875	0.00833333333333333	0	-30	-9.09583333333333	2	0.7060546875
2025.44140625	0.00833333333333333	0	-30	-9.09583333333333	1	0.8115234375
2028.275390625	0.00833333333333333	0	-30	-9.09583333333333	2	0.658203125
2031.2744140625	0.00833333333333333	0	30	-1.58125	2	0.8828125
2034.484375	0.00833333333333333	0	-30	-9.09583333333333	2	0.5771484375
2037.341796875	0.00833333333333333	0	-30	-9.09583333333333	2	0.6640625
2040.283203125	0.00833333333333333	0	-30	-9.09583333333333	2	0.962890625
2043.6416015625	0.00833333333333333	0	-30	-9.09583333333333	2	0.5322265625
2046.525390625	0.00833333333333333	0	-30	-9.22083333333333	2	0.7919921875
2049.9169921875	0.00833333333333333	0	-30	-9.22083333333333	2	0.8330078125
2053	0.00833333333333333	0	-30	-9.22083333333333	2	0.5341796875
2055.8916015625	0.00833333333333333	0	30	-1.58125	2	0.658203125
2059.0087890625	0.00833333333333333	0	30	-1.58125	1	0.7890625
2061.92578125	0.00833333333333333	0	30	-1.58125	1	0.76953125
2065.125	0.00833333333333333	0	-30	-9.22083333333333	1	0.673828125
2067.974609375	0.00833333333333333	0	30	-1.58125	2	1.095703125
2071.658203125	0.00833333333333333	0	30	-1.58125	1	0.6201171875
2074.716796875	0.00833333333333333	0	-30	-9.22083333333333	1	0.7138671875
2077.658203125	0.00833333333333333	0	30	-1.58125	1	0.724609375
2080.775390625	0.00833333333333333	0	-30	-9.22083333333333	1	0.7431640625
2084.06640625	0.00833333333333333	0	30	-1.58125	1	0.6611328125
2087.18359375	0.00833333333333333	0	30	-1.58125	1	0.751953125
2090.3154296875	0.00833333333333333	0	-30	-9.22083333333333	1	1.1875
2093.908203125	0.00833333333333333	0	30	-1.58125	2	0.6826171875
2096.716796875	0.00833333333333333	0	30	-1.58125	2	0.5703125
2099.6328125	0.00833333333333333	0	30	-1.58125	2	0.638671875
2102.466796875	0.00833333333333333	0	-30	-9.22083333333333	1	0.7890625
2105.70703125	0.00833333333333333	0	-30	-9.09583333333333	1	0.6044921875
2108.798828125	0.00833333333333333	0	-30	-9.09583333333333	1	0.5693359375
2111.6416015625	0.00833333333333333	0	30	-1.58125	2	0.7744140625
2114.5498046875	0.00833333333333333	0	-30	-9.09583333333333	1	0.6904296875
2117.607421875	0.00833333333333333	0	30	-1.58125	2	0.7685546875
2120.7744140625	0.00833333333333333	0	30	-1.70625	2	1.1943359375
2124.306640625	0.00833333333333333	0	30	-1.70625	2	1.1181640625
2204.623046875	0.00833333333333333	0	-30	-9.09583333333333	1	1.068359375
2207.9150390625	0.00833333333333333	0	-30	-9.09583333333333	1	0.599609375
2210.9638671875	0.00833333333333333	0	-30	-8.97083333333333	1	0.53515625
2213.8984375	0.00833333333333333	0	-30	-8.97083333333333	1	0.46484375
2216.6640625	0.00833333333333333	0	30	-1.70625	2	1.1318359375
2220.09765625	0.00833333333333333	0	30	-1.70625	1	0.8662109375
2223.4638671875	0.00833333333333333	0	30	-1.70625	1	0.66015625
2226.6064453125	0.00833333333333333	0	-30	-8.97083333333333	1	0.7490234375
2229.7646484375	0.00833333333333333	0	30	-1.70625	1	0.6474609375
2232.7060546875	0.00833333333333333	0	30	-1.70625	1	0.857421875
2235.7060546875	0.00833333333333333	0	30	-1.70625	1	0.578125
2238.3564453125	0.00833333333333333	0	30	-1.58125	1	0.599609375
2241.1640625	0.00833333333333333	0	-30	-8.97083333333333	1	0.904296875
2244.255859375	0.00833333333333333	0	30	-1.58125	1	0.7802734375
2247.5146484375	0.00833333333333333	0	-30	-8.97083333333333	2	0.9462890625
2250.939453125	0.00833333333333333	0	30	-1.58125	1	0.609375
2253.7392578125	0.00833333333333333	0	-30	-8.97083333333333	2	0.8818359375
2257.0478515625	0.00833333333333333	0	-30	-8.97083333333333	1	0.8046875
2259.97265625	0.00833333333333333	0	30	-1.58125	1	0.640625
2262.671875	0.00833333333333333	0	30	-1.58125	1	0.5966796875
2265.4306640625	0.00833333333333333	0	30	-1.45625	1	0.3505859375
2268.005859375	0.00833333333333333	0	-30	-8.97083333333333	2	0.8154296875
2271.4140625	0.00833333333333333	0	-30	-8.97083333333333	2	1.0068359375
2274.630859375	0.00833333333333333	0	30	-1.45625	1	1.302734375
2278.4384765625	0.00833333333333333	0	-30	-8.97083333333333	1	0.775390625
2281.7548828125	0.00833333333333333	0	-30	-8.97083333333333	1	0.890625
2285.087890625	0.00833333333333333	0	30	-1.45625	1	0.7099609375
2288.2548828125	0.00833333333333333	0	-30	-8.97083333333333	2	1.1591796875
2291.85546875	0.00833333333333333	0	-30	-8.97083333333333	2	1.89453125
2295.8466796875	0.00833333333333333	0	30	-1.45625	2	1.6396484375
2299.5634765625	0.00833333333333333	0	30	-1.45625	1	1.72265625
2303.412109375	0.00833333333333333	0	-30	-8.97083333333333	2	1.1220703125
2306.9716796875	0.00833333333333333	0	30	-1.45625	2	0.8662109375
2310.0634765625	0.00833333333333333	0	-30	-8.97083333333333	2	0.71875
2313.0380859375	0.00833333333333333	0	-30	-8.97083333333333	1	0.744140625
2316.138671875	0.00833333333333333	0	30	-1.45625	1	0.7080078125
2319.263671875	0.00833333333333333	0	30	-1.45625	1	0.6708984375
2322.404296875	0.00833333333333333	0	30	-1.45625	2	0.875
2325.36328125	0.00833333333333333	0	30	-1.45625	2	0.66015625
2328.455078125	0.00833333333333333	0	30	-1.45625	1	3.34375
2334.271484375	0.00833333333333333	0	-30	-8.97083333333333	1	0.767578125
2337.529296875	0.00833333333333333	0	-30	-8.97083333333333	1	0.8779296875
2340.6962890625	0.00833333333333333	0	-30	-8.97083333333333	1	0.7109375
2343.779296875	0.00833333333333333	0	-30	-8.97083333333333	1	0.96484375
2347.2958984375	0.00833333333333333	0	30	-1.45625	1	0.7041015625
2350.5546875	0.00833333333333333	0	-30	-8.84583333333333	1	1.1572265625
2354.2626953125	0.00833333333333333	0	30	-1.45625	1	1.017578125
2357.6875	0.00833333333333333	0	-30	-8.84583333333333	1	1.5205078125
2361.3037109375	0.00833333333333333	0	30	-1.45625	1	0.953125
2364.74609375	0.00833333333333333	0	30	-1.45625	1	0.494140625
2367.3203125	0.00833333333333333	0	-30	-8.84583333333333	1	1.4404296875
2371.0869140625	0.00833333333333333	0	30	-1.33125	1	0.5380859375
2374.12890625	0.00833333333333333	0	30	-1.33125	1	0.607421875
2376.8779296875	0.00833333333333333	0	30	-1.33125	1	0.6025390625
2379.8291015625	0.00833333333333333	0	-30	-8.84583333333333	1	0.8037109375
2383.095703125	0.00833333333333333	0	30	-1.33125	2	0.873046875
2386.154296875	0.00833333333333333	0	30	-1.33125	2	0.9111328125
2389.51171875	0.00833333333333333	0	-30	-8.84583333333333	2	0.6650390625
2392.669921875	0.00833333333333333	0	30	-1.33125	2	0.8193359375
2395.669921875	0.00833333333333333	0	-30	-8.84583333333333	2	1.2998046875
2399.478515625	0.00833333333333333	0	30	-1.33125	2	0.6669921875
2402.5537109375	0.00833333333333333	0	30	-1.33125	2	0.65625
2405.39453125	0.00833333333333333	0	30	-1.45625	2	0.791015625
2408.76171875	0.00833333333333333	0	-30	-8.84583333333333	2	0.7197265625
2411.7705078125	0.00833333333333333	0	30	-1.45625	1	0.8310546875
2414.6787109375	0.00833333333333333	0	30	-1.45625	2	0.7548828125
2417.728515625	0.00833333333333333	0	30	-1.45625	1	1.28125
2421.427734375	0.00833333333333333	0	-30	-8.84583333333333	1	0.7578125
2424.2529296875	0.00833333333333333	0	-30	-8.84583333333333	1	1.94921875
2428.310546875	0.00833333333333333	0	-30	-8.84583333333333	1	0.6435546875
2431.26171875	0.00833333333333333	0	-30	-8.84583333333333	2	0.97265625
2434.6201171875	0.00833333333333333	0	30	-1.45625	2	1.150390625
2437.9951171875	0.00833333333333333	0	-30	-8.84583333333333	2	0.87109375
2441.0029296875	0.00833333333333333	0	30	-1.45625	2	0.4560546875
2443.8779296875	0.00833333333333333	0	-30	-8.84583333333333	2	1.4287109375
2447.8525390625	0.00833333333333333	0	-30	-8.84583333333333	2	0.5341796875
2450.919921875	0.00833333333333333	0	30	-1.45625	1	0.859375
2454.236328125	0.00833333333333333	0	-30	-8.84583333333333	1	0.55859375
2457.3525390625	0.00833333333333333	0	30	-1.45625	1	0.6826171875
2460.494140625	0.00833333333333333	0	30	-1.45625	1	0.61328125
2471.1689453125	0.00833333333333333	0	30	-1.45625	1	3.36328125
2476.7529296875	0.00833333333333333	0	30	-1.45625	1	0.8271484375
2479.77734375	0.00833333333333333	0	-30	-8.84583333333333	1	0.8583984375
2482.9189453125	0.00833333333333333	0	-30	-8.84583333333333	1	0.59765625
2485.7861328125	0.00833333333333333	0	30	-1.33125	1	0.6103515625
2488.5859375	0.00833333333333333	0	30	-1.33125	1	0.642578125
2491.66015625	0.00833333333333333	0	30	-1.33125	1	0.47265625
2494.6689453125	0.00833333333333333	0	-30	-8.84583333333333	1	0.51953125
2497.626953125	0.00833333333333333	0	-30	-8.84583333333333	1	0.41796875
2500.2265625	0.00833333333333333	0	30	-1.33125	1	0.490234375
2503.193359375	0.00833333333333333	0	30	-1.33125	1	0.8515625
2506.41015625	0.00833333333333333	0	30	-1.20625	1	0.70703125
2509.30078125	0.00833333333333333	0	30	-1.20625	1	0.5517578125
2512.2353515625	0.00833333333333333	0	30	-1.20625	1	0.3134765625
2514.8603515625	0.00833333333333333	0	30	-1.20625	1	0.7607421875
2517.71875	0.00833333333333333	0	-30	-8.72083333333333	1	0.7666015625
2520.701171875	0.00833333333333333	0	30	-1.20625	1	0.6962890625
2523.4599609375	0.00833333333333333	0	30	-1.08125	1	0.5771484375
2526.126953125	0.00833333333333333	0	-30	-8.72083333333333	1	2.4462890625
2530.7265625	0.00833333333333333	0	30	-1.08125	1	0.5517578125
2533.3759765625	0.00833333333333333	0	-30	-8.72083333333333	1	0.693359375
2536.5849609375	0.00833333333333333	0	-30	-8.72083333333333	1	0.6044921875
2539.751953125	0.00833333333333333	0	-30	-8.72083333333333	1	0.349609375
2542.3603515625	0.00833333333333333	0	30	-1.08125	2	1.1259765625
2545.84375	0.00833333333333333	0	30	-1.08125	1	0.8740234375
2548.767578125	0.00833333333333333	0	30	-1.08125	1	0.6630859375
2551.6513671875	0.00833333333333333	0	30	-1.08125	1	0.779296875
2554.6435546875	0.00833333333333333	0	30	-1.08125	1	1.611328125
2558.5751953125	0.00833333333333333	0	-30	-8.59583333333333	1	2.8310546875
2563.443359375	0.00833333333333333	0	30	-1.08125	1	0.7392578125
2566.67578125	0.00833333333333333	0	30	-0.95625	1	0.6748046875
2569.484375	0.00833333333333333	0	-30	-8.59583333333333	2	0.890625
2572.8759765625	0.00833333333333333	0	30	-0.95625	2	0.7470703125
2575.9091796875	0.00833333333333333	0	-30	-8.59583333333333	2	0.841796875
2579.134765625	0.00833333333333333	0	30	-0.95625	1	0.6572265625
2582.1005859375	0.00833333333333333	0	-30	-8.59583333333333	2	1.0908203125
2585.29296875	0.00833333333333333	0	30	-0.95625	2	1.73046875
2589.43359375	0.00833333333333333	0	-30	-8.59583333333333	2	1.4619140625
2593.2001953125	0.00833333333333333	0	30	-0.95625	2	0.599609375
2596.025390625	0.00833333333333333	0	-30	-8.59583333333333	1	0.6787109375
2599.076171875	0.00833333333333333	0	30	-0.95625	2	0.947265625
2602.43359375	0.00833333333333333	0	30	-0.95625	2	0.662109375
2605.2421875	0.00833333333333333	0	30	-0.95625	2	4.90234375
2612.4501953125	0.00833333333333333	0	30	-1.08125	1	1.0703125
2615.7587890625	0.00833333333333333	0	30	-1.08125	2	0.7861328125
2618.767578125	0.00833333333333333	0	30	-1.08125	2	1.1611328125
2622.3505859375	0.00833333333333333	0	30	-1.08125	2	0.841796875
2625.466796875	0.00833333333333333	0	30	-1.08125	2	3.078125
2630.6591796875	0.00833333333333333	0	-30	-8.59583333333333	2	1.765625
2634.6748046875	0.00833333333333333	0	-30	-8.59583333333333	1	0.6865234375
2637.55859375	0.00833333333333333	0	30	-1.08125	1	2.40234375
2642.2578125	0.00833333333333333	0	30	-1.08125	1	0.783203125
2645.525390625	0.00833333333333333	0	30	-1.08125	2	0.732421875
2648.7080078125	0.00833333333333333	0	30	-1.08125	2	0.78125
2651.9501953125	0.00833333333333333	0	-30	-8.59583333333333	1	0.7470703125
2654.8740234375	0.00833333333333333	0	30	-1.08125	2	1.015625
2658.099609375	0.00833333333333333	0	-30	-8.59583333333333	1	0.837890625
2661.2080078125	0.00833333333333333	0	30	-1.08125	1	1.41796875
2664.81640625	0.00833333333333333	0	-30	-8.59583333333333	1	0.5458984375
2667.6416015625	0.00833333333333333	0	-30	-8.59583333333333	1	0.6884765625
2670.6748046875	0.00833333333333333	0	-30	-8.47083333333333	1	0.50390625
2673.3994140625	0.00833333333333333	0	30	-1.08125	1	0.68359375
2676.408203125	0.00833333333333333	0	30	-1.08125	1	0.7861328125
2679.5166015625	0.00833333333333333	0	-30	-8.47083333333333	1	0.8701171875
2682.6650390625	0.00833333333333333	0	-30	-8.47083333333333	1	0.8095703125
2685.6748046875	0.00833333333333333	0	-30	-8.47083333333333	1	0.7841796875
2688.791015625	0.00833333333333333	0	30	-1.08125	1	0.939453125
2692.19140625	0.00833333333333333	0	-30	-8.47083333333333	1	0.626953125
2695.3994140625	0.00833333333333333	0	-30	-8.34583333333333	1	0.7080078125
2698.423828125	0.00833333333333333	0	-30	-8.34583333333333	1	0.7236328125
2701.4990234375	0.00833333333333333	0	30	-1.08125	2	0.8642578125
2704.5908203125	0.00833333333333333	0	-30	-8.34583333333333	1	0.7724609375
2707.4580078125	0.00833333333333333	0	30	-1.08125	2	0.5537109375
2710.140625	0.00833333333333333	0	30	-1.08125	2	0.390625
2712.83203125	0.00833333333333333	0	30	-1.08125	2	0.4833984375
2715.8740234375	0.00833333333333333	0	30	-1.08125	2	0.337890625
2718.482421875	0.00833333333333333	0	30	-1.20625	2	0.5458984375
2721.1240234375	0.00833333333333333	0	-30	-8.34583333333333	2	1.0556640625
2724.33203125	0.00833333333333333	0	-30	-8.34583333333333	2	0.5361328125
2727.2568359375	0.00833333333333333	0	-30	-8.34583333333333	1	0.6435546875
2740.8984375	0.00833333333333333	0	30	-1.20625	2	0.5537109375
2743.71484375	0.00833333333333333	0	-30	-8.34583333333333	2	0.9541015625
2747.056640625	0.00833333333333333	0	30	-1.20625	2	1.00390625
2750.5146484375	0.00833333333333333	0	-30	-8.34583333333333	1	1.162109375
2754.005859375	0.00833333333333333	0	30	-1.20625	2	0.798828125
2757.298828125	0.00833333333333333	0	30	-1.20625	2	0.642578125
2760.0400390625	0.00833333333333333	0	30	-1.33125	1	0.9169921875
2763.373046875	0.00833333333333333	0	30	-1.33125	1	0.6884765625
2766.5478515625	0.00833333333333333	0	-30	-8.34583333333333	1	0.76953125
2769.7900390625	0.00833333333333333	0	-30	-8.34583333333333	1	0.6630859375
2772.9814453125	0.00833333333333333	0	-30	-8.34583333333333	1	0.8798828125
2776.4736328125	0.00833333333333333	0	30	-1.33125	1	0.5556640625
2779.4560546875	0.00833333333333333	0	30	-1.33125	1	0.5341796875
2782.2314453125	0.00833333333333333	0	30	-1.33125	1	2.638671875
2787.40625	0.00833333333333333	0	-30	-8.34583333333333	1	0.607421875
2790.09765625	0.00833333333333333	0	30	-1.20625	1	0.572265625
2792.8896484375	0.00833333333333333	0	30	-1.20625	2	0.6689453125
2795.681640625	0.00833333333333333	0	-30	-8.22083333333333	1	0.6123046875
2798.83984375	0.00833333333333333	0	30	-1.20625	2	0.9267578125
2802.3310546875	0.00833333333333333	0	30	-1.20625	1	0.5791015625
2805.3232421875	0.00833333333333333	0	-30	-8.22083333333333	1	0.6591796875
2808.1640625	0.00833333333333333	0	-30	-8.22083333333333	1	0.7314453125
2811.388671875	0.00833333333333333	0	30	-1.20625	2	1.06640625
2814.5810546875	0.00833333333333333	0	30	-1.20625	2	0.7373046875
2817.73046875	0.00833333333333333	0	30	-1.20625	1	0.65234375
2820.78125	0.00833333333333333	0	-30	-8.22083333333333	1	0.7138671875
2823.8056640625	0.00833333333333333	0	-30	-8.22083333333333	1	0.6337890625
2826.9384765625	0.00833333333333333	0	30	-1.20625	1	3.4140625
2832.6806640625	0.00833333333333333	0	-30	-8.09583333333333	2	0.7265625
2835.921875	0.00833333333333333	0	-30	-8.09583333333333	1	0.8857421875
2839.138671875	0.00833333333333333	0	30	-1.20625	2	0.7734375
2842.22265625	0.00833333333333333	0	-30	-8.09583333333333	1	0.9296875
2845.3056640625	0.00833333333333333	0	30	-1.20625	2	0.7421875
2848.1806640625	0.00833333333333333	0	30	-1.20625	1	0.6513671875
2851.2724609375	0.00833333333333333	0	30	-1.20625	1	0.6474609375
2854.080078125	0.00833333333333333	0	-30	-8.09583333333333	1	0.7763671875
2857.3056640625	0.00833333333333333	0	30	-1.20625	1	1.2548828125
2861.0458984375	0.00833333333333333	0	30	-1.20625	1	0.7626953125
2864.0302734375	0.00833333333333333	0	-30	-8.09583333333333	1	0.5947265625
2866.7373046875	0.00833333333333333	0	-30	-8.09583333333333	1	0.775390625
2869.6298828125	0.00833333333333333	0	-30	-7.97083333333333	1	0.6904296875
2872.8720703125	0.00833333333333333	0	-30	-7.97083333333333	1	0.5927734375
2875.6884765625	0.00833333333333333	0	-30	-7.97083333333333	1	1.6328125
2879.6796875	0.00833333333333333	0	-30	-7.97083333333333	1	0.505859375
2882.3798828125	0.00833333333333333	0	-30	-7.97083333333333	1	0.6455078125
2885.421875	0.00833333333333333	0	-30	-7.84583333333333	1	0.4990234375
2888.48828125	0.00833333333333333	0	-30	-7.84583333333333	1	0.6494140625
2891.4384765625	0.00833333333333333	0	30	-1.20625	1	0.4990234375
2894.3046875	0.00833333333333333	0	-30	-7.84583333333333	2	0.8251953125
2897.470703125	0.00833333333333333	0	30	-1.08125	2	0.69921875
2900.779296875	0.00833333333333333	0	30	-1.08125	2	0.5986328125
2903.8466796875	0.00833333333333333	0	-30	-7.84583333333333	2	0.779296875
2907.1376953125	0.00833333333333333	0	-30	-7.84583333333333	2	1.0478515625
2910.271484375	0.00833333333333333	0	30	-1.08125	2	1.322265625
2913.8291015625	0.00833333333333333	0	30	-1.08125	2	1.373046875
2917.404296875	0.00833333333333333	0	30	-1.08125	2	0.830078125
2920.779296875	0.00833333333333333	0	-30	-7.84583333333333	1	2.359375
2925.2626953125	0.00833333333333333	0	-30	-7.84583333333333	1	0.1875
2927.7880859375	0.00833333333333333	0	30	-1.20625	2	2.1904296875
2932.2958984375	0.00833333333333333	0	30	-1.20625	1	0.9072265625
2935.353515625	0.00833333333333333	0	-30	-7.84583333333333	1	0.8974609375
2938.8447265625	0.00833333333333333	0	30	-1.20625	1	0.57421875
2941.5205078125	0.00833333333333333	0	30	-1.20625	1	2.06640625
2945.89453125	0.00833333333333333	0	-30	-7.84583333333333	1	0.740234375
2948.9033203125	0.00833333333333333	0	30	-1.20625	1	0.6435546875
2951.99609375	0.00833333333333333	0	-30	-7.84583333333333	1	0.630859375
2955.0693359375	0.00833333333333333	0	30	-1.20625	1	0.822265625
2958.2119140625	0.00833333333333333	0	-30	-7.72083333333333	2	4.279296875
2964.787109375	0.00833333333333333	0	30	-1.08125	2	0.953125
2968.0703125	0.00833333333333333	0	-30	-7.72083333333333	2	0.8134765625
2971.1533203125	0.00833333333333333	0	30	-1.08125	1	0.8505859375
2974.1533203125	0.00833333333333333	0	30	-1.08125	1	0.6748046875
2977.095703125	0.00833333333333333	0	30	-1.08125	2	1.8369140625
2981.595703125	0.00833333333333333	0	30	-1.08125	2	1.2568359375
2985.228515625	0.00833333333333333	0	30	-1.08125	2	0.7998046875
2988.50390625	0.00833333333333333	0	-30	-7.72083333333333	1	1.708984375
2992.3447265625	0.00833333333333333	0	30	-1.08125	1	0.5478515625
2995.2705078125	0.00833333333333333	0	-30	-7.72083333333333	1	0.0087890625
2997.5703125	0.00833333333333333	0	30	-1.08125	1	0.650390625
3000.4365234375	0.00833333333333333	0	-30	-7.72083333333333	1	0.025390625
3026.5859375	0.00833333333333333	0	-30	-7.72083333333333	1	2.4755859375
3031.2109375	0.00833333333333333	0	-30	-7.72083333333333	1	0.7314453125
3034.3193359375	0.00833333333333333	0	30	-1.08125	2	0.6865234375
3037.318359375	0.00833333333333333	0	30	-1.08125	1	0.8642578125
3040.5859375	0.00833333333333333	0	30	-1.08125	1	0.8525390625
3043.5947265625	0.00833333333333333	0	-30	-7.59583333333333	2	0.611328125
3046.5693359375	0.00833333333333333	0	-30	-7.59583333333333	1	0.9814453125
3050.0859375	0.00833333333333333	0	-30	-7.59583333333333	2	0.6005859375
3052.8779296875	0.00833333333333333	0	30	-1.08125	1	0.560546875
3055.59375	0.00833333333333333	0	30	-1.08125	1	0.5732421875
3058.369140625	0.00833333333333333	0	-30	-7.59583333333333	2	0.7421875
3061.6103515625	0.00833333333333333	0	30	-1.08125	1	1.0126953125
3065.001953125	0.00833333333333333	0	30	-0.95625	1	0.6455078125
3067.77734375	0.00833333333333333	0	-30	-7.59583333333333	1	0.58984375
3070.7607421875	0.00833333333333333	0	-30	-7.59583333333333	2	1.142578125
3074.1943359375	0.00833333333333333	0	-30	-7.59583333333333	1	0.9248046875
3077.59375	0.00833333333333333	0	30	-0.95625	1	0.6455078125
3080.6435546875	0.00833333333333333	0	-30	-7.59583333333333	1	0.7080078125
3083.66796875	0.00833333333333333	0	30	-0.95625	1	0.9638671875
3086.79296875	0.00833333333333333	0	-30	-7.59583333333333	1	0.791015625
3090.1103515625	0.00833333333333333	0	-30	-7.59583333333333	2	1.1455078125
3093.626953125	0.00833333333333333	0	30	-0.95625	2	0.62890625
3096.71875	0.00833333333333333	0	-30	-7.59583333333333	1	1.2890625
3100.1435546875	0.00833333333333333	0	-30	-7.59583333333333	1	0.6484375
3103.1015625	0.00833333333333333	0	-30	-7.59583333333333	1	0.9306640625
3106.435546875	0.00833333333333333	0	30	-0.95625	1	0.5888671875
3109.5771484375	0.00833333333333333	0	-30	-7.59583333333333	1	0.703125
3112.5595703125	0.00833333333333333	0	30	-0.95625	1	0.4091796875
3115.3349609375	0.00833333333333333	0	30	-0.95625	2	1.001953125
3118.8095703125	0.00833333333333333	0	-30	-7.59583333333333	1	1.0390625
3122.04296875	0.00833333333333333	0	30	-0.95625	1	1.8623046875
3126.109375	0.00833333333333333	0	30	-0.95625	2	0.9560546875
3129.3017578125	0.00833333333333333	0	-30	-7.47083333333333	1	0.6357421875
3132.3017578125	0.00833333333333333	0	-30	-7.47083333333333	1	0.923828125
3135.6591796875	0.00833333333333333	0	30	-0.95625	1	1.0546875
3139.216796875	0.00833333333333333	0	30	-0.95625	2	0.712890625
3142.318359375	0.00833333333333333	0	-30	-7.47083333333333	1	0.9228515625
3145.6513671875	0.00833333333333333	0	-30	-7.47083333333333	2	0.638671875
3148.818359375	0.00833333333333333	0	-30	-7.47083333333333	1	0.86328125
3152.0419921875	0.00833333333333333	0	-30	-7.47083333333333	1	1.248046875
3155.634765625	0.00833333333333333	0	30	-0.95625	1	0.4228515625
3158.3759765625	0.00833333333333333	0	-30	-7.47083333333333	1	0.330078125
3160.8505859375	0.00833333333333333	0	30	-0.95625	1	0.6318359375
3163.91796875	0.00833333333333333	0	30	-0.95625	1	0.5087890625
3166.5087890625	0.00833333333333333	0	-30	-7.47083333333333	1	0.3818359375
3169.158203125	0.00833333333333333	0	-30	-7.47083333333333	1	0.5400390625
3171.8505859375	0.00833333333333333	0	-30	-7.34583333333333	1	0.6083984375
3174.583984375	0.00833333333333333	0	30	-0.95625	2	1.04296875
3177.958984375	0.00833333333333333	0	30	-0.95625	1	1.5078125
3181.92578125	0.00833333333333333	0	-30	-7.34583333333333	2	1.0771484375
3185.4169921875	0.00833333333333333	0	-30	-7.34583333333333	2	0.9384765625
3188.8408203125	0.00833333333333333	0	30	-0.95625	2	0.72265625
3192.0166015625	0.00833333333333333	0	-30	-7.34583333333333	1	0.794921875
3195.1171875	0.00833333333333333	0	-30	-7.34583333333333	1	0.662109375
3198.05078125	0.00833333333333333	0	30	-0.95625	1	0.5927734375
3200.7587890625	0.00833333333333333	0	30	-0.95625	1	0.78125
3204.033203125	0.00833333333333333	0	-30	-7.34583333333333	1	0.90625
3207.0498046875	0.00833333333333333	0	-30	-7.34583333333333	1	1.0419921875
3210.6083984375	0.00833333333333333	0	-30	-7.34583333333333	1	0.435546875
3213.482421875	0.00833333333333333	0	-30	-7.22083333333333	1	0.833984375
3216.6337890625	0.00833333333333333	0	-30	-7.22083333333333	1	1.921875
3220.7255859375	0.00833333333333333	0	30	-0.95625	1	0.703125
3223.5498046875	0.00833333333333333	0	-30	-7.22083333333333	1	1.0380859375
3226.9248046875	0.00833333333333333	0	-30	-7.22083333333333	1	0.607421875
3229.9833984375	0.00833333333333333	0	30	-0.95625	1	2.78125
3235.0751953125	0.00833333333333333	0	-30	-7.22083333333333	1	0.5615234375
3237.966796875	0.00833333333333333	0	-30	-7.09583333333333	1	1.189453125
3241.43359375	0.00833333333333333	0	-30	-7.09583333333333	1	0.53125
3244.216796875	0.00833333333333333	0	-30	-7.09583333333333	1	0.5400390625
3247.3251953125	0.00833333333333333	0	30	-0.95625	1	0.6474609375
3250.2998046875	0.00833333333333333	0	-30	-7.09583333333333	1	0.4970703125
3253.0244140625	0.00833333333333333	0	30	-0.83125	2	1.1884765625
3256.75	0.00833333333333333	0	30	-0.83125	1	1.2470703125
3260.4580078125	0.00833333333333333	0	-30	-7.09583333333333	1	1.8349609375
3264.5078125	0.00833333333333333	0	-30	-6.97083333333333	1	0.76953125
3267.6328125	0.00833333333333333	0	-30	-6.97083333333333	1	0.7724609375
3270.6328125	0.00833333333333333	0	30	-0.83125	1	1.701171875
3274.5908203125	0.00833333333333333	0	-30	-6.97083333333333	1	2.19140625
3279.107421875	0.00833333333333333	0	-30	-6.97083333333333	1	0.6904296875
3282.0654296875	0.00833333333333333	0	-30	-6.97083333333333	1	2.1484375
3294.541015625	0.00833333333333333	0	30	-0.83125	1	3.08203125
3299.8408203125	0.00833333333333333	0	-30	-6.84583333333333	2	0.8134765625
3302.9072265625	0.00833333333333333	0	30	-0.83125	2	0.7314453125
3305.8076171875	0.00833333333333333	0	-30	-6.84583333333333	2	0.7509765625
3308.8154296875	0.00833333333333333	0	-30	-6.84583333333333	2	1.439453125
3312.4736328125	0.00833333333333333	0	-30	-6.84583333333333	1	0.60546875
3315.423828125	0.00833333333333333	0	30	-0.83125	2	1.0390625
3318.689453125	0.00833333333333333	0	-30	-6.84583333333333	1	0.8701171875
3321.8154296875	0.00833333333333333	0	-30	-6.84583333333333	2	0.6240234375
3324.9990234375	0.00833333333333333	0	-30	-6.84583333333333	1	0.7919921875
3328.1904296875	0.00833333333333333	0	-30	-6.84583333333333	2	0.705078125
3331.4736328125	0.00833333333333333	0	30	-0.83125	2	1.0859375
3334.84765625	0.00833333333333333	0	-30	-6.84583333333333	2	0.83203125
3337.8232421875	0.00833333333333333	0	30	-0.83125	2	1.0810546875
3341.45703125	0.00833333333333333	0	-30	-6.84583333333333	1	0.7265625
3344.5400390625	0.00833333333333333	0	-30	-6.84583333333333	1	0.732421875
3347.6572265625	0.00833333333333333	0	30	-0.83125	2	0.6875
3350.5146484375	0.00833333333333333	0	30	-0.95625	1	1.4541015625
3354.2900390625	0.00833333333333333	0	-30	-6.84583333333333	2	3.166015625
3359.65625	0.00833333333333333	0	-30	-6.84583333333333	1	1.3447265625
3363.373046875	0.00833333333333333	0	30	-0.95625	1	0.419921875
3365.931640625	0.00833333333333333	0	30	-0.95625	1	0.669921875
3368.998046875	0.00833333333333333	0	-30	-6.84583333333333	1	0.5947265625
3371.8232421875	0.00833333333333333	0	-30	-6.84583333333333	1	3.8818359375
3377.8642578125	0.00833333333333333	0	-30	-6.84583333333333	1	0.1845703125
3380.6640625	0.00833333333333333	0	30	-0.95625	2	0.7373046875
3383.7470703125	0.00833333333333333	0	30	-0.95625	2	0.55859375
3386.33984375	0.00833333333333333	0	-30	-6.84583333333333	2	0.837890625
3389.5224609375	0.00833333333333333	0	-30	-6.84583333333333	1	1.279296875
3393.197265625	0.00833333333333333	0	-30	-6.84583333333333	1	0.876953125
3396.6142578125	0.00833333333333333	0	-30	-6.84583333333333	2	0.7314453125
3399.9560546875	0.00833333333333333	0	30	-0.95625	1	0.7978515625
3403.0380859375	0.00833333333333333	0	-30	-6.84583333333333	2	0.7001953125
3405.888671875	0.00833333333333333	0	-30	-6.84583333333333	2	0.689453125
3409.130859375	0.00833333333333333	0	-30	-6.84583333333333	1	0.8154296875
3412.2880859375	0.00833333333333333	0	30	-0.95625	1	1.05859375
3415.47265625	0.00833333333333333	0	-30	-6.84583333333333	1	0.193359375
3418.0126953125	0.00833333333333333	0	-30	-6.84583333333333	2	0.8623046875
3421.130859375	0.00833333333333333	0	30	-0.95625	2	1.759765625
3425.1884765625	0.00833333333333333	0	-30	-6.84583333333333	2	0.75
3428.3134765625	0.00833333333333333	0	-30	-6.84583333333333	2	0.7138671875
3431.171875	0.00833333333333333	0	30	-0.95625	1	0.630859375
3434.1806640625	0.00833333333333333	0	-30	-6.84583333333333	1	0.7587890625
3437.572265625	0.00833333333333333	0	-30	-6.84583333333333	1	3.263671875
3442.9296875	0.00833333333333333	0	30	-0.95625	1	0.8818359375
3446.396484375	0.00833333333333333	0	-30	-6.84583333333333	1	0.55859375
3449.4384765625	0.00833333333333333	0	-30	-6.84583333333333	1	0.685546875
3452.4296875	0.00833333333333333	0	30	-0.95625	1	0.55859375
3455.3212890625	0.00833333333333333	0	30	-0.95625	1	0.626953125
3458.271484375	0.00833333333333333	0	30	-0.95625	1	0.64453125
3461.3544921875	0.00833333333333333	0	30	-0.83125	1	0.009765625
3463.8291015625	0.00833333333333333	0	30	-0.83125	1	0.5830078125
3467.013671875	0.00833333333333333	0	30	-0.83125	1	0.5029296875
3469.6884765625	0.00833333333333333	0	-30	-6.84583333333333	1	0.771484375
3472.74609375	0.00833333333333333	0	30	-0.83125	1	0.5859375
3475.9130859375	0.00833333333333333	0	30	-0.83125	1	0.70703125
3478.9384765625	0.00833333333333333	0	-30	-6.72083333333333	1	1.8662109375
3482.98828125	0.00833333333333333	0	-30	-6.72083333333333	2	0.7763671875
3486.228515625	0.00833333333333333	0	-30	-6.72083333333333	2	1.49609375
3490.205078125	0.00833333333333333	0	30	-0.70625	1	0.759765625
3493.36328125	0.00833333333333333	0	30	-0.70625	1	0.7294921875
3496.462890625	0.00833333333333333	0	30	-0.70625	1	0.7822265625
3499.462890625	0.00833333333333333	0	-30	-6.72083333333333	1	1.1904296875
3502.837890625	0.00833333333333333	0	30	-0.70625	1	1.34375
3506.5126953125	0.00833333333333333	0	-30	-6.72083333333333	1	0.876953125
3509.62109375	0.00833333333333333	0	30	-0.70625	1	0.671875
3512.603515625	0.00833333333333333	0	30	-0.58125	1	0.7060546875
3515.8125	0.00833333333333333	0	-30	-6.72083333333333	1	0.712890625
3518.9375	0.00833333333333333	0	30	-0.58125	2	1.0126953125
3522.212890625	0.00833333333333333	0	30	-0.58125	1	0.681640625
3525.0703125	0.00833333333333333	0	-30	-6.72083333333333	1	1.4482421875
3528.654296875	0.00833333333333333	0	-30	-6.72083333333333	1	0.83203125
3532.0791015625	0.00833333333333333	0	30	-0.58125	1	3.8310546875
3538.412109375	0.00833333333333333	0	30	-0.58125	1	0.7783203125
3541.353515625	0.00833333333333333	0	30	-0.58125	2	0.8291015625
3544.6455078125	0.00833333333333333	0	-30	-6.59583333333333	1	0.9765625
3548.169921875	0.00833333333333333	0	30	-0.58125	2	0.6533203125
3551.294921875	0.00833333333333333	0	-30	-6.59583333333333	2	0.671875
3554.5625	0.00833333333333333	0	-30	-6.59583333333333	2	0.8125
3558.037109375	0.00833333333333333	0	-30	-6.59583333333333	2	0.6015625
3567.5869140625	0.00833333333333333	0	-30	-6.59583333333333	1	2.66015625
3572.3701171875	0.00833333333333333	0	30	-0.58125	2	0.9013671875
3575.5615234375	0.00833333333333333	0	30	-0.58125	2	0.853515625
3578.64453125	0.00833333333333333	0	-30	-6.59583333333333	2	0.7314453125
3581.478515625	0.00833333333333333	0	30	-0.58125	2	0.7138671875
3584.7451171875	0.00833333333333333	0	30	-0.70625	2	0.85546875
3587.7451171875	0.00833333333333333	0	30	-0.70625	2	0.71875
3591.0361328125	0.00833333333333333	0	-30	-6.59583333333333	2	0.748046875
3594.0947265625	0.00833333333333333	0	30	-0.70625	2	0.537109375
3596.89453125	0.00833333333333333	0	-30	-6.59583333333333	2	0.7138671875
3599.927734375	0.00833333333333333	0	-30	-6.59583333333333	1	2.3291015625
3604.6943359375	0.00833333333333333	0	30	-0.70625	1	0.4658203125
3607.3525390625	0.00833333333333333	0	-30	-6.59583333333333	1	2.072265625
3611.693359375	0.00833333333333333	0	-30	-6.59583333333333	1	0.626953125
3614.6943359375	0.00833333333333333	0	30	-0.70625	1	3.451171875
3620.4697265625	0.00833333333333333	0	30	-0.70625	2	1.275390625
3624.369140625	0.00833333333333333	0	-30	-6.59583333333333	1	2.8876953125
3629.7939453125	0.00833333333333333	0	30	-0.70625	2	0.599609375
3632.560546875	0.00833333333333333	0	30	-0.70625	2	1.2734375
3636.3359375	0.00833333333333333	0	30	-0.70625	2	0.849609375
3639.4853515625	0.00833333333333333	0	-30	-6.59583333333333	2	1.060546875
3642.9775390625	0.00833333333333333	0	-30	-6.59583333333333	1	1.1767578125
3646.626953125	0.00833333333333333	0	-30	-6.59583333333333	2	4.03125
3653.251953125	0.00833333333333333	0	30	-0.70625	2	0.8466796875
3656.5859375	0.00833333333333333	0	30	-0.83125	1	1.376953125
3660.4599609375	0.00833333333333333	0	30	-0.83125	2	1.57421875
3664.4853515625	0.00833333333333333	0	30	-0.83125	2	1.357421875
3668.0107421875	0.00833333333333333	0	30	-0.83125	1	0.671875
3670.958984375	0.00833333333333333	0	-30	-6.59583333333333	2	0.8193359375
3673.984375	0.00833333333333333	0	-30	-6.59583333333333	1	2.2421875
3678.4677734375	0.00833333333333333	0	-30	-6.59583333333333	1	0.767578125
3681.4921875	0.00833333333333333	0	-30	-6.59583333333333	2	0.943359375
3684.7841796875	0.00833333333333333	0	30	-0.83125	1	0.611328125
3687.775390625	0.00833333333333333	0	30	-0.83125	2	0.5478515625
3690.576171875	0.00833333333333333	0	30	-0.83125	2	0.5068359375
3693.3671875	0.00833333333333333	0	30	-0.83125	1	0.748046875
3696.708984375	0.00833333333333333	0	-30	-6.59583333333333	2	0.623046875
3699.884765625	0.00833333333333333	0	30	-0.83125	1	0.7353515625
3703.208984375	0.00833333333333333	0	30	-0.83125	1	0.70703125
3706.142578125	0.00833333333333333	0	30	-0.83125	2	0.6689453125
3709.29296875	0.00833333333333333	0	30	-0.83125	1	0.7109375
3712.2001953125	0.00833333333333333	0	-30	-6.59583333333333	1	0.748046875
3715.2421875	0.00833333333333333	0	-30	-6.59583333333333	1	0.841796875
3718.2666015625	0.00833333333333333	0	-30	-6.59583333333333	1	0.9453125
3721.333984375	0.00833333333333333	0	30	-0.83125	1	0.669921875
3724.4755859375	0.00833333333333333	0	-30	-6.59583333333333	1	0.81640625
3727.5419921875	0.00833333333333333	0	-30	-6.59583333333333	1	2.56640625
3732.625	0.00833333333333333	0	30	-0.83125	1	0.3876953125
3735.091796875	0.00833333333333333	0	-30	-6.47083333333333	1	0.6328125
3738.2080078125	0.00833333333333333	0	-30	-6.47083333333333	1	0.5966796875
3741.05078125	0.00833333333333333	0	-30	-6.47083333333333	1	0.009765625
3743.5078125	0.00833333333333333	0	30	-0.83125	1	2.6572265625
3748.2666015625	0.00833333333333333	0	-30	-6.47083333333333	1	0.6025390625
3751.2412109375	0.00833333333333333	0	-30	-6.47083333333333	1	0.6201171875
3754.3505859375	0.00833333333333333	0	-30	-6.34583333333333	2	1.0947265625
3757.841796875	0.00833333333333333	0	30	-0.83125	2	0.7158203125
3760.8994140625	0.00833333333333333	0	30	-0.83125	2	0.810546875
3763.833984375	0.00833333333333333	0	-30	-6.34583333333333	2	0.6279296875
3766.775390625	0.00833333333333333	0	30	-0.83125	2	1.2548828125
3770.349609375	0.00833333333333333	0	30	-0.83125	2	0.82421875
3773.607421875	0.00833333333333333	0	30	-0.83125	2	0.9267578125
3776.7841796875	0.00833333333333333	0	30	-0.95625	2	1.92578125
3780.9658203125	0.00833333333333333	0	30	-0.95625	2	0.720703125
3784.1328125	0.00833333333333333	0	30	-0.95625	1	3.7216796875
3789.9990234375	0.00833333333333333	0	30	-0.95625	1	0.84765625
3793.1328125	0.00833333333333333	0	30	-0.95625	1	1.3134765625
3796.890625	0.00833333333333333	0	30	-0.95625	2	0.9482421875
3800.1669921875	0.00833333333333333	0	30	-0.95625	2	0.1123046875
3802.732421875	0.00833333333333333	0	-30	-6.34583333333333	2	4.0263671875
3809.0244140625	0.00833333333333333	0	30	-0.95625	2	0.9345703125
3812.44921875	0.00833333333333333	0	30	-0.95625	1	1.0380859375
3815.6494140625	0.00833333333333333	0	-30	-6.34583333333333	1	0.8056640625
3819.048828125	0.00833333333333333	0	-30	-6.34583333333333	1	0.478515625
3821.94921875	0.00833333333333333	0	-30	-6.34583333333333	2	1.138671875
3825.57421875	0.00833333333333333	0	-30	-6.34583333333333	1	3.4013671875
3831.4482421875	0.00833333333333333	0	30	-0.95625	2	2.3681640625
3836.0078125	0.00833333333333333	0	-30	-6.34583333333333	1	0.552734375
3838.9072265625	0.00833333333333333	0	-30	-6.34583333333333	2	1.0126953125
3842.1064453125	0.00833333333333333	0	-30	-6.34583333333333	2	0.998046875
3845.740234375	0.00833333333333333	0	-30	-6.34583333333333	2	0.6123046875
3857.65625	0.00833333333333333	0	30	-0.95625	2	0.81640625
3860.9404296875	0.00833333333333333	0	-30	-6.34583333333333	2	1.068359375
3864.265625	0.00833333333333333	0	30	-0.95625	1	0.7197265625
3867.32421875	0.00833333333333333	0	30	-0.95625	1	0.6923828125
3870.2060546875	0.00833333333333333	0	30	-0.95625	1	0.5634765625
3872.931640625	0.00833333333333333	0	30	-0.95625	1	0.5498046875
3875.59765625	0.00833333333333333	0	30	-0.95625	1	0.5400390625
3878.248046875	0.00833333333333333	0	30	-0.83125	1	0.6015625
3880.9814453125	0.00833333333333333	0	-30	-6.34583333333333	1	0.66015625
3884.0732421875	0.00833333333333333	0	30	-0.83125	1	0.8330078125
3887.056640625	0.00833333333333333	0	30	-0.83125	1	0.5849609375
3889.982421875	0.00833333333333333	0	30	-0.83125	1	0.603515625
3892.765625	0.00833333333333333	0	-30	-6.34583333333333	1	0.5087890625
3895.4814453125	0.00833333333333333	0	-30	-6.34583333333333	1	0.5205078125
3898.1806640625	0.00833333333333333	0	30	-0.83125	1	1.0859375
3901.5146484375	0.00833333333333333	0	30	-0.70625	1	2.015625
3905.6904296875	0.00833333333333333	0	-30	-6.34583333333333	1	0.51171875
3908.45703125	0.00833333333333333	0	-30	-6.34583333333333	1	0.009765625
3910.490234375	0.00833333333333333	0	-30	-6.22083333333333	1	2.8564453125
3915.7890625	0.00833333333333333	0	30	-0.70625	2	1.1171875
3919.0810546875	0.00833333333333333	0	-30	-6.22083333333333	1	1.6982421875
3923.1806640625	0.00833333333333333	0	-30	-6.22083333333333	2	0.6298828125
3926.388671875	0.00833333333333333	0	30	-0.70625	1	1.54296875
3930.2978515625	0.00833333333333333	0	30	-0.70625	1	0.5048828125
3933.35546875	0.00833333333333333	0	30	-0.70625	1	0.5517578125
3936.1474609375	0.00833333333333333	0	-30	-6.22083333333333	1	0.671875
3939.2978515625	0.00833333333333333	0	-30	-6.22083333333333	1	0.666015625
3942.3984375	0.00833333333333333	0	30	-0.70625	1	0.845703125
3945.4384765625	0.00833333333333333	0	-30	-6.22083333333333	2	0.6455078125
3948.513671875	0.00833333333333333	0	30	-0.70625	1	3.0419921875
3953.955078125	0.00833333333333333	0	30	-0.58125	2	1.041015625
3957.4716796875	0.00833333333333333	0	-30	-6.22083333333333	2	0.6923828125
3960.4130859375	0.00833333333333333	0	30	-0.58125	1	1.3349609375
3964.11328125	0.00833333333333333	0	30	-0.58125	2	2.0673828125
3968.5302734375	0.00833333333333333	0	-30	-6.22083333333333	1	1.08203125
3972.0634765625	0.00833333333333333	0	-30	-6.22083333333333	2	0.853515625
3975.4716796875	0.00833333333333333	0	-30	-6.22083333333333	1	0.5966796875
3978.521484375	0.00833333333333333	0	-30	-6.22083333333333	2	0.8271484375
3981.646484375	0.00833333333333333	0	30	-0.58125	2	0.486328125
3984.4384765625	0.00833333333333333	0	-30	-6.22083333333333	2	0.5185546875
3987.4296875	0.00833333333333333	0	30	-0.58125	1	0.6630859375
3990.296875	0.00833333333333333	0	-30	-6.22083333333333	2	1.1162109375
3993.8134765625	0.00833333333333333	0	-30	-6.22083333333333	2	0.7919921875
3997.1298828125	0.00833333333333333	0	-30	-6.22083333333333	1	0.5234375
4000.029296875	0.00833333333333333	0	-30	-6.22083333333333	2	0.6396484375
4003.2802734375	0.00833333333333333	0	-30	-6.22083333333333	2	0.677734375
4006.3466796875	0.00833333333333333	0	30	-0.58125	2	0.810546875
4009.3212890625	0.00833333333333333	0	-30	-6.22083333333333	2	0.5244140625
4012.2294921875	0.00833333333333333	0	30	-0.58125	2	0.232421875
4014.6796875	0.00833333333333333	0	-30	-6.22083333333333	1	0.91796875
4018.10546875	0.00833333333333333	0	-30	-6.22083333333333	2	0.6123046875
4021.1796875	0.00833333333333333	0	30	-0.58125	1	0.818359375
4024.1708984375	0.00833333333333333	0	30	-0.58125	1	0.6591796875
4027.4384765625	0.00833333333333333	0	-30	-6.22083333333333	2	0.6640625
4030.3876953125	0.00833333333333333	0	-30	-6.22083333333333	1	0.70703125
4033.654296875	0.00833333333333333	0	-30	-6.22083333333333	1	0.728515625
4036.7958984375	0.00833333333333333	0	-30	-6.22083333333333	2	0.875
4040.2373046875	0.00833333333333333	0	30	-0.58125	1	0.8818359375
4043.654296875	0.00833333333333333	0	30	-0.58125	1	0.7041015625
4046.5537109375	0.00833333333333333	0	-30	-6.22083333333333	1	0.5498046875
4049.228515625	0.00833333333333333	0	30	-0.58125	1	0.1787109375
4051.7373046875	0.00833333333333333	0	30	-0.45625	1	0.7978515625
4054.6455078125	0.00833333333333333	0	-30	-6.22083333333333	1	0.90625
4057.720703125	0.00833333333333333	0	30	-0.45625	2	0.89453125
4061.0205078125	0.00833333333333333	0	-30	-6.22083333333333	1	0.5068359375
4063.720703125	0.00833333333333333	0	-30	-6.22083333333333	1	0.6865234375
4066.8623046875	0.00833333333333333	0	-30	-6.22083333333333	1	0.7294921875
4069.9951171875	0.00833333333333333	0	-30	-6.09583333333333	1	0.8369140625
4073.4296875	0.00833333333333333	0	30	-0.45625	1	2.826171875
4078.4453125	0.00833333333333333	0	30	-0.45625	2	0.7861328125
4081.4951171875	0.00833333333333333	0	30	-0.45625	1	0.8330078125
4084.912109375	0.00833333333333333	0	30	-0.45625	1	5.0322265625
4092.4365234375	0.00833333333333333	0	-30	-6.09583333333333	1	0.66796875
4095.578125	0.00833333333333333	0	30	-0.45625	1	4.3662109375
4102.103515625	0.00833333333333333	0	-30	-6.09583333333333	1	0.689453125
4105.26171875	0.00833333333333333	0	30	-0.45625	1	0.875
4108.611328125	0.00833333333333333	0	-30	-6.09583333333333	1	1.7021484375
4112.794921875	0.00833333333333333	0	30	-0.45625	1	2.7666015625
4117.8369140625	0.00833333333333333	0	-30	-6.09583333333333	1	0.388671875
4120.4775390625	0.00833333333333333	0	30	-0.33125	1	1.4521484375
4134.2109375	0.00833333333333333	0	30	-0.33125	1	2.111328125
4138.5693359375	0.00833333333333333	0	30	-0.33125	1	0.6162109375
4141.4453125	0.00833333333333333	0	30	-0.33125	2	1.4853515625
4145.244140625	0.00833333333333333	0	-30	-5.97083333333333	1	0.734375
4148.1611328125	0.00833333333333333	0	30	-0.33125	1	1.0732421875
4151.876953125	0.00833333333333333	0	30	-0.33125	1	0.5654296875
4154.744140625	0.00833333333333333	0	-30	-5.97083333333333	1	1.162109375
4158.2275390625	0.00833333333333333	0	-30	-5.97083333333333	2	0.6630859375
4161.0439453125	0.00833333333333333	0	30	-0.33125	1	0.87109375
4164.3779296875	0.00833333333333333	0	30	-0.33125	2	0.7451171875
4167.3603515625	0.00833333333333333	0	-30	-5.97083333333333	2	0.73828125
4170.6611328125	0.00833333333333333	0	-30	-5.97083333333333	2	0.59765625
4173.59375	0.00833333333333333	0	30	-0.33125	2	0.9052734375
4176.6025390625	0.00833333333333333	0	-30	-5.97083333333333	2	0.5205078125
4179.3115234375	0.00833333333333333	0	30	-0.33125	2	0.5234375
4182.0439453125	0.00833333333333333	0	30	-0.33125	1	0.7275390625
4185.0361328125	0.00833333333333333	0	-30	-5.97083333333333	2	0.703125
4187.8681640625	0.00833333333333333	0	-30	-6.09583333333333	2	0.52734375
4190.935546875	0.00833333333333333	0	-30	-6.09583333333333	1	0.8203125
4193.8271484375	0.00833333333333333	0	30	-0.33125	1	3.8251953125
4199.9853515625	0.00833333333333333	0	-30	-6.09583333333333	2	0.8662109375
4203.1611328125	0.00833333333333333	0	-30	-6.09583333333333	2	0.71484375
4206.21875	0.00833333333333333	0	30	-0.33125	2	0.9052734375
4209.6767578125	0.00833333333333333	0	30	-0.33125	1	0.84765625
4212.91796875	0.00833333333333333	0	-30	-6.09583333333333	1	0.6865234375
4215.7353515625	0.00833333333333333	0	-30	-6.09583333333333	1	0.7412109375
4219.001953125	0.00833333333333333	0	-30	-6.09583333333333	1	0.650390625
4222.126953125	0.00833333333333333	0	30	-0.33125	1	0.5498046875
4224.79296875	0.00833333333333333	0	30	-0.33125	1	0.6513671875
4227.8017578125	0.00833333333333333	0	-30	-6.09583333333333	1	0.4833984375
4230.6513671875	0.00833333333333333	0	30	-0.33125	1	0.76953125
4233.7509765625	0.00833333333333333	0	30	-0.33125	1	0.4462890625
4236.3515625	0.00833333333333333	0	-30	-6.09583333333333	1	0.109375
4238.642578125	0.00833333333333333	0	-30	-5.97083333333333	2	0.8671875
4242.109375	0.00833333333333333	0	30	-0.20625	2	0.912109375
4245.2177734375	0.00833333333333333	0	30	-0.20625	1	1.091796875
4248.41796875	0.00833333333333333	0	30	-0.20625	2	0.8671875
4251.6591796875	0.00833333333333333	0	30	-0.20625	2	0.9462890625
4254.826171875	0.00833333333333333	0	-30	-5.97083333333333	2	0.603515625
4257.951171875	0.00833333333333333	0	30	-0.20625	2	0.2861328125
4260.7421875	0.00833333333333333	0	-30	-5.97083333333333	2	1.072265625
4263.9423828125	0.00833333333333333	0	30	-0.20625	2	1.328125
4267.5927734375	0.00833333333333333	0	-30	-5.97083333333333	2	0.1416015625
4269.8671875	0.00833333333333333	0	30	-0.20625	2	1.802734375
4274.2421875	0.00833333333333333	0	-30	-5.97083333333333	1	0.7802734375
4277.267578125	0.00833333333333333	0	30	-0.33125	2	0.8349609375
4280.2431640625	0.00833333333333333	0	-30	-5.97083333333333	1	0.70703125
4283.0673828125	0.00833333333333333	0	-30	-5.97083333333333	1	0.69921875
4286.1923828125	0.00833333333333333	0	-30	-5.97083333333333	1	0.4541015625
4289.125	0.00833333333333333	0	-30	-5.97083333333333	1	0.44140625
4291.9921875	0.00833333333333333	0	-30	-5.84583333333333	1	0.54296875
4295.083984375	0.00833333333333333	0	30	-0.33125	1	0.794921875
4298.0673828125	0.00833333333333333	0	-30	-5.84583333333333	1	0.68359375
4301.333984375	0.00833333333333333	0	-30	-5.84583333333333	1	0.6494140625
4304.3427734375	0.00833333333333333	0	30	-0.33125	1	0.6650390625
4307.1513671875	0.00833333333333333	0	30	-0.33125	1	0.6796875
4310.150390625	0.00833333333333333	0	30	-0.33125	1	1.3935546875
4313.841796875	0.00833333333333333	0	-30	-5.84583333333333	1	0.7255859375
4317.025390625	0.00833333333333333	0	-30	-5.84583333333333	2	0.91796875
4320.0673828125	0.00833333333333333	0	-30	-5.84583333333333	2	0.4609375
4322.69140625	0.00833333333333333	0	30	-0.33125	2	0.373046875
4325.56640625	0.00833333333333333	0	-30	-5.84583333333333	2	0.609375
4328.6669921875	0.00833333333333333	0	-30	-5.84583333333333	1	0.94921875
4331.93359375	0.00833333333333333	0	30	-0.33125	1	0.71484375
4334.8427734375	0.00833333333333333	0	30	-0.33125	1	0.6533203125
4337.6494140625	0.00833333333333333	0	30	-0.33125	1	0.7275390625
4340.6826171875	0.00833333333333333	0	30	-0.33125	1	1.021484375
4344.18359375	0.00833333333333333	0	30	-0.33125	2	0.9052734375
4347.6162109375	0.00833333333333333	0	30	-0.33125	1	1.80078125
4351.94921875	0.00833333333333333	0	30	-0.33125	2	0.6201171875
4354.982421875	0.00833333333333333	0	30	-0.33125	2	0.6826171875
4357.8916015625	0.00833333333333333	0	30	-0.33125	2	0.8857421875
4361.1162109375	0.00833333333333333	0	30	-0.33125	2	1.4931640625
4364.7578125	0.00833333333333333	0	30	-0.33125	2	0.66796875
4367.75	0.00833333333333333	0	-30	-5.84583333333333	2	0.619140625
4370.81640625	0.00833333333333333	0	30	-0.45625	2	0.4248046875
4373.4658203125	0.00833333333333333	0	30	-0.45625	2	0.5439453125
4376.2578125	0.00833333333333333	0	30	-0.45625	2	0.615234375
4379.107421875	0.00833333333333333	0	-30	-5.84583333333333	2	0.974609375
4382.5244140625	0.00833333333333333	0	30	-0.45625	2	0.58984375
4390.7236328125	0.00833333333333333	0	-30	-5.84583333333333	1	3.390625
4396.6904296875	0.00833333333333333	0	30	-0.45625	2	0.6162109375
4399.7236328125	0.00833333333333333	0	-30	-5.84583333333333	2	0.54296875
4402.548828125	0.00833333333333333	0	-30	-5.84583333333333	2	0.5732421875
4405.640625	0.00833333333333333	0	30	-0.58125	2	0.6103515625
4408.6650390625	0.00833333333333333	0	30	-0.58125	2	1.033203125
4412.056640625	0.00833333333333333	0	-30	-5.84583333333333	2	1.06640625
4415.533203125	0.00833333333333333	0	-30	-5.84583333333333	1	1.486328125
4419.240234375	0.00833333333333333	0	-30	-5.84583333333333	1	0.5869140625
4422.1650390625	0.00833333333333333	0	30	-0.58125	1	0.7900390625
4425.5234375	0.00833333333333333	0	-30	-5.84583333333333	1	0.7041015625
4428.6650390625	0.00833333333333333	0	30	-0.58125	1	0.978515625
4431.8828125	0.00833333333333333	0	-30	-5.84583333333333	1	2.7451171875
4436.83984375	0.00833333333333333	0	-30	-5.84583333333333	1	2.33984375
4441.623046875	0.00833333333333333	0	-30	-5.72083333333333	1	0.572265625
4444.5654296875	0.00833333333333333	0	30	-0.58125	1	1.71875
4448.5478515625	0.00833333333333333	0	30	-0.58125	1	0.6640625
4451.6982421875	0.00833333333333333	0	30	-0.58125	2	3.8740234375
4458.08984375	0.00833333333333333	0	-30	-5.72083333333333	1	0.7626953125
4461.130859375	0.00833333333333333	0	30	-0.58125	2	3.1943359375
4466.7236328125	0.00833333333333333	0	-30	-5.72083333333333	2	1.2568359375
4470.306640625	0.00833333333333333	0	-30	-5.72083333333333	1	0.73828125
4473.498046875	0.00833333333333333	0	30	-0.58125	1	1.619140625
4477.373046875	0.00833333333333333	0	-30	-5.72083333333333	1	0.65625
4480.2314453125	0.00833333333333333	0	-30	-5.72083333333333	1	0.92578125
4483.33203125	0.00833333333333333	0	30	-0.58125	2	0.76953125
4486.673828125	0.00833333333333333	0	-30	-5.72083333333333	1	0.451171875
4489.2392578125	0.00833333333333333	0	30	-0.58125	2	0.6865234375
4492.365234375	0.00833333333333333	0	-30	-5.72083333333333	2	0.953125
4495.5146484375	0.00833333333333333	0	30	-0.58125	2	0.1630859375
4498.072265625	0.00833333333333333	0	30	-0.58125	2	1.9658203125
4502.2470703125	0.00833333333333333	0	-30	-5.72083333333333	1	1.0146484375
4505.35546875	0.00833333333333333	0	-30	-5.72083333333333	2	1.626953125
4509.2060546875	0.00833333333333333	0	-30	-5.72083333333333	1	0.7841796875
4512.5634765625	0.00833333333333333	0	-30	-5.72083333333333	1	0.6826171875
4515.822265625	0.00833333333333333	0	30	-0.58125	1	0.767578125
4518.9052734375	0.00833333333333333	0	30	-0.58125	1	2.0849609375
4523.4560546875	0.00833333333333333	0	-30	-5.72083333333333	2	0.7421875
4526.306640625	0.00833333333333333	0	30	-0.58125	1	0.7080078125
4529.23046875	0.00833333333333333	0	-30	-5.72083333333333	2	0.984375
4532.84765625	0.00833333333333333	0	30	-0.58125	2	0.54296875
4535.888671875	0.00833333333333333	0	30	-0.58125	2	0.75
4539.0048828125	0.00833333333333333	0	30	-0.58125	2	0.818359375
4542.11328125	0.00833333333333333	0	30	-0.58125	2	0.677734375
4545.3798828125	0.00833333333333333	0	-30	-5.72083333333333	1	0.8115234375
4548.396484375	0.00833333333333333	0	-30	-5.72083333333333	2	0.70703125
4551.61328125	0.00833333333333333	0	30	-0.58125	2	0.5458984375
4554.638671875	0.00833333333333333	0	30	-0.70625	2	0.544921875
4557.48828125	0.00833333333333333	0	30	-0.70625	2	0.6396484375
4560.5380859375	0.00833333333333333	0	30	-0.70625	2	0.60546875
4563.4970703125	0.00833333333333333	0	-30	-5.72083333333333	2	1.791015625
4567.8212890625	0.00833333333333333	0	-30	-5.72083333333333	1	0.5703125
4570.587890625	0.00833333333333333	0	-30	-5.72083333333333	1	4.1318359375
4576.98828125	0.00833333333333333	0	30	-0.70625	2	0.587890625
4579.8125	0.00833333333333333	0	30	-0.70625	2	0.580078125
4582.5625	0.00833333333333333	0	30	-0.83125	2	0.8701171875
4585.771484375	0.00833333333333333	0	-30	-5.72083333333333	2	0.8291015625
4588.8798828125	0.00833333333333333	0	-30	-5.72083333333333	2	0.7607421875
4592.1630859375	0.00833333333333333	0	30	-0.83125	2	0.60546875
4595.3466796875	0.00833333333333333	0	-30	-5.72083333333333	1	1.0703125
4598.75390625	0.00833333333333333	0	-30	-5.72083333333333	1	1.1669921875
4602.0205078125	0.00833333333333333	0	-30	-5.72083333333333	1	0.900390625
4605.25390625	0.00833333333333333	0	-30	-5.72083333333333	1	1.2431640625
4608.8876953125	0.00833333333333333	0	-30	-5.72083333333333	1	1.4013671875
4612.7626953125	0.00833333333333333	0	30	-0.83125	2	0.8232421875
4615.771484375	0.00833333333333333	0	30	-0.83125	2	0.5576171875
4618.4794921875	0.00833333333333333	0	-30	-5.59583333333333	1	2.8662109375
4623.646484375	0.00833333333333333	0	-30	-5.59583333333333	1	0.71484375
4626.5048828125	0.00833333333333333	0	-30	-5.59583333333333	1	0.857421875
4629.5537109375	0.00833333333333333	0	30	-0.83125	1	0.6806640625
4632.7802734375	0.00833333333333333	0	30	-0.83125	1	0.6455078125
4635.970703125	0.00833333333333333	0	-30	-5.59583333333333	1	1.0556640625
4639.4462890625	0.00833333333333333	0	-30	-5.59583333333333	1	1.9482421875
4643.669921875	0.00833333333333333	0	30	-0.83125	2	0.828125
4646.73828125	0.00833333333333333	0	30	-0.83125	2	0.6318359375
4649.5205078125	0.00833333333333333	0	-30	-5.47083333333333	1	0.5224609375
4652.3291015625	0.00833333333333333	0	-30	-5.47083333333333	1	0.9931640625
4655.787109375	0.00833333333333333	0	30	-0.83125	1	1.0234375
4659.25390625	0.00833333333333333	0	-30	-5.47083333333333	1	1.0771484375
4662.51171875	0.00833333333333333	0	-30	-5.47083333333333	1	0.6279296875
