onset	duration	titr	surround	centre	response	rt
45.599609375	0.00833333333333333	1	-30	-15	1	2.31640625
50.44140625	0.00833333333333333	1	-30	15	1	1.3388671875
54.4091796875	0.00833333333333333	1	-30	16	1	1.5791015625
58.08203125	0.00833333333333333	1	30	15	2	1.330078125
61.5322265625	0.00833333333333333	1	NaN	15	1	1.2958984375
65.2998046875	0.00833333333333333	1	30	-15	2	1.12890625
68.724609375	0.00833333333333333	1	-30	-14	2	1.208984375
72.408203125	0.00833333333333333	1	30	14	1	1.068359375
75.8916015625	0.00833333333333333	1	30	-16	2	1.025390625
79.3662109375	0.00833333333333333	1	-30	17	1	34.49609375
116.173828125	0.00833333333333333	1	30	15	1	1.568359375
119.83203125	0.00833333333333333	1	-30	18	1	3.3505859375
125.6240234375	0.00833333333333333	1	30	16	1	2.0625
129.931640625	0.00833333333333333	1	NaN	-15	1	1.9951171875
134.4072265625	0.00833333333333333	1	30	17	2	1.83203125
138.423828125	0.00833333333333333	1	-30	-15	1	1.9990234375
142.6650390625	0.00833333333333333	1	NaN	16	2	1.654296875
146.681640625	0.00833333333333333	1	NaN	15	1	11.2294921875
160.314453125	0.00833333333333333	1	-30	-14	1	1.533203125
164.1220703125	0.00833333333333333	1	NaN	-14	1	2.2216796875
168.806640625	0.00833333333333333	1	-30	-13	1	0.8408203125
171.73046875	0.00833333333333333	1	NaN	-13	1	0.7177734375
174.90625	0.00833333333333333	1	-30	19	2	1.1181640625
178.1650390625	0.00833333333333333	1	NaN	-12	1	1.107421875
181.4228515625	0.00833333333333333	1	30	-17	1	0.9130859375
184.73046875	0.00833333333333333	1	30	-16	1	0.93359375
187.8896484375	0.00833333333333333	1	NaN	-11	1	0.630859375
190.90625	0.00833333333333333	1	30	-15	1	0.822265625
193.830078125	0.00833333333333333	1	-30	18	2	0.802734375
196.6728515625	0.00833333333333333	1	-30	17	2	0.5361328125
199.6298828125	0.00833333333333333	1	NaN	16	2	0.4111328125
202.4892578125	0.00833333333333333	1	-30	-12	2	0.919921875
205.9140625	0.00833333333333333	1	NaN	-10	1	2.0947265625
210.380859375	0.00833333333333333	1	NaN	15	2	0.740234375
213.40625	0.00833333333333333	1	30	-14	1	0.9951171875
216.60546875	0.00833333333333333	1	NaN	14	2	0.8603515625
219.505859375	0.00833333333333333	1	NaN	-9	1	0.767578125
222.7216796875	0.00833333333333333	1	30	16	2	1.4560546875
226.330078125	0.00833333333333333	1	NaN	-8	1	1.1591796875
229.60546875	0.00833333333333333	1	30	15	2	1.3642578125
233.1220703125	0.00833333333333333	1	-30	-13	1	1.7998046875
237.12109375	0.00833333333333333	1	NaN	-7	1	1.48046875
240.796875	0.00833333333333333	1	30	-13	1	1.029296875
244.2802734375	0.00833333333333333	1	NaN	13	2	1.09765625
247.5966796875	0.00833333333333333	1	NaN	12	2	0.7255859375
250.5380859375	0.00833333333333333	1	-30	-12	2	1.3203125
254.1630859375	0.00833333333333333	1	NaN	-6	2	1.19140625
257.697265625	0.00833333333333333	1	-30	16	2	0.7451171875
260.5634765625	0.00833333333333333	1	30	14	2	1.6474609375
264.7216796875	0.00833333333333333	1	-30	-13	2	1.2177734375
268.4296875	0.00833333333333333	1	NaN	-7	2	1.1337890625
271.6630859375	0.00833333333333333	1	-30	15	2	0.7080078125
274.7626953125	0.00833333333333333	1	NaN	-8	1	0.96875
277.75390625	0.00833333333333333	1	-30	14	1	1.376953125
281.296875	0.00833333333333333	1	-30	15	2	0.890625
284.2626953125	0.00833333333333333	1	-30	14	2	0.7724609375
287.4130859375	0.00833333333333333	1	NaN	11	2	0.89453125
290.5380859375	0.00833333333333333	1	-30	-14	1	1.08203125
293.8701171875	0.00833333333333333	1	-30	-13	1	2.197265625
298.845703125	0.00833333333333333	1	NaN	-7	1	1.1181640625
302.337890625	0.00833333333333333	1	-30	-12	1	1.841796875
306.4873046875	0.00833333333333333	1	-30	-11	1	0.9970703125
309.845703125	0.00833333333333333	1	-30	-10	1	1.0625
313.1123046875	0.00833333333333333	1	30	-12	1	0.8837890625
316.3037109375	0.00833333333333333	1	30	-11	1	0.62890625
319.462890625	0.00833333333333333	1	30	13	2	0.8212890625
322.6279296875	0.00833333333333333	1	30	12	1	0.9287109375
325.64453125	0.00833333333333333	1	30	13	1	0.8798828125
328.6953125	0.00833333333333333	1	NaN	-6	1	0.6376953125
331.552734375	0.00833333333333333	1	30	14	1	0.65234375
334.4873046875	0.00833333333333333	1	NaN	-5	1	0.6455078125
337.3115234375	0.00833333333333333	1	-30	13	2	1.1494140625
340.7451171875	0.00833333333333333	1	-30	12	2	0.6279296875
343.419921875	0.00833333333333333	1	30	15	1	1.337890625
362.3857421875	0.00833333333333333	1	30	-10	1	0.7646484375
365.39453125	0.00833333333333333	1	NaN	10	2	1.35546875
369.236328125	0.00833333333333333	1	-30	11	2	0.921875
372.6357421875	0.00833333333333333	1	30	16	2	0.5625
375.5859375	0.00833333333333333	1	-30	10	2	0.65234375
378.65234375	0.00833333333333333	1	30	15	2	1.322265625
382.310546875	0.00833333333333333	1	30	14	2	1.640625
386.4443359375	0.00833333333333333	1	-30	9	2	0.5546875
389.02734375	0.00833333333333333	1	-30	-9	2	1.3232421875
392.744140625	0.00833333333333333	1	30	13	2	1.0869140625
396.0693359375	0.00833333333333333	1	-30	8	2	0.994140625
399.3359375	0.00833333333333333	1	NaN	9	2	0.54296875
402.193359375	0.00833333333333333	1	-30	-10	2	0.58984375
404.810546875	0.00833333333333333	1	NaN	8	2	0.6845703125
407.5439453125	0.00833333333333333	1	30	12	2	0.7275390625
410.318359375	0.00833333333333333	1	-30	7	2	0.5849609375
413.1025390625	0.00833333333333333	1	-30	-11	1	0.9375
416.2275390625	0.00833333333333333	1	NaN	7	1	1.15234375
419.4697265625	0.00833333333333333	1	-30	-10	1	0.6337890625
422.2197265625	0.00833333333333333	1	30	11	1	0.564453125
425.1689453125	0.00833333333333333	1	NaN	8	2	0.8388671875
428.1611328125	0.00833333333333333	1	-30	6	1	1.2392578125
431.5947265625	0.00833333333333333	1	30	-9	1	0.60546875
434.2197265625	0.00833333333333333	1	-30	7	2	0.701171875
437.060546875	0.00833333333333333	1	30	12	1	0.6279296875
440.177734375	0.00833333333333333	1	-30	-9	1	0.958984375
443.3271484375	0.00833333333333333	1	-30	-8	1	0.6416015625
446.0439453125	0.00833333333333333	1	NaN	7	2	0.7890625
448.89453125	0.00833333333333333	1	30	-8	1	0.642578125
451.65234375	0.00833333333333333	1	30	13	1	1.1806640625
455.27734375	0.00833333333333333	1	30	-7	1	0.7001953125
458.494140625	0.00833333333333333	1	-30	-7	1	0.771484375
461.5771484375	0.00833333333333333	1	-30	-6	1	0.759765625
464.810546875	0.00833333333333333	1	30	14	1	0.630859375
467.935546875	0.00833333333333333	1	NaN	6	2	2.76171875
473.21875	0.00833333333333333	1	30	15	1	1.03125
476.443359375	0.00833333333333333	1	-30	6	2	0.646484375
479.5107421875	0.00833333333333333	1	30	16	2	0.634765625
482.3515625	0.00833333333333333	1	NaN	5	2	0.626953125
485.1435546875	0.00833333333333333	1	NaN	4	2	0.5146484375
488.03515625	0.00833333333333333	1	-30	-5	2	1.0791015625
491.2265625	0.00833333333333333	1	30	15	2	1.7841796875
495.201171875	0.00833333333333333	1	-30	5	2	0.5771484375
497.8681640625	0.00833333333333333	1	30	-6	1	0.6787109375
500.626953125	0.00833333333333333	1	30	-5	1	0.65625
503.626953125	0.00833333333333333	1	-30	4	1	1.1201171875
506.943359375	0.00833333333333333	1	NaN	-4	1	0.5869140625
510.0595703125	0.00833333333333333	1	NaN	3	1	1.2392578125
513.5849609375	0.00833333333333333	1	-30	-6	1	0.59375
516.3017578125	0.00833333333333333	1	30	-4	1	0.62109375
519.4599609375	0.00833333333333333	1	30	14	1	2.6708984375
524.3515625	0.00833333333333333	1	NaN	4	2	0.7958984375
527.609375	0.00833333333333333	1	NaN	-3	2	0.650390625
531.3251953125	0.00833333333333333	1	NaN	3	1	1.8388671875
535.5849609375	0.00833333333333333	1	NaN	-4	1	0.69921875
538.7841796875	0.00833333333333333	1	-30	5	2	0.859375
542.1259765625	0.00833333333333333	1	30	15	2	0.7978515625
545.259765625	0.00833333333333333	1	-30	4	2	0.6162109375
548.05078125	0.00833333333333333	1	30	14	2	2.8251953125
553.359375	0.00833333333333333	1	30	-3	1	0.716796875
556.5341796875	0.00833333333333333	1	NaN	-3	1	0.8779296875
559.67578125	0.00833333333333333	1	NaN	4	1	0.873046875
562.8427734375	0.00833333333333333	1	30	-2	1	0.6181640625
565.67578125	0.00833333333333333	1	NaN	-2	1	0.625
568.591796875	0.00833333333333333	1	NaN	5	1	2.0927734375
573.017578125	0.00833333333333333	1	NaN	-1	1	0.6357421875
576.083984375	0.00833333333333333	1	-30	3	2	0.8330078125
579.0087890625	0.00833333333333333	1	30	13	1	1.30859375
582.4423828125	0.00833333333333333	1	30	14	1	1.0263671875
586.025390625	0.00833333333333333	1	NaN	6	2	1.5078125
589.80078125	0.00833333333333333	1	NaN	5	2	0.96484375
593.142578125	0.00833333333333333	1	-30	2	2	0.6552734375
595.94140625	0.00833333333333333	1	NaN	4	2	0.6962890625
599.033203125	0.00833333333333333	1	-30	1	2	0.7568359375
601.9921875	0.00833333333333333	1	30	-1	1	0.7978515625
605.32421875	0.00833333333333333	1	NaN	3	1	0.986328125
608.6337890625	0.00833333333333333	1	NaN	0	1	0.8046875
611.525390625	0.00833333333333333	1	30	15	1	0.865234375
614.9755859375	0.00833333333333333	1	30	16	1	0.9990234375
618.125	0.00833333333333333	1	NaN	1	1	0.8896484375
621.30859375	0.00833333333333333	1	NaN	2	1	0.833984375
624.533203125	0.00833333333333333	1	NaN	3	1	0.6572265625
627.5244140625	0.00833333333333333	1	30	17	1	0.6259765625
630.2919921875	0.00833333333333333	1	30	0	1	0.6103515625
633.0830078125	0.00833333333333333	1	30	1	1	0.5556640625
636.0166015625	0.00833333333333333	1	30	18	2	1.0703125
639.2333984375	0.00833333333333333	1	NaN	4	2	0.7255859375
642.3662109375	0.00833333333333333	1	30	2	1	0.857421875
645.375	0.00833333333333333	1	NaN	3	1	0.9599609375
648.4248046875	0.00833333333333333	1	30	3	1	2.0791015625
652.8564453125	0.00833333333333333	1	-30	0	2	0.8154296875
656	0.00833333333333333	1	30	4	1	0.6953125
658.9072265625	0.00833333333333333	1	30	5	1	0.556640625
661.9150390625	0.00833333333333333	1	30	6	1	1.4453125
681.673828125	0.00833333333333333	1	30	7	1	0.806640625
684.8740234375	0.00833333333333333	1	30	8	1	0.5986328125
687.8408203125	0.00833333333333333	1	NaN	4	2	0.8955078125
691.1904296875	0.00833333333333333	1	-30	-1	1	0.810546875
694.140625	0.00833333333333333	1	-30	0	1	1.4365234375
697.890625	0.00833333333333333	1	NaN	3	1	1.0146484375
700.9990234375	0.00833333333333333	1	-30	1	2	0.7939453125
704.1240234375	0.00833333333333333	1	NaN	4	2	0.6611328125
707.1982421875	0.00833333333333333	1	30	9	1	0.9951171875
710.3564453125	0.00833333333333333	1	NaN	3	2	0.6533203125
713.5322265625	0.00833333333333333	1	-30	0	2	0.5732421875
716.44921875	0.00833333333333333	1	NaN	2	1	0.8564453125
719.740234375	0.00833333333333333	1	-30	-1	1	1.197265625
723.015625	0.00833333333333333	1	30	10	2	1.138671875
726.373046875	0.00833333333333333	1	30	9	2	1.1171875
729.998046875	0.00833333333333333	1	30	8	1	1.8603515625
734.2890625	0.00833333333333333	1	30	9	1	1.4169921875
737.8818359375	0.00833333333333333	1	30	10	1	2.056640625
742.46484375	0.00833333333333333	1	30	11	1	0.8740234375
745.796875	0.00833333333333333	1	30	12	1	0.7255859375
748.5732421875	0.00833333333333333	1	30	13	1	0.60546875
751.3486328125	0.00833333333333333	1	30	14	2	0.8779296875
754.2900390625	0.00833333333333333	1	30	13	2	0.7685546875
757.53125	0.00833333333333333	1	30	12	2	2
761.72265625	0.00833333333333333	1	30	11	1	0.8486328125
765.0146484375	0.00833333333333333	1	30	12	1	4.236328125
771.5478515625	0.00833333333333333	1	30	13	1	2.8564453125
776.521484375	0.00833333333333333	1	30	14	1	0.9697265625
779.85546875	0.00833333333333333	1	30	15	1	1.236328125
783.4560546875	0.00833333333333333	1	30	16	2	1.5
787.0390625	0.00833333333333333	1	30	15	2	0.62109375
789.7646484375	0.00833333333333333	1	30	14	2	0.615234375
792.6728515625	0.00833333333333333	1	30	13	2	0.8994140625
795.9638671875	0.00833333333333333	1	30	12	2	1.376953125
799.6806640625	0.00833333333333333	1	30	11	2	2.3720703125
804.5390625	0.00833333333333333	1	30	10	1	0.8818359375
807.4892578125	0.00833333333333333	1	30	11	1	4.8359375
814.837890625	0.00833333333333333	1	30	12	1	0.974609375
817.9384765625	0.00833333333333333	1	30	13	2	2.162109375
822.296875	0.00833333333333333	1	30	12	1	0.923828125
825.505859375	0.00833333333333333	1	30	13	1	0.9794921875
828.955078125	0.00833333333333333	1	30	14	1	1.05859375
832.48828125	0.00833333333333333	1	30	15	1	1.2451171875
836.171875	0.00833333333333333	1	30	16	2	1.9140625
840.4306640625	0.00833333333333333	1	30	14.25	2	0.7109375
843.60546875	0.00833333333333333	1	30	13.25	2	0.9921875
846.8056640625	0.00833333333333333	1	30	14.125	1	3.3681640625
852.513671875	0.00833333333333333	1	-30	-3	2	1.15625
856.2392578125	0.00833333333333333	1	-30	-3.125	2	0.775390625
859.25390625	0.00833333333333333	1	NaN	4.41666666666667	1	3.8564453125
865.24609375	0.00833333333333333	1	30	13.125	1	1.1845703125
868.462890625	0.00833333333333333	1	NaN	4.54166666666667	1	1
871.62109375	0.00833333333333333	1	30	14.25	1	1.6025390625
875.396484375	0.00833333333333333	1	NaN	3.41666666666667	2	1.8583984375
879.3876953125	0.00833333333333333	1	30	14.375	1	1.626953125
883.2041015625	0.00833333333333333	1	30	14.5	1	1.947265625
887.3447265625	0.00833333333333333	1	30	13.25	1	1.0380859375
890.5048828125	0.00833333333333333	1	NaN	3.29166666666667	1	1.7666015625
894.5458984375	0.00833333333333333	1	30	13.375	1	1.1015625
897.7705078125	0.00833333333333333	1	30	13.5	1	2.0615234375
902.1875	0.00833333333333333	1	-30	-4	1	0.99609375
905.6953125	0.00833333333333333	1	30	13.625	1	0.7763671875
908.5712890625	0.00833333333333333	1	30	13.75	2	1.7802734375
912.4794921875	0.00833333333333333	1	NaN	4.66666666666667	1	1.6484375
916.5703125	0.00833333333333333	1	-30	-3.875	1	1.2861328125
920.1943359375	0.00833333333333333	1	30	14.625	1	0.93359375
923.595703125	0.00833333333333333	1	-30	-3.75	1	0.8369140625
926.5791015625	0.00833333333333333	1	30	14.75	1	0.7333984375
929.8955078125	0.00833333333333333	1	NaN	4.79166666666667	1	1.5048828125
933.8291015625	0.00833333333333333	1	30	13.625	1	8.00390625
944.2451171875	0.00833333333333333	1	-30	-3.625	1	0.732421875
947.26171875	0.00833333333333333	1	NaN	3.41666666666667	1	0.611328125
950.103515625	0.00833333333333333	1	30	14.875	1	1.0498046875
953.4287109375	0.00833333333333333	1	NaN	3.54166666666667	1	0.7001953125
956.4873046875	0.00833333333333333	1	30	13.75	1	0.6982421875
959.3203125	0.00833333333333333	1	NaN	3.66666666666667	1	1.353515625
963.162109375	0.00833333333333333	1	NaN	4.91666666666667	2	0.9677734375
966.203125	0.00833333333333333	1	30	13.875	2	0.5263671875
968.9365234375	0.00833333333333333	1	-30	-3.5	1	1.10546875
972.486328125	0.00833333333333333	1	30	15	1	1.3232421875
976.0615234375	0.00833333333333333	1	30	15.125	1	4.541015625
1019.3271484375	0.00833333333333333	1	NaN	4.79166666666667	2	1.0283203125
1022.802734375	0.00833333333333333	1	-30	-3.375	2	0.8486328125
1025.7763671875	0.00833333333333333	1	NaN	3.79166666666667	2	0.68359375
1028.59375	0.00833333333333333	1	30	13.75	2	0.673828125
1031.52734375	0.00833333333333333	1	NaN	3.66666666666667	2	1.068359375
1034.6689453125	0.00833333333333333	1	-30	-3.5	2	1.4228515625
1038.14453125	0.00833333333333333	1	30	15.25	2	0.53125
1041.02734375	0.00833333333333333	1	30	15.125	2	0.5771484375
1044.0029296875	0.00833333333333333	1	-30	-3.625	2	0.873046875
1046.9521484375	0.00833333333333333	1	30	13.625	2	0.572265625
1049.935546875	0.00833333333333333	1	-30	-3.25	2	1.3251953125
1053.568359375	0.00833333333333333	1	NaN	3.54166666666667	2	0.6044921875
1056.66015625	0.00833333333333333	1	NaN	4.66666666666667	2	0.9287109375
1060.2607421875	0.00833333333333333	1	30	15	2	1.0400390625
1063.7431640625	0.00833333333333333	1	30	14.875	2	1.5654296875
1067.4853515625	0.00833333333333333	1	-30	-3.75	1	1.0478515625
1070.9189453125	0.00833333333333333	1	-30	-3.625	1	0.9423828125
1073.9521484375	0.00833333333333333	1	NaN	3.41666666666667	1	1.3173828125
1077.6181640625	0.00833333333333333	1	-30	-3.375	1	0.6357421875
1080.7021484375	0.00833333333333333	1	NaN	3.54166666666667	1	0.607421875
1083.400390625	0.00833333333333333	1	30	13.5	2	0.9892578125
1086.84375	0.00833333333333333	1	NaN	3.66666666666667	1	0.826171875
1089.96875	0.00833333333333333	1	30	14.75	2	1.125
1093.3349609375	0.00833333333333333	1	30	13.375	2	0.966796875
1096.326171875	0.00833333333333333	1	30	14.625	2	0.583984375
1099.1337890625	0.00833333333333333	1	-30	-3.5	1	0.896484375
1102.134765625	0.00833333333333333	1	-30	-3.375	1	0.6474609375
1105.267578125	0.00833333333333333	1	-30	-3.25	1	0.73828125
1108.208984375	0.00833333333333333	1	30	14.5	1	0.78125
1111.158203125	0.00833333333333333	1	NaN	3.79166666666667	1	0.6318359375
1114.1259765625	0.00833333333333333	1	NaN	3.91666666666667	1	0.9765625
1117.2099609375	0.00833333333333333	1	NaN	4.04166666666667	1	0.6611328125
1120.3427734375	0.00833333333333333	1	-30	-3.25	1	0.7119140625
1123.5341796875	0.00833333333333333	1	-30	-3.125	1	0.8486328125
1126.5263671875	0.00833333333333333	1	30	13.25	2	0.8642578125
1129.6513671875	0.00833333333333333	1	NaN	4.16666666666667	1	0.9716796875
1132.8515625	0.00833333333333333	1	NaN	4.29166666666667	1	0.7001953125
1135.9345703125	0.00833333333333333	1	30	13.125	2	1.1533203125
1139.19140625	0.00833333333333333	1	-30	-3	1	1.1357421875
1142.6845703125	0.00833333333333333	1	30	14.625	2	0.6513671875
1145.826171875	0.00833333333333333	1	30	13	2	0.8134765625
1149.0595703125	0.00833333333333333	1	30	14.5	2	0.9404296875
1152.2177734375	0.00833333333333333	1	30	12.875	1	0.9345703125
1155.484375	0.00833333333333333	1	NaN	4.54166666666667	2	0.587890625
1158.3671875	0.00833333333333333	1	NaN	4.41666666666667	1	3.552734375
1164.1083984375	0.00833333333333333	1	-30	-3.125	1	0.740234375
1167.2841796875	0.00833333333333333	1	30	14.375	1	0.6279296875
1170.1171875	0.00833333333333333	1	30	13	1	0.7236328125
1173	0.00833333333333333	1	NaN	4.54166666666667	1	0.7763671875
1176.0751953125	0.00833333333333333	1	30	13.125	1	0.5810546875
1178.8583984375	0.00833333333333333	1	NaN	4.66666666666667	1	0.638671875
1181.8837890625	0.00833333333333333	1	30	13.25	1	0.5888671875
1184.6494140625	0.00833333333333333	1	30	14.5	1	0.599609375
1187.69140625	0.00833333333333333	1	30	13.375	1	0.6298828125
1190.68359375	0.00833333333333333	1	-30	-3	1	4.533203125
1197.6669921875	0.00833333333333333	1	-30	-2.875	1	1.0302734375
1200.841796875	0.00833333333333333	1	30	13.5	1	4.328125
1207.341796875	0.00833333333333333	1	-30	-2.875	2	0.748046875
1210.533203125	0.00833333333333333	1	NaN	4.41666666666667	2	0.63671875
1213.5830078125	0.00833333333333333	1	-30	-3	1	0.8349609375
1216.841796875	0.00833333333333333	1	NaN	4.29166666666667	1	3.5205078125
1222.591796875	0.00833333333333333	1	30	14.625	2	0.8427734375
1225.5908203125	0.00833333333333333	1	-30	-2.875	1	3.1318359375
1230.8408203125	0.00833333333333333	1	NaN	4.41666666666667	2	0.8017578125
1233.8662109375	0.00833333333333333	1	NaN	4.79166666666667	2	0.4404296875
1236.6826171875	0.00833333333333333	1	30	14.5	2	3.0400390625
1242.2412109375	0.00833333333333333	1	NaN	4.66666666666667	1	3.0498046875
1247.7158203125	0.00833333333333333	1	30	14.375	2	2.439453125
1252.4990234375	0.00833333333333333	1	NaN	4.79166666666667	2	2.1123046875
1257.1484375	0.00833333333333333	1	NaN	4.29166666666667	2	1.8232421875
1261.107421875	0.00833333333333333	1	-30	-2.75	2	1.6318359375
1264.857421875	0.00833333333333333	1	30	14.25	2	1.05859375
1268.2236328125	0.00833333333333333	1	-30	-2.875	2	2.9482421875
1273.607421875	0.00833333333333333	1	-30	-3	2	1.2529296875
1276.990234375	0.00833333333333333	1	30	14.125	1	1.341796875
1280.4990234375	0.00833333333333333	1	NaN	4.66666666666667	2	1.208984375
1284.0654296875	0.00833333333333333	1	-30	-2.75	2	0.634765625
1287.048828125	0.00833333333333333	1	NaN	4.54166666666667	2	2.9951171875
1292.5400390625	0.00833333333333333	1	30	14.25	2	0.896484375
1296.0068359375	0.00833333333333333	1	NaN	4.41666666666667	2	0.685546875
1299.0146484375	0.00833333333333333	1	NaN	4.29166666666667	2	0.6220703125
1302.0908203125	0.00833333333333333	1	30	13.625	2	0.6103515625
1305.115234375	0.00833333333333333	1	NaN	4.16666666666667	2	0.666015625
1307.923828125	0.00833333333333333	1	NaN	4.04166666666667	2	0.6171875
1310.96484375	0.00833333333333333	1	-30	-3.125	2	0.5361328125
1313.83984375	0.00833333333333333	1	30	14.125	2	0.6611328125
1317.03125	0.00833333333333333	1	30	14	1	1.4619140625
1340.5146484375	0.00833333333333333	1	-30	-3.25	1	4.171875
1346.9150390625	0.00833333333333333	1	NaN	3.91666666666667	2	0.8828125
1350.0400390625	0.00833333333333333	1	NaN	3.79166666666667	2	0.5986328125
1353.0478515625	0.00833333333333333	1	30	14.125	2	1.5185546875
1356.6640625	0.00833333333333333	1	NaN	4.16666666666667	1	1.1181640625
1360.15625	0.00833333333333333	1	30	13.5	1	0.9306640625
1363.255859375	0.00833333333333333	1	-30	-3.125	1	2.390625
1368.0390625	0.00833333333333333	1	NaN	3.66666666666667	2	0.6162109375
1370.8466796875	0.00833333333333333	1	-30	-3	2	2.5205078125
1375.8056640625	0.00833333333333333	1	NaN	3.54166666666667	1	0.849609375
1379.15625	0.00833333333333333	1	30	14	1	0.859375
1382.2138671875	0.00833333333333333	1	30	13.625	1	0.8974609375
1385.4638671875	0.00833333333333333	1	30	13.75	1	5.423828125
1393.4384765625	0.00833333333333333	1	30	14.125	1	4.08984375
1399.6142578125	0.00833333333333333	1	30	13.875	1	0.6416015625
1402.49609375	0.00833333333333333	1	-30	-3.125	1	0.6484375
1405.322265625	0.00833333333333333	1	-30	-3	1	0.6943359375
1408.3642578125	0.00833333333333333	1	-30	-2.875	1	0.7880859375
1411.330078125	0.00833333333333333	1	-30	-2.75	1	0.6787109375
1414.205078125	0.00833333333333333	1	NaN	3.66666666666667	1	1.267578125
1417.9970703125	0.00833333333333333	1	-30	-2.875	1	0.619140625
1421.0888671875	0.00833333333333333	1	30	14	1	9.9443359375
1433.2802734375	0.00833333333333333	1	30	14.125	2	0.9453125
1436.48828125	0.00833333333333333	1	-30	-2.625	2	1.0654296875
1439.8544921875	0.00833333333333333	1	NaN	4.29166666666667	2	0.890625
1443.021484375	0.00833333333333333	1	30	14.25	2	0.484375
1445.87109375	0.00833333333333333	1	NaN	3.79166666666667	2	0.890625
1449.1123046875	0.00833333333333333	1	NaN	4.16666666666667	2	0.6015625
1452.0966796875	0.00833333333333333	1	-30	-2.75	2	0.5615234375
1454.75390625	0.00833333333333333	1	-30	-2.875	2	1.17578125
1458.2626953125	0.00833333333333333	1	-30	-3	2	0.5712890625
1460.9716796875	0.00833333333333333	1	30	14	2	0.7265625
1463.99609375	0.00833333333333333	1	30	14.125	2	0.58203125
1467.0048828125	0.00833333333333333	1	-30	-2.75	2	0.7578125
1469.8466796875	0.00833333333333333	1	NaN	3.66666666666667	2	0.7392578125
1473.0283203125	0.00833333333333333	1	30	14	2	0.9658203125
1476.2958984375	0.00833333333333333	1	NaN	3.54166666666667	2	0.634765625
1479.404296875	0.00833333333333333	1	30	13.875	2	0.822265625
1482.3125	0.00833333333333333	1	-30	-2.875	2	0.841796875
1485.6376953125	0.00833333333333333	1	30	13.875	2	1.685546875
1489.7373046875	0.00833333333333333	1	-30	-3	2	0.9375
1493.1044921875	0.00833333333333333	1	-30	-3.125	2	0.6025390625
1496.220703125	0.00833333333333333	1	NaN	4.04166666666667	2	0.734375
1499.0458984375	0.00833333333333333	1	-30	-3.125	2	0.9013671875
1502.12890625	0.00833333333333333	1	NaN	3.41666666666667	2	0.962890625
1505.4208984375	0.00833333333333333	1	30	13.75	1	1.3193359375
1508.845703125	0.00833333333333333	1	-30	-3.25	2	0.7255859375
1511.6953125	0.00833333333333333	1	-30	-3.375	1	3.28515625
1517.287109375	0.00833333333333333	1	-30	-3.25	1	0.6767578125
1520.4697265625	0.00833333333333333	1	-30	-3.25	2	0.982421875
1523.5537109375	0.00833333333333333	1	NaN	3.29166666666667	1	1.2822265625
1527.0615234375	0.00833333333333333	1	30	13.875	2	1.126953125
1530.560546875	0.00833333333333333	1	-30	-3.125	1	3.1474609375
1535.9873046875	0.00833333333333333	1	30	13.75	2	0.8173828125
1539.3291015625	0.00833333333333333	1	NaN	3.91666666666667	1	2.5234375
1544.1787109375	0.00833333333333333	1	-30	-3	2	0.6982421875
1546.87890625	0.00833333333333333	1	NaN	4.04166666666667	2	0.814453125
1550.111328125	0.00833333333333333	1	-30	-3.125	2	2.4140625
1555.01171875	0.00833333333333333	1	30	13.75	1	0.8896484375
1558.4619140625	0.00833333333333333	1	NaN	3.91666666666667	2	0.6552734375
1561.6943359375	0.00833333333333333	1	NaN	3.41666666666667	1	3.703125
1567.7109375	0.00833333333333333	1	NaN	3.54166666666667	1	0.7822265625
1570.8779296875	0.00833333333333333	1	30	13.875	1	2.0078125
1575.13671875	0.00833333333333333	1	30	14	2	1.189453125
1578.6689453125	0.00833333333333333	1	30	13.875	2	4.953125
1585.744140625	0.00833333333333333	1	NaN	3.66666666666667	1	0.982421875
1588.89453125	0.00833333333333333	1	NaN	3.79166666666667	1	3.248046875
1594.3193359375	0.00833333333333333	1	-30	-3.25	1	0.7587890625
1597.3115234375	0.00833333333333333	1	30	13.75	1	1.4873046875
1601.302734375	0.00833333333333333	1	-30	-3.125	1	0.759765625
1604.5947265625	0.00833333333333333	1	NaN	3.91666666666667	2	1.099609375
1608.09375	0.00833333333333333	1	-30	-3	2	4.3291015625
1614.7021484375	0.00833333333333333	1	-30	-3.375	1	0.873046875
1617.8603515625	0.00833333333333333	1	-30	-3.125	1	3.3388671875
1623.46875	0.00833333333333333	1	30	13.625	2	0.6103515625
1626.267578125	0.00833333333333333	1	30	13.5	1	4.9326171875
1633.5107421875	0.00833333333333333	1	-30	-3	1	0.712890625
1636.359375	0.00833333333333333	1	-30	-2.875	1	4.1845703125
1666.9599609375	0.00833333333333333	1	-30	-3.25	2	0.8486328125
1669.8515625	0.00833333333333333	1	NaN	3.79166666666667	2	0.9169921875
1673.1103515625	0.00833333333333333	1	-30	-3.375	2	0.71484375
1675.884765625	0.00833333333333333	1	-30	-3.5	2	0.556640625
1678.634765625	0.00833333333333333	1	-30	-3.625	2	1.078125
1681.80859375	0.00833333333333333	1	-30	-2.75	2	0.873046875
1684.8515625	0.00833333333333333	1	-30	-3.75	2	0.693359375
1688.0263671875	0.00833333333333333	1	-30	-2.875	2	0.52734375
1690.78515625	0.00833333333333333	1	-30	-3.875	2	0.560546875
1693.767578125	0.00833333333333333	1	-30	-3	2	0.5859375
1696.4013671875	0.00833333333333333	1	NaN	3.66666666666667	2	0.6640625
1699.201171875	0.00833333333333333	1	NaN	3.54166666666667	1	1.0888671875
1702.41796875	0.00833333333333333	1	-30	-3.125	1	0.759765625
1705.41796875	0.00833333333333333	1	NaN	3.79166666666667	1	0.5595703125
1708.05078125	0.00833333333333333	1	NaN	3.66666666666667	1	0.5751953125
1710.826171875	0.00833333333333333	1	-30	-3	1	0.5439453125
1713.4677734375	0.00833333333333333	1	30	13.625	1	0.5185546875
1716.5009765625	0.00833333333333333	1	NaN	3.91666666666667	1	0.7177734375
1719.609375	0.00833333333333333	1	-30	-4	1	0.705078125
1722.7255859375	0.00833333333333333	1	NaN	3.79166666666667	1	0.6044921875
1725.833984375	0.00833333333333333	1	NaN	3.91666666666667	1	0.6484375
1728.6845703125	0.00833333333333333	1	-30	-2.875	1	0.58984375
1731.392578125	0.00833333333333333	1	-30	-2.75	1	0.6259765625
1734.2509765625	0.00833333333333333	1	30	13.75	1	0.607421875
1736.9423828125	0.00833333333333333	1	NaN	4.04166666666667	1	3.3408203125
1742.3427734375	0.00833333333333333	1	30	13.875	2	2.98828125
1747.4326171875	0.00833333333333333	1	30	13.75	2	0.890625
1750.591796875	0.00833333333333333	1	NaN	4.04166666666667	1	0.619140625
1753.525390625	0.00833333333333333	1	NaN	4.16666666666667	1	4.1181640625
1759.8662109375	0.00833333333333333	1	-30	-2.625	1	0.505859375
1762.4169921875	0.00833333333333333	1	-30	-2.5	1	0.4912109375
1765.0419921875	0.00833333333333333	1	NaN	4.16666666666667	1	0.681640625
1768.1171875	0.00833333333333333	1	30	13.625	1	0.478515625
1770.8173828125	0.00833333333333333	1	NaN	4.29166666666667	1	0.474609375
1773.44921875	0.00833333333333333	1	30	13.75	1	0.4990234375
1776.466796875	0.00833333333333333	1	-30	-2.375	1	0.45703125
1779.0087890625	0.00833333333333333	1	NaN	4.29166666666667	1	0.595703125
1782.0166015625	0.00833333333333333	1	NaN	4.41666666666667	1	0.4677734375
1784.650390625	0.00833333333333333	1	-30	-3.875	1	0.5703125
1787.6328125	0.00833333333333333	1	NaN	4.54166666666667	2	0.6435546875
1790.6328125	0.00833333333333333	1	-30	-3.75	1	0.7314453125
1793.8662109375	0.00833333333333333	1	NaN	4.41666666666667	1	1.0029296875
1797.416015625	0.00833333333333333	1	-30	-2.25	1	0.6044921875
1800.2919921875	0.00833333333333333	1	-30	-2.125	1	0.8486328125
1803.224609375	0.00833333333333333	1	NaN	4.41666666666667	1	1.412109375
1806.7080078125	0.00833333333333333	1	-30	-3.625	1	0.76171875
1809.990234375	0.00833333333333333	1	-30	-2	2	1.51953125
1814.0908203125	0.00833333333333333	1	-30	-3.5	1	3.5146484375
1819.8916015625	0.00833333333333333	1	NaN	4.54166666666667	1	9.5146484375
1831.5830078125	0.00833333333333333	1	-30	-3.375	1	1.271484375
1834.923828125	0.00833333333333333	1	-30	-3.25	2	1.001953125
1838.2080078125	0.00833333333333333	1	NaN	4.54166666666667	1	0.7744140625
1841.490234375	0.00833333333333333	1	-30	-3.375	1	0.8203125
1844.4404296875	0.00833333333333333	1	NaN	4.66666666666667	2	0.9736328125
1847.9658203125	0.00833333333333333	1	-30	-3.25	1	0.9365234375
1851.0908203125	0.00833333333333333	1	30	13.875	1	1.1005859375
1854.791015625	0.00833333333333333	1	30	14	1	3.2001953125
1860.0478515625	0.00833333333333333	1	-30	-3.125	1	0.638671875
1862.82421875	0.00833333333333333	1	-30	-3	1	0.6943359375
1865.732421875	0.00833333333333333	1	30	14.125	2	0.626953125
1868.740234375	0.00833333333333333	1	30	14	1	7.3076171875
1878.2568359375	0.00833333333333333	1	NaN	4.54166666666667	1	5.4072265625
1885.96484375	0.00833333333333333	1	NaN	4.66666666666667	1	6.2275390625
1894.6640625	0.00833333333333333	1	-30	-2.875	1	0.7919921875
1897.806640625	0.00833333333333333	1	-30	-2.75	1	0.6259765625
1900.7646484375	0.00833333333333333	1	NaN	4.79166666666667	1	0.7314453125
1903.939453125	0.00833333333333333	1	-30	-2.625	1	9.59765625
1915.623046875	0.00833333333333333	1	NaN	4.66666666666667	2	0.7294921875
1918.65625	0.00833333333333333	1	-30	-2.5	1	4.6806640625
1925.498046875	0.00833333333333333	1	-30	-2.375	1	0.6630859375
1928.5224609375	0.00833333333333333	1	NaN	4.54166666666667	1	5.4306640625
1936.21484375	0.00833333333333333	1	NaN	4.66666666666667	1	0.6181640625
1939.3642578125	0.00833333333333333	1	NaN	4.79166666666667	1	2.2216796875
1943.623046875	0.00833333333333333	1	-30	-2.25	1	0.6904296875
1946.5634765625	0.00833333333333333	1	NaN	4.91666666666667	1	0.6298828125
1949.3896484375	0.00833333333333333	1	-30	-2.125	1	0.6201171875
1952.2802734375	0.00833333333333333	1	NaN	4.91666666666667	2	0.6572265625
1955.0478515625	0.00833333333333333	1	-30	-2	1	6.41796875
1963.755859375	0.00833333333333333	1	NaN	5.04166666666667	2	0.638671875
1966.6474609375	0.00833333333333333	1	NaN	4.79166666666667	1	4.0673828125
2194.060546875	0.00833333333333333	1	-30	-1.875	2	0.92578125
2197.0595703125	0.00833333333333333	1	-30	-2	2	0.837890625
2200.34375	0.00833333333333333	1	-30	-2.125	1	1.1865234375
2203.8515625	0.00833333333333333	0	-30	-2.99375	1	0.734375
2206.9609375	0.00833333333333333	0	-30	-2.99375	1	0.78515625
2209.7763671875	0.00833333333333333	0	30	13.94375	1	1.1376953125
2213.3193359375	0.00833333333333333	0	-30	-2.99375	1	0.8193359375
2216.484375	0.00833333333333333	0	-30	-2.99375	1	0.7421875
2219.369140625	0.00833333333333333	0	30	13.94375	2	0.689453125
2222.1845703125	0.00833333333333333	0	-30	-2.99375	1	0.6259765625
2225.126953125	0.00833333333333333	0	-30	-2.86875	1	0.69140625
2228.068359375	0.00833333333333333	0	-30	-2.86875	1	0.734375
2230.884765625	0.00833333333333333	0	-30	-2.86875	1	0.654296875
2233.8095703125	0.00833333333333333	0	30	13.94375	1	0.75390625
2236.634765625	0.00833333333333333	0	-30	-2.86875	2	0.65625
2239.3349609375	0.00833333333333333	0	-30	-2.86875	1	1.31640625
2242.7353515625	0.00833333333333333	0	30	13.94375	2	0.98046875
2245.859375	0.00833333333333333	0	30	13.94375	2	0.9677734375
2248.8935546875	0.00833333333333333	0	-30	-2.86875	1	0.9423828125
2252.1015625	0.00833333333333333	0	30	13.94375	1	0.9501953125
2255.2685546875	0.00833333333333333	0	-30	-2.86875	1	0.8232421875
2258.4267578125	0.00833333333333333	0	30	13.94375	2	1.337890625
2261.9013671875	0.00833333333333333	0	-30	-2.86875	1	0.623046875
2264.5927734375	0.00833333333333333	0	-30	-2.86875	1	2.595703125
2269.6591796875	0.00833333333333333	0	-30	-2.74375	1	0.6494140625
2272.400390625	0.00833333333333333	0	-30	-2.74375	1	0.6923828125
2275.16796875	0.00833333333333333	0	30	13.94375	2	0.533203125
2277.9765625	0.00833333333333333	0	30	13.94375	2	0.5234375
2280.7841796875	0.00833333333333333	0	-30	-2.74375	2	0.6923828125
2283.9013671875	0.00833333333333333	0	-30	-2.74375	1	1.19921875
2287.2841796875	0.00833333333333333	0	-30	-2.74375	2	0.9609375
2290.2841796875	0.00833333333333333	0	-30	-2.74375	1	2.0244140625
2294.392578125	0.00833333333333333	0	30	13.94375	1	0.8203125
2297.517578125	0.00833333333333333	0	30	13.94375	1	1.19921875
2300.8671875	0.00833333333333333	0	30	13.94375	1	8.4658203125
2311.80078125	0.00833333333333333	0	30	13.94375	1	0.8212890625
2315.0166015625	0.00833333333333333	0	-30	-2.74375	1	0.4697265625
2317.966796875	0.00833333333333333	0	-30	-2.74375	1	0.52734375
2320.9091796875	0.00833333333333333	0	-30	-2.74375	1	0.5126953125
2323.8671875	0.00833333333333333	0	30	13.94375	1	0.9873046875
2327.1669921875	0.00833333333333333	0	-30	-2.74375	1	0.6474609375
2330.17578125	0.00833333333333333	0	-30	-2.61875	1	2.5185546875
2335.0087890625	0.00833333333333333	0	30	14.06875	1	3.8935546875
2341.2080078125	0.00833333333333333	0	-30	-2.61875	1	0.7666015625
2344.2255859375	0.00833333333333333	0	30	14.06875	2	0.5888671875
2347.375	0.00833333333333333	0	30	14.06875	1	0.5517578125
2350.5498046875	0.00833333333333333	0	-30	-2.61875	2	1.4091796875
2354.5498046875	0.00833333333333333	0	-30	-2.61875	1	0.009765625
2356.9755859375	0.00833333333333333	0	30	14.06875	1	3.8076171875
2363.3583984375	0.00833333333333333	0	30	14.06875	2	0.537109375
2366.0986328125	0.00833333333333333	0	30	14.06875	2	0.6689453125
2368.841796875	0.00833333333333333	0	30	14.06875	2	0.693359375
2371.94140625	0.00833333333333333	0	-30	-2.61875	2	0.6259765625
2374.7001953125	0.00833333333333333	0	30	14.06875	2	0.603515625
2377.5078125	0.00833333333333333	0	-30	-2.61875	2	0.828125
2380.69140625	0.00833333333333333	0	30	14.06875	2	0.63671875
2383.5	0.00833333333333333	0	30	13.94375	2	0.65234375
2386.3076171875	0.00833333333333333	0	-30	-2.61875	2	0.8125
2389.533203125	0.00833333333333333	0	-30	-2.61875	2	0.72265625
2392.5244140625	0.00833333333333333	0	30	13.94375	1	4.7158203125
2399.607421875	0.00833333333333333	0	30	13.94375	2	0.8251953125
2402.7412109375	0.00833333333333333	0	-30	-2.61875	1	3.8193359375
2409.07421875	0.00833333333333333	0	30	13.94375	1	0.806640625
2411.9990234375	0.00833333333333333	0	-30	-2.61875	1	2.3701171875
2416.8232421875	0.00833333333333333	0	30	13.94375	1	0.75390625
2420.0576171875	0.00833333333333333	0	-30	-2.61875	1	2.6318359375
2424.9990234375	0.00833333333333333	0	30	13.94375	1	3.69921875
2431.20703125	0.00833333333333333	0	30	13.94375	2	0.5302734375
2434.0322265625	0.00833333333333333	0	-30	-2.61875	1	6.78515625
2443.07421875	0.00833333333333333	0	-30	-2.61875	1	0.8720703125
2446.4150390625	0.00833333333333333	0	30	13.94375	2	0.970703125
2449.6142578125	0.00833333333333333	0	30	13.94375	1	4.732421875
2456.865234375	0.00833333333333333	0	30	13.94375	2	1.2412109375
2460.548828125	0.00833333333333333	0	-30	-2.49375	1	1.7177734375
2464.748046875	0.00833333333333333	0	30	13.94375	1	0.6142578125
2467.615234375	0.00833333333333333	0	30	13.94375	1	0.5
2470.4482421875	0.00833333333333333	0	30	13.94375	1	0.5068359375
2473.115234375	0.00833333333333333	0	-30	-2.49375	1	1.0400390625
2476.46484375	0.00833333333333333	0	30	13.94375	1	2.3857421875
2481.1982421875	0.00833333333333333	0	30	13.94375	2	0.7333984375
2484.1064453125	0.00833333333333333	0	-30	-2.49375	1	0.80078125
2487.1318359375	0.00833333333333333	0	-30	-2.49375	1	5.3037109375
2494.58984375	0.00833333333333333	0	-30	-2.49375	1	0.6376953125
2509.7978515625	0.00833333333333333	0	30	13.94375	2	0.58984375
2512.4892578125	0.00833333333333333	0	30	13.94375	2	0.779296875
2515.3564453125	0.00833333333333333	0	-30	-2.36875	2	0.728515625
2518.21484375	0.00833333333333333	0	-30	-2.36875	2	0.5576171875
2521.046875	0.00833333333333333	0	-30	-2.36875	1	0.93359375
2524.322265625	0.00833333333333333	0	-30	-2.36875	1	0.73828125
2527.5888671875	0.00833333333333333	0	-30	-2.36875	1	4.3037109375
2534.2548828125	0.00833333333333333	0	-30	-2.36875	1	0.837890625
2537.2880859375	0.00833333333333333	0	-30	-2.36875	1	0.64453125
2539.9970703125	0.00833333333333333	0	-30	-2.24375	1	0.5439453125
2542.654296875	0.00833333333333333	0	-30	-2.24375	1	6.3505859375
2551.171875	0.00833333333333333	0	30	13.94375	1	1.12109375
2554.3125	0.00833333333333333	0	-30	-2.24375	1	0.6455078125
2557.0546875	0.00833333333333333	0	-30	-2.24375	1	0.53515625
2559.7880859375	0.00833333333333333	0	30	13.94375	1	14.3466796875
2576.48046875	0.00833333333333333	0	30	13.94375	1	1.2294921875
2579.8720703125	0.00833333333333333	0	-30	-2.24375	1	0.58203125
2582.796875	0.00833333333333333	0	30	13.94375	1	1.0498046875
2586.4130859375	0.00833333333333333	0	30	13.94375	1	2.4970703125
2591.1630859375	0.00833333333333333	0	-30	-2.11875	1	0.580078125
2593.888671875	0.00833333333333333	0	-30	-2.11875	1	0.5341796875
2596.86328125	0.00833333333333333	0	30	14.06875	1	2.4794921875
2601.837890625	0.00833333333333333	0	-30	-2.11875	1	2.9775390625
2606.8876953125	0.00833333333333333	0	-30	-2.11875	2	0.6796875
2609.76171875	0.00833333333333333	0	-30	-2.11875	1	3.4697265625
2615.38671875	0.00833333333333333	0	-30	-2.11875	1	0.58984375
2618.271484375	0.00833333333333333	0	-30	-2.11875	1	5.671875
2626.470703125	0.00833333333333333	0	-30	-2.11875	1	4.3134765625
2633.2041015625	0.00833333333333333	0	-30	-2.11875	2	0.580078125
2636.1708984375	0.00833333333333333	0	30	14.06875	2	0.509765625
2638.89453125	0.00833333333333333	0	-30	-2.11875	2	1.7060546875
2642.99609375	0.00833333333333333	0	30	14.06875	2	4.7568359375
2650.0947265625	0.00833333333333333	0	30	14.06875	1	1.0263671875
2653.662109375	0.00833333333333333	0	30	14.06875	1	0.578125
2656.7626953125	0.00833333333333333	0	30	14.06875	1	8.830078125
2667.8203125	0.00833333333333333	0	30	14.06875	2	0.7333984375
2670.7119140625	0.00833333333333333	0	-30	-2.11875	1	0.6650390625
2673.50390625	0.00833333333333333	0	30	14.06875	1	2.4892578125
2678.12890625	0.00833333333333333	0	-30	-2.11875	1	7.5849609375
2688.1201171875	0.00833333333333333	0	-30	-2.11875	2	1.169921875
2691.853515625	0.00833333333333333	0	-30	-2.11875	2	1.1328125
2695.8701171875	0.00833333333333333	0	30	14.06875	1	1.1640625
2699.1953125	0.00833333333333333	0	-30	-2.11875	2	0.974609375
2702.7451171875	0.00833333333333333	0	30	14.06875	1	20.76953125
2725.8701171875	0.00833333333333333	0	30	14.06875	1	0.63671875
2728.9775390625	0.00833333333333333	0	30	14.06875	1	0.6572265625
2731.927734375	0.00833333333333333	0	30	14.19375	1	0.5400390625
2734.6611328125	0.00833333333333333	0	30	14.19375	1	0.5498046875
2737.328125	0.00833333333333333	0	-30	-2.11875	1	0.7314453125
2740.5615234375	0.00833333333333333	0	30	14.19375	1	0.9140625
2743.884765625	0.00833333333333333	0	30	14.19375	1	0.55859375
2746.6611328125	0.00833333333333333	0	-30	-2.11875	1	0.5908203125
2749.494140625	0.00833333333333333	0	-30	-2.11875	1	0.60546875
2752.2939453125	0.00833333333333333	0	30	14.19375	2	3.75
2758.4267578125	0.00833333333333333	0	30	14.19375	1	0.6572265625
2761.560546875	0.00833333333333333	0	-30	-2.11875	1	4.1240234375
2768.03515625	0.00833333333333333	0	30	14.19375	2	0.8251953125
2771.302734375	0.00833333333333333	0	30	14.19375	2	1.24609375
2774.5771484375	0.00833333333333333	0	30	14.19375	1	0.9873046875
2777.9775390625	0.00833333333333333	0	30	14.19375	1	2.04296875
2782.2265625	0.00833333333333333	0	30	14.19375	1	0.8505859375
2785.2607421875	0.00833333333333333	0	30	14.19375	1	7.384765625
2794.71875	0.00833333333333333	0	-30	-2.11875	2	0.90234375
2797.693359375	0.00833333333333333	0	-30	-2.11875	2	0.5595703125
2800.435546875	0.00833333333333333	0	30	14.19375	2	0.8095703125
2803.5185546875	0.00833333333333333	0	-30	-2.11875	2	2.2314453125
2808.017578125	0.00833333333333333	0	-30	-2.11875	2	0.9404296875
2811.4853515625	0.00833333333333333	0	-30	-2.11875	1	1.47265625
2815.318359375	0.00833333333333333	0	-30	-2.11875	1	0.86328125
2818.41796875	0.00833333333333333	0	30	14.19375	1	0.755859375
2821.650390625	0.00833333333333333	0	-30	-2.11875	2	3.2998046875
2827.376953125	0.00833333333333333	0	30	14.19375	2	0.7412109375
2830.5185546875	0.00833333333333333	0	-30	-2.11875	1	0.7119140625
2833.326171875	0.00833333333333333	0	30	14.19375	1	1.15234375
2836.5595703125	0.00833333333333333	0	30	14.19375	1	1.3427734375
2840.509765625	0.00833333333333333	0	30	14.19375	1	8.9130859375
2851.6513671875	0.00833333333333333	0	-30	-2.11875	1	0.7646484375
2854.5673828125	0.00833333333333333	0	30	14.19375	1	0.51953125
2857.5009765625	0.00833333333333333	0	-30	-2.11875	1	0.7783203125
2860.583984375	0.00833333333333333	0	30	14.19375	1	0.4873046875
2913.4921875	0.00833333333333333	0	30	14.31875	1	0.556640625
2916.2666015625	0.00833333333333333	0	-30	-2.11875	2	0.9423828125
2919.3916015625	0.00833333333333333	0	-30	-2.11875	2	0.5302734375
2922.265625	0.00833333333333333	0	30	14.31875	2	0.5439453125
2925.158203125	0.00833333333333333	0	-30	-2.11875	2	0.451171875
2927.6748046875	0.00833333333333333	0	30	14.31875	2	0.55078125
2930.31640625	0.00833333333333333	0	-30	-2.11875	2	0.5810546875
2933.375	0.00833333333333333	0	30	14.31875	2	0.8583984375
2936.7080078125	0.00833333333333333	0	30	14.31875	1	0.92578125
2939.775390625	0.00833333333333333	0	-30	-2.11875	1	0.810546875
2942.6494140625	0.00833333333333333	0	30	14.31875	1	0.5771484375
2945.6337890625	0.00833333333333333	0	30	14.31875	1	1.1044921875
2948.94140625	0.00833333333333333	0	-30	-2.11875	1	0.62109375
2951.740234375	0.00833333333333333	0	30	14.31875	1	0.4306640625
2954.666015625	0.00833333333333333	0	-30	-2.11875	1	0.6728515625
2957.548828125	0.00833333333333333	0	30	14.31875	1	0.669921875
2960.2578125	0.00833333333333333	0	-30	-2.11875	1	0.560546875
2962.8828125	0.00833333333333333	0	-30	-2.11875	1	0.400390625
2965.5078125	0.00833333333333333	0	30	14.44375	1	0.55078125
2968.25	0.00833333333333333	0	-30	-1.99375	1	0.640625
2970.9580078125	0.00833333333333333	0	30	14.44375	1	0.4375
2973.4580078125	0.00833333333333333	0	-30	-1.99375	1	0.609375
2976.4990234375	0.00833333333333333	0	30	14.44375	1	0.65625
2979.541015625	0.00833333333333333	0	-30	-1.99375	1	0.56640625
2982.19921875	0.00833333333333333	0	30	14.44375	1	1.15625
2985.7412109375	0.00833333333333333	0	30	14.44375	1	0.3984375
2988.2490234375	0.00833333333333333	0	-30	-1.99375	1	0.5302734375
2991.1826171875	0.00833333333333333	0	30	14.56875	1	0.4775390625
2993.9404296875	0.00833333333333333	0	-30	-1.99375	1	0.5029296875
2996.9326171875	0.00833333333333333	0	-30	-1.86875	1	0.4072265625
2999.70703125	0.00833333333333333	0	-30	-1.86875	1	0.560546875
3002.6572265625	0.00833333333333333	0	30	14.56875	1	0.482421875
3005.666015625	0.00833333333333333	0	-30	-1.86875	1	0.5537109375
3008.2822265625	0.00833333333333333	0	-30	-1.86875	1	0.5703125
3011.32421875	0.00833333333333333	0	30	14.56875	1	0.4404296875
3013.8408203125	0.00833333333333333	0	30	14.56875	1	0.5234375
3016.7734375	0.00833333333333333	0	-30	-1.86875	1	0.7353515625
3019.8984375	0.00833333333333333	0	30	14.56875	1	0.5224609375
3022.4892578125	0.00833333333333333	0	30	14.69375	1	0.435546875
3024.9404296875	0.00833333333333333	0	30	14.69375	1	0.5927734375
3027.681640625	0.00833333333333333	0	30	14.69375	1	0.8271484375
3030.865234375	0.00833333333333333	0	-30	-1.74375	1	0.66015625
3033.6484375	0.00833333333333333	0	-30	-1.74375	1	0.6845703125
3036.3984375	0.00833333333333333	0	-30	-1.74375	1	0.6943359375
3039.53125	0.00833333333333333	0	-30	-1.74375	1	0.5302734375
3042.3818359375	0.00833333333333333	0	-30	-1.74375	1	0.6953125
3045.5322265625	0.00833333333333333	0	30	14.69375	2	1.361328125
3049.173828125	0.00833333333333333	0	30	14.69375	2	0.775390625
3052.3984375	0.00833333333333333	0	30	14.69375	2	0.87109375
3055.5986328125	0.00833333333333333	0	30	14.69375	2	0.5830078125
3058.3310546875	0.00833333333333333	0	30	14.69375	2	0.6904296875
3061.4560546875	0.00833333333333333	0	30	14.56875	2	0.7021484375
3064.4228515625	0.00833333333333333	0	30	14.56875	2	0.4794921875
3067.0146484375	0.00833333333333333	0	-30	-1.61875	2	0.51953125
3069.8310546875	0.00833333333333333	0	30	14.56875	2	0.630859375
3072.6982421875	0.00833333333333333	0	30	14.56875	2	0.732421875
3075.5966796875	0.00833333333333333	0	30	14.56875	2	0.513671875
3078.3232421875	0.00833333333333333	0	-30	-1.61875	2	0.5068359375
3081.431640625	0.00833333333333333	0	-30	-1.61875	2	0.6474609375
3084.306640625	0.00833333333333333	0	-30	-1.61875	2	0.68359375
3087.1298828125	0.00833333333333333	0	-30	-1.61875	2	0.63671875
3090.1064453125	0.00833333333333333	0	30	14.44375	2	0.5322265625
3092.748046875	0.00833333333333333	0	-30	-1.74375	2	0.5947265625
3095.5732421875	0.00833333333333333	0	-30	-1.74375	2	0.7060546875
3098.322265625	0.00833333333333333	0	30	14.44375	2	0.63671875
3101.064453125	0.00833333333333333	0	30	14.44375	2	0.6865234375
3104.2060546875	0.00833333333333333	0	-30	-1.74375	2	1.1455078125
3107.60546875	0.00833333333333333	0	30	14.44375	2	2.169921875
3112.2802734375	0.00833333333333333	0	-30	-1.74375	2	0.7197265625
3115.47265625	0.00833333333333333	0	30	14.44375	2	0.5908203125
3118.546875	0.00833333333333333	0	-30	-1.74375	2	0.716796875
3121.4892578125	0.00833333333333333	0	-30	-1.86875	2	0.0087890625
3123.8388671875	0.00833333333333333	0	30	14.31875	1	1.4091796875
3127.4306640625	0.00833333333333333	0	-30	-1.86875	2	0.4892578125
3129.98046875	0.00833333333333333	0	-30	-1.86875	2	0.587890625
3133.0556640625	0.00833333333333333	0	30	14.31875	2	0.552734375
3135.8720703125	0.00833333333333333	0	-30	-1.86875	2	0.6005859375
3138.85546875	0.00833333333333333	0	30	14.31875	2	0.529296875
3141.4716796875	0.00833333333333333	0	30	14.31875	2	0.625
3144.2216796875	0.00833333333333333	0	30	14.31875	2	0.4033203125
3152.8876953125	0.00833333333333333	0	30	14.31875	2	0.521484375
3155.5888671875	0.00833333333333333	0	30	14.19375	2	0.5400390625
3158.2548828125	0.00833333333333333	0	30	14.19375	2	0.4580078125
3161.2216796875	0.00833333333333333	0	-30	-1.86875	2	0.6513671875
3163.9384765625	0.00833333333333333	0	-30	-1.99375	2	0.3427734375
3166.7802734375	0.00833333333333333	0	30	14.19375	2	0.453125
3169.5302734375	0.00833333333333333	0	-30	-1.99375	2	0.5029296875
3172.5634765625	0.00833333333333333	0	30	14.19375	2	0.4296875
3175.455078125	0.00833333333333333	0	30	14.19375	2	0.3701171875
3178.080078125	0.00833333333333333	0	-30	-1.99375	2	0.2578125
3180.8125	0.00833333333333333	0	30	14.06875	2	0.3896484375
3183.529296875	0.00833333333333333	0	30	14.06875	2	0.2568359375
3186.205078125	0.00833333333333333	0	-30	-1.99375	2	0.6689453125
3189.021484375	0.00833333333333333	0	-30	-1.99375	2	0.5087890625
3191.8798828125	0.00833333333333333	0	30	14.06875	2	0.5625
3194.7373046875	0.00833333333333333	0	30	14.06875	2	0.9287109375
3197.896484375	0.00833333333333333	0	30	14.06875	2	0.505859375
3200.5712890625	0.00833333333333333	0	-30	-2.11875	2	0.6787109375
3203.462890625	0.00833333333333333	0	30	13.94375	2	0.419921875
3205.962890625	0.00833333333333333	0	30	13.94375	2	0.4638671875
3208.5546875	0.00833333333333333	0	30	13.94375	2	0.431640625
3211.1123046875	0.00833333333333333	0	30	13.94375	2	0.4990234375
3214.00390625	0.00833333333333333	0	30	13.94375	2	0.3828125
3216.828125	0.00833333333333333	0	-30	-2.11875	2	0.6865234375
3219.912109375	0.00833333333333333	0	-30	-2.11875	2	0.859375
3223.029296875	0.00833333333333333	0	30	13.81875	2	0.5576171875
3225.919921875	0.00833333333333333	0	-30	-2.11875	2	0.37109375
3228.7626953125	0.00833333333333333	0	30	13.81875	2	0.3603515625
3231.4619140625	0.00833333333333333	0	-30	-2.11875	2	0.486328125
3234.25390625	0.00833333333333333	0	-30	-2.24375	2	0.357421875
3236.75390625	0.00833333333333333	0	30	13.81875	2	0.4423828125
3239.4287109375	0.00833333333333333	0	30	13.81875	2	0.943359375
3242.728515625	0.00833333333333333	0	30	13.81875	2	3.01171875
3247.9208984375	0.00833333333333333	0	30	13.69375	2	0.603515625
3250.7373046875	0.00833333333333333	0	30	13.69375	2	0.5869140625
3253.6201171875	0.00833333333333333	0	-30	-2.24375	2	0.5205078125
3256.4375	0.00833333333333333	0	-30	-2.24375	2	0.5751953125
3259.353515625	0.00833333333333333	0	-30	-2.24375	2	0.5791015625
3262.1953125	0.00833333333333333	0	30	13.69375	2	0.5693359375
3265.26171875	0.00833333333333333	0	30	13.69375	2	0.4228515625
3267.7705078125	0.00833333333333333	0	30	13.69375	2	0.59375
3270.50390625	0.00833333333333333	0	-30	-2.24375	1	0.94921875
3273.87890625	0.00833333333333333	0	30	13.56875	2	0.501953125
3276.6533203125	0.00833333333333333	0	-30	-2.24375	2	0.591796875
3279.6787109375	0.00833333333333333	0	-30	-2.24375	1	0.7177734375
3282.7451171875	0.00833333333333333	0	-30	-2.24375	1	0.66015625
3285.6611328125	0.00833333333333333	0	-30	-2.24375	1	0.4716796875
3288.552734375	0.00833333333333333	0	30	13.56875	2	0.740234375
3291.736328125	0.00833333333333333	0	-30	-2.24375	1	0.8046875
3294.9111328125	0.00833333333333333	0	-30	-2.24375	2	0.55859375
3297.560546875	0.00833333333333333	0	30	13.56875	2	0.5087890625
3300.4609375	0.00833333333333333	0	30	13.56875	1	0.8642578125
3303.6533203125	0.00833333333333333	0	-30	-2.24375	1	0.6884765625
3306.677734375	0.00833333333333333	0	-30	-2.24375	1	0.65625
3309.4697265625	0.00833333333333333	0	-30	-2.24375	1	0.7197265625
3312.64453125	0.00833333333333333	0	30	13.56875	1	0.77734375
3315.6279296875	0.00833333333333333	0	30	13.56875	2	0.5146484375
3318.669921875	0.00833333333333333	0	30	13.56875	1	1.1123046875
3322.1357421875	0.00833333333333333	0	-30	-2.24375	2	0.5263671875
3325.369140625	0.00833333333333333	0	-30	-2.24375	1	0.853515625
3328.4697265625	0.00833333333333333	0	30	13.56875	1	0.79296875
3331.744140625	0.00833333333333333	0	30	13.56875	1	0.990234375
3334.7861328125	0.00833333333333333	0	30	13.56875	1	0.708984375
3337.869140625	0.00833333333333333	0	30	13.56875	2	1.41015625
3341.4853515625	0.00833333333333333	0	30	13.56875	1	0.6572265625
3344.3271484375	0.00833333333333333	0	30	13.56875	1	1.3037109375
3348.0693359375	0.00833333333333333	0	-30	-2.24375	1	0.76953125
3351.376953125	0.00833333333333333	0	30	13.56875	1	0.75
3354.4443359375	0.00833333333333333	0	30	13.56875	1	0.7548828125
3357.2509765625	0.00833333333333333	0	-30	-2.24375	1	0.6201171875
3360.3857421875	0.00833333333333333	0	-30	-2.24375	1	0.1494140625
3362.8935546875	0.00833333333333333	0	30	13.56875	1	0.5625
3366.001953125	0.00833333333333333	0	30	13.69375	1	0.59765625
3369.1015625	0.00833333333333333	0	30	13.69375	1	0.5146484375
3371.8271484375	0.00833333333333333	0	30	13.69375	1	0.5166015625
3374.693359375	0.00833333333333333	0	30	13.69375	1	0.5869140625
3377.443359375	0.00833333333333333	0	30	13.69375	1	3.26953125
3382.8681640625	0.00833333333333333	0	30	13.81875	1	0.6201171875
3385.7431640625	0.00833333333333333	0	-30	-2.24375	1	0.5693359375
3388.650390625	0.00833333333333333	0	-30	-2.11875	1	0.7978515625
3397.701171875	0.00833333333333333	0	-30	-2.11875	1	0.5712890625
3400.259765625	0.00833333333333333	0	30	13.81875	1	1.5732421875
3403.91796875	0.00833333333333333	0	30	13.81875	2	0.595703125
3406.5927734375	0.00833333333333333	0	-30	-2.11875	1	0.6806640625
3409.6015625	0.00833333333333333	0	30	13.81875	2	0.607421875
3412.517578125	0.00833333333333333	0	30	13.81875	2	0.6201171875
3415.333984375	0.00833333333333333	0	30	13.81875	2	1.1630859375
3418.9677734375	0.00833333333333333	0	-30	-2.11875	2	0.8974609375
3422.025390625	0.00833333333333333	0	-30	-2.11875	2	0.6328125
3424.9423828125	0.00833333333333333	0	30	13.81875	2	0.4912109375
3427.6015625	0.00833333333333333	0	-30	-2.11875	2	0.49609375
3430.6416015625	0.00833333333333333	0	-30	-2.11875	2	0.34375
3433.392578125	0.00833333333333333	0	-30	-2.11875	2	0.369140625
3436.2587890625	0.00833333333333333	0	-30	-2.24375	2	0.3994140625
3438.9423828125	0.00833333333333333	0	-30	-2.24375	2	0.6201171875
3441.92578125	0.00833333333333333	0	-30	-2.24375	2	0.380859375
3444.7255859375	0.00833333333333333	0	-30	-2.24375	2	0.30859375
3447.17578125	0.00833333333333333	0	-30	-2.24375	2	0.4990234375
3450.17578125	0.00833333333333333	0	-30	-2.36875	2	0.4111328125
3452.79296875	0.00833333333333333	0	-30	-2.36875	2	0.361328125
3455.267578125	0.00833333333333333	0	-30	-2.36875	2	0.3359375
3457.7421875	0.00833333333333333	0	30	13.69375	2	0.4130859375
3460.3759765625	0.00833333333333333	0	30	13.69375	2	0.4990234375
3462.958984375	0.00833333333333333	0	-30	-2.36875	2	0.2841796875
3465.3251953125	0.00833333333333333	0	30	13.69375	2	0.349609375
3467.958984375	0.00833333333333333	0	-30	-2.36875	2	0.3798828125
3470.80859375	0.00833333333333333	0	-30	-2.49375	2	0.3388671875
3473.458984375	0.00833333333333333	0	-30	-2.49375	2	0.3125
3476.2080078125	0.00833333333333333	0	-30	-2.49375	2	0.267578125
3479.025390625	0.00833333333333333	0	-30	-2.49375	2	0.5224609375
3481.8251953125	0.00833333333333333	0	30	13.69375	2	0.666015625
3484.6083984375	0.00833333333333333	0	30	13.69375	2	0.619140625
3487.5498046875	0.00833333333333333	0	30	13.56875	2	0.4462890625
3490.4423828125	0.00833333333333333	0	30	13.56875	2	0.681640625
3493.3330078125	0.00833333333333333	0	-30	-2.49375	2	0.439453125
3496.216796875	0.00833333333333333	0	30	13.56875	2	0.4833984375
3499.0166015625	0.00833333333333333	0	-30	-2.61875	2	0.443359375
3501.68359375	0.00833333333333333	0	30	13.56875	2	0.576171875
3504.4990234375	0.00833333333333333	0	30	13.56875	2	0.4970703125
3507.05859375	0.00833333333333333	0	-30	-2.61875	1	0.7294921875
3510.099609375	0.00833333333333333	0	30	13.44375	1	0.76171875
3513.283203125	0.00833333333333333	0	30	13.44375	2	0.4892578125
3516.341796875	0.00833333333333333	0	-30	-2.61875	1	0.8388671875
3519.3994140625	0.00833333333333333	0	-30	-2.61875	1	1.125
3522.875	0.00833333333333333	0	30	13.44375	2	1.1943359375
3526.533203125	0.00833333333333333	0	30	13.44375	2	0.7119140625
3529.44921875	0.00833333333333333	0	-30	-2.61875	1	0.6357421875
3532.4248046875	0.00833333333333333	0	-30	-2.61875	1	0.64453125
3535.1650390625	0.00833333333333333	0	30	13.44375	1	0.6162109375
3537.908203125	0.00833333333333333	0	30	13.44375	1	0.79296875
3540.83984375	0.00833333333333333	0	30	13.44375	1	0.7177734375
3543.791015625	0.00833333333333333	0	30	13.44375	1	0.57421875
3546.515625	0.00833333333333333	0	30	13.44375	1	0.681640625
3549.482421875	0.00833333333333333	0	-30	-2.49375	1	1.5068359375
3553.232421875	0.00833333333333333	0	30	13.56875	1	0.7978515625
3556.19921875	0.00833333333333333	0	-30	-2.49375	1	0.638671875
3559.3828125	0.00833333333333333	0	-30	-2.49375	1	0.6474609375
3562.3740234375	0.00833333333333333	0	-30	-2.49375	1	0.576171875
3565.265625	0.00833333333333333	0	-30	-2.49375	1	0.4443359375
3568.232421875	0.00833333333333333	0	30	13.56875	1	0.341796875
3570.916015625	0.00833333333333333	0	30	13.56875	1	0.5302734375
3573.71484375	0.00833333333333333	0	-30	-2.36875	1	0.5234375
3576.298828125	0.00833333333333333	0	30	13.56875	1	0.4677734375
3579.0244140625	0.00833333333333333	0	-30	-2.36875	1	0.6142578125
3581.90625	0.00833333333333333	0	-30	-2.36875	1	0.4052734375
3584.390625	0.00833333333333333	0	30	13.56875	1	0.44921875
3587.0322265625	0.00833333333333333	0	30	13.69375	1	0.462890625
3589.765625	0.00833333333333333	0	30	13.69375	2	0.625
3592.8154296875	0.00833333333333333	0	-30	-2.36875	1	0.7041015625
3596.107421875	0.00833333333333333	0	-30	-2.36875	1	0.7236328125
3599.2978515625	0.00833333333333333	0	-30	-2.24375	1	0.9501953125
3602.4072265625	0.00833333333333333	0	30	13.69375	1	0.6962890625
3605.1982421875	0.00833333333333333	0	-30	-2.24375	2	0.5615234375
3607.9736328125	0.00833333333333333	0	-30	-2.24375	1	0.673828125
3611.0654296875	0.00833333333333333	0	30	13.69375	1	2.5498046875
3615.9736328125	0.00833333333333333	0	-30	-2.24375	1	1.474609375
3619.5986328125	0.00833333333333333	0	-30	-2.24375	1	0.6416015625
3622.681640625	0.00833333333333333	0	-30	-2.24375	2	0.6064453125
3625.490234375	0.00833333333333333	0	-30	-2.24375	1	0.7021484375
3628.65625	0.00833333333333333	0	-30	-2.24375	2	0.4638671875
3637.181640625	0.00833333333333333	0	30	13.69375	2	0.771484375
3640.2646484375	0.00833333333333333	0	-30	-2.24375	1	0.7119140625
3643.4150390625	0.00833333333333333	0	30	13.69375	1	0.76953125
3646.5732421875	0.00833333333333333	0	30	13.69375	1	0.5234375
3649.2646484375	0.00833333333333333	0	-30	-2.24375	1	0.5048828125
3652.123046875	0.00833333333333333	0	30	13.69375	2	0.58203125
3654.97265625	0.00833333333333333	0	30	13.69375	1	0.7724609375
3657.97265625	0.00833333333333333	0	30	13.69375	2	0.701171875
3660.931640625	0.00833333333333333	0	30	13.69375	2	0.7421875
3664.1796875	0.00833333333333333	0	-30	-2.24375	2	0.7333984375
3667.2978515625	0.00833333333333333	0	30	13.69375	2	0.50390625
3669.9296875	0.00833333333333333	0	30	13.69375	2	0.3681640625
3672.830078125	0.00833333333333333	0	-30	-2.24375	2	0.5078125
3675.5380859375	0.00833333333333333	0	30	13.69375	2	0.3681640625
3678.072265625	0.00833333333333333	0	-30	-2.24375	2	0.521484375
3680.998046875	0.00833333333333333	0	-30	-2.24375	2	0.435546875
3683.580078125	0.00833333333333333	0	30	13.56875	2	0.59765625
3686.3310546875	0.00833333333333333	0	-30	-2.24375	2	0.52734375
3689.013671875	0.00833333333333333	0	30	13.56875	2	0.2607421875
3691.60546875	0.00833333333333333	0	-30	-2.36875	2	5.4375
3699.2470703125	0.00833333333333333	0	30	13.56875	2	0.67578125
3702.421875	0.00833333333333333	0	30	13.56875	2	0.65234375
3705.638671875	0.00833333333333333	0	-30	-2.36875	2	0.580078125
3708.3466796875	0.00833333333333333	0	-30	-2.36875	1	3.0322265625
3713.4638671875	0.00833333333333333	0	30	13.56875	2	0.787109375
3716.546875	0.00833333333333333	0	-30	-2.36875	1	0.7041015625
3719.455078125	0.00833333333333333	0	30	13.44375	2	0.572265625
3722.23828125	0.00833333333333333	0	30	13.44375	1	0.6455078125
3725.046875	0.00833333333333333	0	-30	-2.36875	1	0.6123046875
3728.0546875	0.00833333333333333	0	30	13.44375	2	0.63671875
3731.080078125	0.00833333333333333	0	-30	-2.36875	1	0.611328125
3733.771484375	0.00833333333333333	0	30	13.44375	1	1.13671875
3737.1884765625	0.00833333333333333	0	-30	-2.36875	2	0.52734375
3740.5888671875	0.00833333333333333	0	-30	-2.36875	1	0.54296875
3743.2470703125	0.00833333333333333	0	-30	-2.36875	1	0.533203125
3745.9794921875	0.00833333333333333	0	30	13.44375	1	0.6806640625
3749.1630859375	0.00833333333333333	0	30	13.44375	1	0.5927734375
3752.0712890625	0.00833333333333333	0	-30	-2.36875	1	0.6689453125
3754.8544921875	0.00833333333333333	0	-30	-2.36875	1	0.6376953125
3757.7880859375	0.00833333333333333	0	-30	-2.36875	1	0.4248046875
3760.771484375	0.00833333333333333	0	30	13.44375	1	0.3046875
3763.580078125	0.00833333333333333	0	-30	-2.24375	1	0.4404296875
3766.396484375	0.00833333333333333	0	30	13.44375	1	0.48046875
3769.12109375	0.00833333333333333	0	30	13.56875	1	0.443359375
3771.87109375	0.00833333333333333	0	30	13.56875	1	0.5419921875
3774.86328125	0.00833333333333333	0	-30	-2.24375	1	0.4296875
3777.5380859375	0.00833333333333333	0	-30	-2.24375	1	0.4111328125
3780.2958984375	0.00833333333333333	0	-30	-2.24375	1	0.517578125
3783.1455078125	0.00833333333333333	0	30	13.56875	1	0.5556640625
3786.1796875	0.00833333333333333	0	-30	-2.24375	1	0.529296875
3789.12890625	0.00833333333333333	0	-30	-2.11875	1	0.4130859375
3791.662109375	0.00833333333333333	0	30	13.56875	1	0.3671875
3794.0703125	0.00833333333333333	0	30	13.56875	1	0.3671875
3796.49609375	0.00833333333333333	0	-30	-2.11875	1	0.3896484375
3799.0205078125	0.00833333333333333	0	-30	-2.11875	1	0.4013671875
3801.4873046875	0.00833333333333333	0	-30	-2.11875	1	0.4150390625
3804.154296875	0.00833333333333333	0	30	13.69375	1	0.3798828125
3806.7373046875	0.00833333333333333	0	-30	-2.11875	1	0.1728515625
3809.37890625	0.00833333333333333	0	-30	-1.99375	1	0.435546875
3812.154296875	0.00833333333333333	0	-30	-1.99375	1	0.8759765625
3815.095703125	0.00833333333333333	0	30	13.69375	1	0.55078125
3817.7041015625	0.00833333333333333	0	30	13.69375	1	2.0546875
3822.0205078125	0.00833333333333333	0	-30	-1.99375	1	0.505859375
3825.720703125	0.00833333333333333	0	30	13.69375	2	0.4375
3828.6123046875	0.00833333333333333	0	30	13.69375	2	0.5068359375
3832.4453125	0.00833333333333333	0	-30	-1.99375	1	0.8173828125
3835.578125	0.00833333333333333	0	30	13.69375	1	0.5244140625
3838.419921875	0.00833333333333333	0	30	13.69375	1	0.484375
3841.0693359375	0.00833333333333333	0	-30	-1.99375	1	0.2734375
3843.4619140625	0.00833333333333333	0	-30	-1.86875	1	0.3935546875
3846.25390625	0.00833333333333333	0	30	13.69375	1	0.46484375
3849.228515625	0.00833333333333333	0	-30	-1.86875	1	0.37109375
3851.8447265625	0.00833333333333333	0	-30	-1.86875	1	0.38671875
3854.63671875	0.00833333333333333	0	-30	-1.86875	1	0.37109375
3857.453125	0.00833333333333333	0	-30	-1.86875	1	0.3388671875
3860.044921875	0.00833333333333333	0	30	13.69375	1	0.6748046875
3862.7783203125	0.00833333333333333	0	30	13.69375	1	0.5498046875
3865.6201171875	0.00833333333333333	0	30	13.81875	1	0.4921875
3868.2119140625	0.00833333333333333	0	-30	-1.74375	1	0.396484375
3870.9365234375	0.00833333333333333	0	30	13.81875	1	0.4560546875
3879.1865234375	0.00833333333333333	0	-30	-1.74375	1	0.92578125
3882.419921875	0.00833333333333333	0	30	13.81875	1	1.548828125
3886.1279296875	0.00833333333333333	0	30	13.81875	2	0.5283203125
3888.7275390625	0.00833333333333333	0	-30	-1.74375	1	0.9609375
3892.15234375	0.00833333333333333	0	-30	-1.74375	1	0.6005859375
3895.1279296875	0.00833333333333333	0	30	13.81875	1	0.6005859375
3897.8359375	0.00833333333333333	0	-30	-1.74375	1	0.5009765625
3900.76953125	0.00833333333333333	0	30	13.81875	1	0.5439453125
3903.6435546875	0.00833333333333333	0	30	13.81875	1	0.5576171875
3906.39453125	0.00833333333333333	0	-30	-1.61875	1	0.56640625
3909.310546875	0.00833333333333333	0	-30	-1.61875	1	0.5224609375
3912.96875	0.00833333333333333	0	-30	-1.61875	1	0.5849609375
3915.7109375	0.00833333333333333	0	30	13.81875	2	0.6826171875
3918.6103515625	0.00833333333333333	0	30	13.81875	1	0.6796875
3921.39453125	0.00833333333333333	0	-30	-1.61875	2	1.103515625
3924.8193359375	0.00833333333333333	0	30	13.81875	1	0.9189453125
3928.21875	0.00833333333333333	0	-30	-1.61875	2	0.759765625
3931.28515625	0.00833333333333333	0	30	13.81875	1	0.796875
3934.626953125	0.00833333333333333	0	-30	-1.61875	1	0.9267578125
3938.0107421875	0.00833333333333333	0	-30	-1.61875	1	0.5751953125
3940.78515625	0.00833333333333333	0	30	13.81875	2	0.712890625
3943.984375	0.00833333333333333	0	30	13.81875	1	0.6181640625
3946.96875	0.00833333333333333	0	-30	-1.61875	1	0.6337890625
3950.068359375	0.00833333333333333	0	-30	-1.61875	1	0.58203125
3952.7939453125	0.00833333333333333	0	30	13.81875	1	0.5771484375
3955.5439453125	0.00833333333333333	0	-30	-1.61875	1	0.1630859375
3957.9423828125	0.00833333333333333	0	-30	-1.49375	1	0.7890625
3961.060546875	0.00833333333333333	0	30	13.81875	1	0.6142578125
3964.134765625	0.00833333333333333	0	30	13.81875	1	0.46875
3967.0849609375	0.00833333333333333	0	30	13.81875	1	0.4140625
3969.7763671875	0.00833333333333333	0	-30	-1.49375	1	0.619140625
3972.576171875	0.00833333333333333	0	-30	-1.49375	1	0.4189453125
3975.193359375	0.00833333333333333	0	30	13.94375	1	0.40234375
3977.8427734375	0.00833333333333333	0	-30	-1.49375	1	0.48046875
3980.8017578125	0.00833333333333333	0	30	13.94375	1	0.513671875
3983.5595703125	0.00833333333333333	0	30	13.94375	1	0.64453125
3986.4931640625	0.00833333333333333	0	30	13.94375	1	0.5830078125
3989.1845703125	0.00833333333333333	0	30	13.94375	1	0.6357421875
3992.1845703125	0.00833333333333333	0	30	14.06875	1	0.53125
3994.9921875	0.00833333333333333	0	30	14.06875	1	0.8037109375
3997.9765625	0.00833333333333333	0	-30	-1.49375	1	0.36328125
4001.5673828125	0.00833333333333333	0	30	14.06875	2	0.5654296875
4004.66796875	0.00833333333333333	0	-30	-1.36875	2	0.6240234375
4007.7763671875	0.00833333333333333	0	30	14.06875	2	0.5966796875
4010.576171875	0.00833333333333333	0	30	14.06875	2	0.6123046875
4013.259765625	0.00833333333333333	0	30	14.06875	2	0.4326171875
4015.8837890625	0.00833333333333333	0	30	14.06875	2	0.46484375
4018.4501953125	0.00833333333333333	0	-30	-1.36875	2	0.794921875
4021.5927734375	0.00833333333333333	0	30	13.94375	2	0.3876953125
4024.1259765625	0.00833333333333333	0	30	13.94375	2	0.447265625
4027.083984375	0.00833333333333333	0	30	13.94375	2	0.521484375
4029.833984375	0.00833333333333333	0	-30	-1.36875	2	0.5947265625
4032.5927734375	0.00833333333333333	0	30	13.94375	2	0.4765625
4035.2177734375	0.00833333333333333	0	-30	-1.36875	1	0.8515625
4038.2177734375	0.00833333333333333	0	30	13.94375	1	0.6357421875
4041.2509765625	0.00833333333333333	0	30	13.94375	1	2.0908203125
4045.583984375	0.00833333333333333	0	30	13.94375	1	2.5341796875
4050.42578125	0.00833333333333333	0	30	13.94375	1	0.8037109375
4053.3251953125	0.00833333333333333	0	-30	-1.36875	1	0.873046875
4056.775390625	0.00833333333333333	0	-30	-1.36875	2	0.703125
4059.908203125	0.00833333333333333	0	30	13.94375	2	0.666015625
4062.9501953125	0.00833333333333333	0	30	13.94375	2	0.5126953125
4065.7919921875	0.00833333333333333	0	30	13.94375	2	0.75
4068.6923828125	0.00833333333333333	0	-30	-1.36875	1	2.72265625
4073.7666015625	0.00833333333333333	0	30	13.94375	2	0.4560546875
4076.4990234375	0.00833333333333333	0	30	13.94375	2	0.7236328125
4079.5419921875	0.00833333333333333	0	-30	-1.36875	2	0.4892578125
4082.43359375	0.00833333333333333	0	-30	-1.36875	2	0.6689453125
4085.5576171875	0.00833333333333333	0	30	13.81875	2	0.337890625
4088.1328125	0.00833333333333333	0	-30	-1.36875	2	0.4501953125
4091.1162109375	0.00833333333333333	0	-30	-1.36875	2	0.859375
4094.05859375	0.00833333333333333	0	30	13.81875	2	0.8447265625
4097.416015625	0.00833333333333333	0	-30	-1.36875	2	0.4638671875
4100.0498046875	0.00833333333333333	0	30	13.81875	2	0.58203125
4102.783203125	0.00833333333333333	0	30	13.81875	2	0.6728515625
4105.849609375	0.00833333333333333	0	-30	-1.49375	2	0.3818359375
4108.556640625	0.00833333333333333	0	-30	-1.49375	2	0.5556640625
4111.56640625	0.00833333333333333	0	30	13.81875	2	0.5302734375
4114.20703125	0.00833333333333333	0	30	13.69375	2	0.552734375
4116.9658203125	0.00833333333333333	0	-30	-1.49375	2	0.4423828125
4127.31640625	0.00833333333333333	0	-30	-1.49375	2	0.572265625
4130.0732421875	0.00833333333333333	0	-30	-1.49375	2	0.271484375
4132.599609375	0.00833333333333333	0	-30	-1.61875	1	0.8974609375
4135.7490234375	0.00833333333333333	0	30	13.69375	1	1.259765625
4139.306640625	0.00833333333333333	0	-30	-1.61875	1	0.7255859375
4142.423828125	0.00833333333333333	0	-30	-1.61875	1	0.8408203125
4145.6240234375	0.00833333333333333	0	30	13.69375	1	0.5693359375
4148.599609375	0.00833333333333333	0	30	13.69375	1	0.705078125
4151.57421875	0.00833333333333333	0	-30	-1.61875	1	0.5146484375
4154.3662109375	0.00833333333333333	0	-30	-1.61875	1	1.923828125
4158.5576171875	0.00833333333333333	0	-30	-1.49375	1	0.8759765625
4161.666015625	0.00833333333333333	0	-30	-1.49375	1	0.54296875
4164.2734375	0.00833333333333333	0	-30	-1.49375	1	0.583984375
4167.140625	0.00833333333333333	0	-30	-1.49375	1	0.541015625
4169.96484375	0.00833333333333333	0	-30	-1.49375	1	0.6044921875
4173.015625	0.00833333333333333	0	-30	-1.36875	1	0.5703125
4175.71484375	0.00833333333333333	0	-30	-1.36875	1	0.6875
4178.7314453125	0.00833333333333333	0	30	13.69375	2	1.22265625
4182.0908203125	0.00833333333333333	0	-30	-1.36875	2	0.5673828125
4184.740234375	0.00833333333333333	0	-30	-1.36875	2	0.662109375
4187.681640625	0.00833333333333333	0	30	13.69375	2	2.056640625
4192.181640625	0.00833333333333333	0	30	13.69375	2	1.212890625
4195.90625	0.00833333333333333	0	-30	-1.36875	2	1.4482421875
4199.7314453125	0.00833333333333333	0	30	13.69375	2	0.783203125
4202.931640625	0.00833333333333333	0	-30	-1.36875	2	0.6552734375
4205.70703125	0.00833333333333333	0	30	13.69375	2	0.568359375
4208.4814453125	0.00833333333333333	0	-30	-1.36875	2	0.4658203125
4211.0810546875	0.00833333333333333	0	30	13.56875	2	0.6025390625
4214.08984375	0.00833333333333333	0	30	13.56875	1	0.697265625
4216.8896484375	0.00833333333333333	0	30	13.56875	2	0.8818359375
4219.83984375	0.00833333333333333	0	-30	-1.49375	2	0.53125
4222.5732421875	0.00833333333333333	0	-30	-1.49375	2	0.478515625
4225.556640625	0.00833333333333333	0	30	13.56875	2	0.8154296875
4228.5224609375	0.00833333333333333	0	-30	-1.49375	2	0.43359375
4231.34765625	0.00833333333333333	0	30	13.56875	2	0.8486328125
4234.7314453125	0.00833333333333333	0	-30	-1.49375	2	0.3681640625
4237.40625	0.00833333333333333	0	-30	-1.49375	2	0.26953125
4240.064453125	0.00833333333333333	0	-30	-1.61875	2	0.4111328125
4242.755859375	0.00833333333333333	0	30	13.56875	2	0.50390625
4245.5478515625	0.00833333333333333	0	30	13.56875	2	0.2724609375
4247.880859375	0.00833333333333333	0	-30	-1.61875	2	0.4521484375
4250.572265625	0.00833333333333333	0	-30	-1.61875	2	0.4638671875
4253.4306640625	0.00833333333333333	0	30	13.44375	2	0.5498046875
4256.0888671875	0.00833333333333333	0	30	13.44375	2	0.3720703125
4258.6552734375	0.00833333333333333	0	-30	-1.61875	2	0.3251953125
4261.24609375	0.00833333333333333	0	30	13.44375	2	0.4462890625
4264.2470703125	0.00833333333333333	0	-30	-1.61875	2	0.57421875
4267.130859375	0.00833333333333333	0	-30	-1.74375	2	0.3779296875
4270.013671875	0.00833333333333333	0	-30	-1.74375	2	0.4072265625
4272.98046875	0.00833333333333333	0	30	13.44375	2	0.4091796875
4275.5966796875	0.00833333333333333	0	-30	-1.74375	2	0.400390625
4278.4970703125	0.00833333333333333	0	-30	-1.74375	2	0.4208984375
4281.3134765625	0.00833333333333333	0	-30	-1.74375	2	0.5234375
4284.3134765625	0.00833333333333333	0	-30	-1.86875	2	0.5
4286.98828125	0.00833333333333333	0	30	13.44375	2	0.4736328125
4289.5634765625	0.00833333333333333	0	30	13.31875	2	0.41796875
4292.23828125	0.00833333333333333	0	-30	-1.86875	2	0.3994140625
4294.888671875	0.00833333333333333	0	30	13.31875	2	0.4375
4297.4208984375	0.00833333333333333	0	30	13.31875	2	0.4248046875
4300.087890625	0.00833333333333333	0	30	13.31875	2	0.40625
4302.8046875	0.00833333333333333	0	-30	-1.86875	2	0.45703125
4305.73046875	0.00833333333333333	0	-30	-1.86875	2	0.404296875
4308.4296875	0.00833333333333333	0	-30	-1.86875	2	0.3681640625
4311.1953125	0.00833333333333333	0	30	13.31875	2	0.443359375
4313.705078125	0.00833333333333333	0	-30	-1.99375	2	1.95703125
4318.0869140625	0.00833333333333333	0	30	13.19375	2	3.1279296875
4323.6953125	0.00833333333333333	0	30	13.19375	1	0.8232421875
4326.896484375	0.00833333333333333	0	30	13.19375	1	0.6064453125
4329.6796875	0.00833333333333333	0	-30	-1.99375	1	0.8955078125
4332.8212890625	0.00833333333333333	0	-30	-1.99375	2	0.9775390625
4336.337890625	0.00833333333333333	0	30	13.19375	2	0.0615234375
4338.529296875	0.00833333333333333	0	30	13.19375	2	0.494140625
4341.3046875	0.00833333333333333	0	30	13.19375	2	0.56640625
4344.396484375	0.00833333333333333	0	30	13.19375	1	1.0185546875
4347.529296875	0.00833333333333333	0	30	13.19375	1	0.6064453125
4350.396484375	0.00833333333333333	0	30	13.19375	1	0.5390625
4353.4375	0.00833333333333333	0	-30	-1.99375	1	0.634765625
4356.62890625	0.00833333333333333	0	-30	-1.99375	1	0.474609375
4359.2119140625	0.00833333333333333	0	30	13.19375	1	0.8037109375
4362.2958984375	0.00833333333333333	0	30	13.19375	1	0.49609375
4370.4697265625	0.00833333333333333	0	30	13.31875	1	0.73828125
4373.5869140625	0.00833333333333333	0	-30	-1.99375	1	1.93359375
4377.8193359375	0.00833333333333333	0	-30	-1.99375	2	0.8134765625
4380.8701171875	0.00833333333333333	0	-30	-1.99375	2	0.38671875
4383.353515625	0.00833333333333333	0	-30	-1.99375	1	0.7109375
4386.595703125	0.00833333333333333	0	-30	-1.99375	1	0.61328125
4389.4541015625	0.00833333333333333	0	30	13.31875	2	0.69921875
4392.6025390625	0.00833333333333333	0	30	13.31875	2	0.630859375
4395.51171875	0.00833333333333333	0	-30	-1.99375	2	1.3212890625
4399.37890625	0.00833333333333333	0	-30	-1.99375	1	0.734375
4402.26171875	0.00833333333333333	0	-30	-1.99375	1	0.587890625
4405.0947265625	0.00833333333333333	0	30	13.31875	1	0.4267578125
4408.0615234375	0.00833333333333333	0	30	13.31875	1	0.443359375
4410.6611328125	0.00833333333333333	0	30	13.31875	1	2.796875
4415.7529296875	0.00833333333333333	0	30	13.31875	2	0.560546875
4418.6357421875	0.00833333333333333	0	30	13.31875	1	0.59765625
4421.744140625	0.00833333333333333	0	-30	-1.99375	1	0.5458984375
4424.7861328125	0.00833333333333333	0	-30	-1.99375	1	0.50390625
4427.59375	0.00833333333333333	0	-30	-1.99375	1	0.720703125
4430.4189453125	0.00833333333333333	0	30	13.31875	1	0.5751953125
4433.185546875	0.00833333333333333	0	30	13.31875	1	2.7529296875
4438.0107421875	0.00833333333333333	0	-30	-1.86875	2	2.744140625
4443.1533203125	0.00833333333333333	0	30	13.31875	2	0.5849609375
4446.177734375	0.00833333333333333	0	-30	-1.86875	1	0.6171875
4449.0771484375	0.00833333333333333	0	30	13.31875	1	0.7099609375
4452.0517578125	0.00833333333333333	0	-30	-1.86875	1	0.9833984375
4455.3349609375	0.00833333333333333	0	-30	-1.86875	1	0.6357421875
4458.193359375	0.00833333333333333	0	30	13.31875	2	1.1220703125
4461.65234375	0.00833333333333333	0	30	13.31875	2	0.53515625
4464.568359375	0.00833333333333333	0	30	13.31875	1	0.5869140625
4467.6435546875	0.00833333333333333	0	-30	-1.86875	1	0.599609375
4470.7275390625	0.00833333333333333	0	-30	-1.86875	1	0.587890625
4473.6025390625	0.00833333333333333	0	-30	-1.74375	1	0.5048828125
4476.6357421875	0.00833333333333333	0	30	13.31875	1	0.6318359375
4479.5439453125	0.00833333333333333	0	-30	-1.74375	1	0.427734375
4482.28515625	0.00833333333333333	0	30	13.31875	1	0.9189453125
4485.4267578125	0.00833333333333333	0	-30	-1.74375	1	0.44921875
4488.3359375	0.00833333333333333	0	-30	-1.74375	1	0.3642578125
4490.943359375	0.00833333333333333	0	-30	-1.74375	1	0.556640625
4493.90234375	0.00833333333333333	0	30	13.31875	1	0.6298828125
4496.634765625	0.00833333333333333	0	30	13.31875	1	1.75390625
4500.576171875	0.00833333333333333	0	30	13.44375	1	0.6201171875
4503.2841796875	0.00833333333333333	0	30	13.44375	1	0.568359375
4506.15234375	0.00833333333333333	0	-30	-1.61875	1	0.587890625
4508.7841796875	0.00833333333333333	0	-30	-1.61875	1	0.4208984375
4511.759765625	0.00833333333333333	0	30	13.44375	1	0.62890625
4514.767578125	0.00833333333333333	0	30	13.44375	1	0.533203125
4517.376953125	0.00833333333333333	0	30	13.44375	1	0.4921875
4520.2021484375	0.00833333333333333	0	30	13.56875	1	0.546875
4523.1591796875	0.00833333333333333	0	-30	-1.61875	2	1.09375
4526.66796875	0.00833333333333333	0	-30	-1.61875	1	0.5771484375
4529.701171875	0.00833333333333333	0	-30	-1.61875	2	0.83203125
4532.6923828125	0.00833333333333333	0	30	13.56875	1	1.056640625
4535.8671875	0.00833333333333333	0	-30	-1.61875	1	0.8662109375
4539.0595703125	0.00833333333333333	0	30	13.56875	1	0.6181640625
4542.0087890625	0.00833333333333333	0	-30	-1.61875	1	1.5654296875
4545.693359375	0.00833333333333333	0	30	13.56875	1	1.712890625
4549.859375	0.00833333333333333	0	-30	-1.61875	2	1.1865234375
4553.2509765625	0.00833333333333333	0	30	13.56875	1	2.1474609375
4557.4931640625	0.00833333333333333	0	-30	-1.61875	1	0.8330078125
4560.5341796875	0.00833333333333333	0	30	13.69375	1	0.568359375
4563.5751953125	0.00833333333333333	0	30	13.69375	1	0.8798828125
4566.9921875	0.00833333333333333	0	30	13.69375	1	0.6787109375
4569.875	0.00833333333333333	0	-30	-1.61875	1	1.1396484375
4573.55859375	0.00833333333333333	0	-30	-1.61875	2	0.671875
4576.400390625	0.00833333333333333	0	30	13.69375	1	0.958984375
4579.7919921875	0.00833333333333333	0	30	13.69375	1	7.271484375
4589.349609375	0.00833333333333333	0	-30	-1.61875	2	0.689453125
4592.125	0.00833333333333333	0	-30	-1.61875	1	0.7783203125
4595.30859375	0.00833333333333333	0	-30	-1.61875	2	2.2431640625
4599.6416015625	0.00833333333333333	0	-30	-1.61875	2	0.662109375
4602.6005859375	0.00833333333333333	0	-30	-1.61875	2	0.55078125
4605.44140625	0.00833333333333333	0	30	13.81875	2	0.486328125
4608.017578125	0.00833333333333333	0	30	13.81875	2	0.822265625
4610.9501953125	0.00833333333333333	0	30	13.81875	2	0.5458984375
4613.6826171875	0.00833333333333333	0	-30	-1.61875	1	1.0380859375
4616.82421875	0.00833333333333333	0	-30	-1.61875	2	0.583984375
4619.6416015625	0.00833333333333333	0	30	13.81875	2	0.455078125
4622.4580078125	0.00833333333333333	0	-30	-1.61875	2	0.5107421875
4625.1162109375	0.00833333333333333	0	-30	-1.61875	2	0.4921875
4634.0322265625	0.00833333333333333	0	30	13.81875	2	1.6083984375
4637.849609375	0.00833333333333333	0	30	13.69375	2	0.5830078125
4640.666015625	0.00833333333333333	0	-30	-1.61875	2	0.455078125
4643.640625	0.00833333333333333	0	-30	-1.61875	2	0.3759765625
4646.408203125	0.00833333333333333	0	-30	-1.74375	2	0.5048828125
4649.3828125	0.00833333333333333	0	30	13.69375	2	0.38671875
4652.0908203125	0.00833333333333333	0	30	13.69375	2	0.3828125
4654.94140625	0.00833333333333333	0	30	13.69375	2	0.2919921875
4657.607421875	0.00833333333333333	0	-30	-1.74375	2	0.4501953125
4660.5908203125	0.00833333333333333	0	30	13.69375	2	0.36328125
4663.32421875	0.00833333333333333	0	30	13.56875	2	0.3017578125
4665.9990234375	0.00833333333333333	0	30	13.56875	2	0.314453125
4668.5908203125	0.00833333333333333	0	-30	-1.74375	2	0.36328125
4671.173828125	0.00833333333333333	0	-30	-1.74375	2	0.259765625
4673.857421875	0.00833333333333333	0	-30	-1.74375	2	0.2724609375
4676.4326171875	0.00833333333333333	0	30	13.56875	2	0.265625
4678.9326171875	0.00833333333333333	0	-30	-1.86875	2	0.357421875
4681.5908203125	0.00833333333333333	0	30	13.56875	2	0.267578125
4684.3408203125	0.00833333333333333	0	30	13.56875	2	0.25390625
4686.6650390625	0.00833333333333333	0	-30	-1.86875	2	0.3369140625
4689.20703125	0.00833333333333333	0	-30	-1.86875	2	0.34765625
4691.6650390625	0.00833333333333333	0	-30	-1.86875	2	0.2177734375
4694.107421875	0.00833333333333333	0	30	13.44375	2	0.294921875
4696.45703125	0.00833333333333333	0	-30	-1.86875	2	0.2822265625
4698.806640625	0.00833333333333333	0	30	13.44375	2	0.2119140625
4701.1318359375	0.00833333333333333	0	-30	-1.99375	2	0.3515625
4703.7314453125	0.00833333333333333	0	30	13.44375	2	0.2314453125
4706.2900390625	0.00833333333333333	0	30	13.44375	2	0.5615234375
4708.890625	0.00833333333333333	0	30	13.44375	2	0.6484375
4711.78125	0.00833333333333333	0	-30	-1.99375	2	0.9345703125
4714.95703125	0.00833333333333333	0	30	13.31875	2	0.4462890625
4717.564453125	0.00833333333333333	0	30	13.31875	2	0.4873046875
4720.3818359375	0.00833333333333333	0	-30	-1.99375	2	0.3662109375
4723.1064453125	0.00833333333333333	0	-30	-1.99375	2	0.42578125
4725.6982421875	0.00833333333333333	0	-30	-1.99375	2	0.5615234375
4728.5068359375	0.00833333333333333	0	30	13.31875	2	0.2724609375
4730.84765625	0.00833333333333333	0	30	13.31875	2	0.3720703125
4733.3818359375	0.00833333333333333	0	30	13.31875	2	0.830078125
4736.6484375	0.00833333333333333	0	30	13.19375	2	0.4111328125
4739.630859375	0.00833333333333333	0	-30	-2.11875	2	0.685546875
4742.365234375	0.00833333333333333	0	30	13.19375	2	0.3994140625
4745.197265625	0.00833333333333333	0	-30	-2.11875	2	0.6787109375
4748.33984375	0.00833333333333333	0	30	13.19375	2	0.8486328125
4751.314453125	0.00833333333333333	0	30	13.19375	2	0.42578125
4753.85546875	0.00833333333333333	0	30	13.19375	2	2.861328125
4758.8056640625	0.00833333333333333	0	30	13.06875	2	0.5830078125
4761.8720703125	0.00833333333333333	0	30	13.06875	2	0.5888671875
4764.4638671875	0.00833333333333333	0	30	13.06875	2	0.4052734375
4767.1142578125	0.00833333333333333	0	30	13.06875	2	0.4990234375
4770.0224609375	0.00833333333333333	0	30	13.06875	2	0.5751953125
4772.90625	0.00833333333333333	0	30	12.94375	2	0.8505859375
4776.10546875	0.00833333333333333	0	-30	-2.11875	2	0.5634765625
4779.6064453125	0.00833333333333333	0	30	12.94375	2	0.5673828125
4783.22265625	0.00833333333333333	0	30	12.94375	1	0.5830078125
4786.255859375	0.00833333333333333	0	30	12.94375	1	0.4462890625
4788.880859375	0.00833333333333333	0	-30	-2.11875	1	0.4208984375
4791.630859375	0.00833333333333333	0	-30	-2.11875	1	0.3994140625
4794.2138671875	0.00833333333333333	0	30	12.94375	1	0.3515625
4796.98046875	0.00833333333333333	0	-30	-2.11875	1	0.3212890625
4799.5966796875	0.00833333333333333	0	-30	-2.11875	1	0.4091796875
4802.4140625	0.00833333333333333	0	-30	-2.11875	1	0.4404296875
4805.33984375	0.00833333333333333	0	-30	-1.99375	1	0.39453125
4807.9140625	0.00833333333333333	0	-30	-1.99375	1	0.5244140625
4810.763671875	0.00833333333333333	0	-30	-1.99375	1	0.458984375
4813.48828125	0.00833333333333333	0	-30	-1.99375	1	0.55078125
4816.4052734375	0.00833333333333333	0	-30	-1.99375	1	0.345703125
4819.1884765625	0.00833333333333333	0	30	12.94375	1	0.474609375
4821.830078125	0.00833333333333333	0	-30	-1.86875	1	0.4892578125
4824.623046875	0.00833333333333333	0	-30	-1.86875	1	0.50390625
4827.546875	0.00833333333333333	0	-30	-1.86875	1	0.3642578125
4830.1298828125	0.00833333333333333	0	-30	-1.86875	1	0.357421875
4832.6044921875	0.00833333333333333	0	30	12.94375	1	0.322265625
4835.36328125	0.00833333333333333	0	-30	-1.86875	1	0.33203125
4837.9794921875	0.00833333333333333	0	30	13.06875	1	0.4599609375
4840.6044921875	0.00833333333333333	0	-30	-1.74375	1	0.38671875
4843.138671875	0.00833333333333333	0	-30	-1.74375	1	0.29296875
4845.796875	0.00833333333333333	0	-30	-1.74375	1	0.291015625
4848.138671875	0.00833333333333333	0	-30	-1.74375	1	0.4208984375
4850.6298828125	0.00833333333333333	0	-30	-1.74375	1	0.4501953125
4853.3798828125	0.00833333333333333	0	-30	-1.61875	1	0.244140625
