onset	duration	titr	surround	centre	response	rt
94.9091796875	0.00833333333333333	1	-30	15	2	4.2880859375
101.54296875	0.00833333333333333	1	30	-15	2	1.150390625
105.1845703125	0.00833333333333333	1	NaN	15	2	1.484375
109.1513671875	0.00833333333333333	1	-30	14	2	1.8134765625
113.384765625	0.00833333333333333	1	-30	-15	2	1.96484375
117.6767578125	0.00833333333333333	1	30	15	1	1.13671875
121.234375	0.00833333333333333	1	30	16	1	1.203125
124.66015625	0.00833333333333333	1	-30	13	2	0.7451171875
127.7421875	0.00833333333333333	1	-30	-16	1	0.9189453125
130.8759765625	0.00833333333333333	1	30	-16	1	0.681640625
133.7841796875	0.00833333333333333	1	30	-15	1	0.7021484375
136.7177734375	0.00833333333333333	1	-30	12	2	0.6318359375
139.767578125	0.00833333333333333	1	30	-14	1	0.638671875
142.91796875	0.00833333333333333	1	30	17	2	0.6884765625
145.701171875	0.00833333333333333	1	NaN	-15	1	0.5927734375
148.701171875	0.00833333333333333	1	30	16	2	1.0009765625
151.8330078125	0.00833333333333333	1	-30	11	2	0.708984375
154.8837890625	0.00833333333333333	1	NaN	-14	1	0.5390625
157.9423828125	0.00833333333333333	1	NaN	-13	1	0.65625
161.0341796875	0.00833333333333333	1	30	-13	1	0.7001953125
163.8837890625	0.00833333333333333	1	NaN	14	2	0.794921875
166.93359375	0.00833333333333333	1	NaN	-12	1	0.6650390625
169.6337890625	0.00833333333333333	1	NaN	13	2	0.701171875
172.7255859375	0.00833333333333333	1	-30	-15	1	0.8251953125
175.7080078125	0.00833333333333333	1	NaN	12	2	0.6513671875
178.841796875	0.00833333333333333	1	NaN	11	2	0.7490234375
182.1005859375	0.00833333333333333	1	-30	10	2	0.72265625
185.0419921875	0.00833333333333333	1	30	-12	1	0.701171875
188.033203125	0.00833333333333333	1	30	-11	1	0.75
191.208984375	0.00833333333333333	1	-30	-14	2	1.0146484375
194.3837890625	0.00833333333333333	1	30	-10	1	0.7197265625
197.5751953125	0.00833333333333333	1	NaN	-11	1	0.9921875
200.7998046875	0.00833333333333333	1	-30	-15	1	0.759765625
204.015625	0.00833333333333333	1	-30	9	2	0.6806640625
207.0087890625	0.00833333333333333	1	NaN	-10	1	0.615234375
210.0498046875	0.00833333333333333	1	30	-9	1	0.5986328125
212.875	0.00833333333333333	1	NaN	-9	1	0.6533203125
215.9580078125	0.00833333333333333	1	-30	8	2	1.1630859375
219.5498046875	0.00833333333333333	1	30	15	2	1.9951171875
223.6328125	0.00833333333333333	1	NaN	10	2	1.2880859375
227.375	0.00833333333333333	1	NaN	9	2	1.1943359375
230.6328125	0.00833333333333333	1	NaN	8	2	0.9765625
234.0498046875	0.00833333333333333	1	-30	7	2	0.767578125
237.125	0.00833333333333333	1	-30	6	2	1.1162109375
240.474609375	0.00833333333333333	1	-30	5	2	1.0869140625
243.7578125	0.00833333333333333	1	-30	4	2	0.8515625
246.908203125	0.00833333333333333	1	NaN	7	2	0.9736328125
249.982421875	0.00833333333333333	1	NaN	6	2	1.291015625
253.798828125	0.00833333333333333	1	NaN	5	2	1.1865234375
257.2158203125	0.00833333333333333	1	-30	-14	1	1.2578125
260.890625	0.00833333333333333	1	NaN	4	2	1.34375
264.7578125	0.00833333333333333	1	30	-8	1	0.5966796875
267.7490234375	0.00833333333333333	1	30	-7	1	0.701171875
270.482421875	0.00833333333333333	1	-30	3	2	0.9677734375
273.541015625	0.00833333333333333	1	30	14	2	0.8935546875
276.8818359375	0.00833333333333333	1	NaN	3	2	0.80859375
280.07421875	0.00833333333333333	1	-30	-13	1	0.6240234375
283.107421875	0.00833333333333333	1	NaN	-8	1	0.84765625
286.380859375	0.00833333333333333	1	-30	2	2	0.7822265625
289.5908203125	0.00833333333333333	1	-30	-12	1	0.6923828125
292.365234375	0.00833333333333333	1	-30	1	2	0.7333984375
295.5400390625	0.00833333333333333	1	30	13	1	1.1826171875
298.7822265625	0.00833333333333333	1	30	-6	1	0.5966796875
301.3984375	0.00833333333333333	1	NaN	2	2	0.8369140625
304.46484375	0.00833333333333333	1	30	-5	1	0.5625
307.46484375	0.00833333333333333	1	-30	-11	2	0.794921875
310.515625	0.00833333333333333	1	-30	-12	1	0.6796875
313.3818359375	0.00833333333333333	1	30	-4	1	0.57421875
315.9482421875	0.00833333333333333	1	NaN	-7	1	0.6630859375
318.689453125	0.00833333333333333	1	-30	0	2	0.6826171875
321.46484375	0.00833333333333333	1	30	-3	1	0.546875
324.498046875	0.00833333333333333	1	NaN	-6	1	0.6015625
327.4228515625	0.00833333333333333	1	-30	-11	1	1.4130859375
330.9150390625	0.00833333333333333	1	30	14	2	1.033203125
334.47265625	0.00833333333333333	1	NaN	1	2	0.8837890625
337.5234375	0.00833333333333333	1	-30	-10	1	0.9453125
340.8232421875	0.00833333333333333	1	-30	-1	2	1.0048828125
344.373046875	0.00833333333333333	1	-30	-9	2	1.1357421875
347.6728515625	0.00833333333333333	1	30	-2	1	0.6279296875
350.65625	0.00833333333333333	1	30	13	2	0.8525390625
353.9052734375	0.00833333333333333	1	30	12	1	1.083984375
357.322265625	0.00833333333333333	1	30	13	2	1.37109375
361.2060546875	0.00833333333333333	1	NaN	-5	1	0.775390625
364.3046875	0.00833333333333333	1	-30	-2	2	0.7490234375
367.53125	0.00833333333333333	1	30	-1	1	0.59375
370.2646484375	0.00833333333333333	1	30	12	2	1.9248046875
374.5810546875	0.00833333333333333	1	-30	-10	1	0.9130859375
377.6142578125	0.00833333333333333	1	NaN	-4	1	0.8154296875
380.505859375	0.00833333333333333	1	30	11	1	0.99609375
383.9228515625	0.00833333333333333	1	NaN	-3	1	1.2509765625
387.34765625	0.00833333333333333	1	30	12	2	1.0419921875
390.7470703125	0.00833333333333333	1	NaN	-2	1	1.21875
394.4560546875	0.00833333333333333	1	30	0	1	0.765625
422.263671875	0.00833333333333333	1	30	11	2	1.0234375
425.4208984375	0.00833333333333333	1	-30	-9	1	0.9140625
428.7958984375	0.00833333333333333	1	-30	-3	2	0.7236328125
431.5380859375	0.00833333333333333	1	30	10	1	1.2373046875
435.013671875	0.00833333333333333	1	-30	-4	2	0.76953125
437.9453125	0.00833333333333333	1	-30	-5	2	0.7822265625
441.0380859375	0.00833333333333333	1	NaN	-1	1	0.5771484375
443.9296875	0.00833333333333333	1	30	11	1	0.8701171875
446.9384765625	0.00833333333333333	1	30	1	1	0.5498046875
449.8798828125	0.00833333333333333	1	-30	-8	2	0.744140625
452.9287109375	0.00833333333333333	1	30	12	2	0.6875
455.9130859375	0.00833333333333333	1	NaN	0	1	1.2548828125
459.23828125	0.00833333333333333	1	NaN	0	1	1.2421875
462.6796875	0.00833333333333333	1	NaN	1	1	0.904296875
466.1044921875	0.00833333333333333	1	NaN	2	1	0.927734375
469.470703125	0.00833333333333333	1	-30	-6	1	1.8974609375
473.7958984375	0.00833333333333333	1	NaN	3	2	1.1005859375
477.1630859375	0.00833333333333333	1	30	11	1	1.25390625
480.6455078125	0.00833333333333333	1	30	2	1	0.69921875
483.4873046875	0.00833333333333333	1	NaN	1	1	1.08984375
486.904296875	0.00833333333333333	1	-30	-5	2	1.208984375
490.412109375	0.00833333333333333	1	-30	-6	2	1.4287109375
493.9619140625	0.00833333333333333	1	NaN	2	2	1.455078125
497.7529296875	0.00833333333333333	1	NaN	2	2	1.12890625
501.203125	0.00833333333333333	1	NaN	1	2	1.0791015625
504.6875	0.00833333333333333	1	NaN	1	2	1.0185546875
507.7861328125	0.00833333333333333	1	-30	-7	2	0.9912109375
510.9541015625	0.00833333333333333	1	-30	-8	2	1.3603515625
514.845703125	0.00833333333333333	1	-30	-9	2	0.9560546875
517.88671875	0.00833333333333333	1	NaN	0	2	0.947265625
521.3955078125	0.00833333333333333	1	NaN	0	1	1.1904296875
525.1533203125	0.00833333333333333	1	NaN	1	2	1.0009765625
528.470703125	0.00833333333333333	1	NaN	0	2	0.763671875
531.6865234375	0.00833333333333333	1	30	3	1	0.8916015625
534.8955078125	0.00833333333333333	1	30	4	1	1.04296875
538.38671875	0.00833333333333333	1	NaN	-1	1	0.81640625
541.361328125	0.00833333333333333	1	30	5	1	0.841796875
544.3115234375	0.00833333333333333	1	NaN	0	1	0.9150390625
547.728515625	0.00833333333333333	1	-30	-9	2	1.154296875
550.9619140625	0.00833333333333333	1	-30	-10	2	0.9775390625
554.302734375	0.00833333333333333	1	NaN	1	2	0.98828125
557.76953125	0.00833333333333333	1	NaN	0	2	1.017578125
561.0859375	0.00833333333333333	1	-30	-11	1	1.3896484375
564.8369140625	0.00833333333333333	1	30	6	2	1.4072265625
568.494140625	0.00833333333333333	1	-30	-10	1	1.2939453125
572.2265625	0.00833333333333333	1	NaN	-1	1	1.0576171875
575.7685546875	0.00833333333333333	1	-30	-9	1	1.9951171875
579.96875	0.00833333333333333	1	-30	-10	1	1.259765625
583.2939453125	0.00833333333333333	1	-30	-8	2	0.9580078125
586.8603515625	0.00833333333333333	1	30	5	1	2.095703125
591.4267578125	0.00833333333333333	1	NaN	-1	1	1.3935546875
595.15234375	0.00833333333333333	1	NaN	0	2	1.396484375
598.9599609375	0.00833333333333333	1	-30	-9	1	1.453125
602.509765625	0.00833333333333333	1	NaN	-1	2	1.0546875
606.001953125	0.00833333333333333	1	30	6	1	1.01171875
609.376953125	0.00833333333333333	1	-30	-8	1	1.1162109375
612.5185546875	0.00833333333333333	1	-30	-7	2	1.0703125
615.943359375	0.00833333333333333	1	-30	-8	1	1.142578125
619.2265625	0.00833333333333333	1	NaN	0	2	1.1552734375
622.576171875	0.00833333333333333	1	NaN	-1	1	0.78125
625.5849609375	0.00833333333333333	1	-30	-7	2	0.9248046875
628.767578125	0.00833333333333333	1	NaN	-2	1	0.8544921875
631.7763671875	0.00833333333333333	1	NaN	0	2	1.0537109375
634.92578125	0.00833333333333333	1	-30	-8	1	1.1923828125
638.392578125	0.00833333333333333	1	NaN	-1	2	1.4697265625
642.234375	0.00833333333333333	1	-30	-7	2	0.8515625
645.326171875	0.00833333333333333	1	30	7	1	0.82421875
648.3759765625	0.00833333333333333	1	NaN	-1	1	0.8544921875
651.3671875	0.00833333333333333	1	NaN	0	1	0.9990234375
654.392578125	0.00833333333333333	1	NaN	1	2	0.9580078125
657.583984375	0.00833333333333333	1	NaN	-2	1	0.7587890625
660.517578125	0.00833333333333333	1	30	8	2	1.2333984375
664.1591796875	0.00833333333333333	1	30	7	1	1.1357421875
667.5927734375	0.00833333333333333	1	-30	-8	1	1.478515625
671.392578125	0.00833333333333333	1	30	8	1	1.6142578125
675.517578125	0.00833333333333333	1	NaN	0	1	1.9697265625
679.6669921875	0.00833333333333333	1	-30	-7	1	1.572265625
683.5751953125	0.00833333333333333	1	-30	-6	2	1.3681640625
687.2333984375	0.00833333333333333	1	30	9	1	0.974609375
690.3837890625	0.00833333333333333	1	NaN	-1	1	0.9755859375
693.5419921875	0.00833333333333333	1	30	10	1	0.833984375
696.8671875	0.00833333333333333	1	NaN	0	1	0.97265625
700.033203125	0.00833333333333333	1	NaN	1	1	1.2392578125
703.56640625	0.00833333333333333	1	NaN	2	1	1.1298828125
706.9169921875	0.00833333333333333	1	NaN	3	1	1.2353515625
710.3671875	0.00833333333333333	1	NaN	4	2	1.5048828125
713.9501953125	0.00833333333333333	1	30	11	2	1.41796875
717.6416015625	0.00833333333333333	1	30	10	1	0.806640625
720.7919921875	0.00833333333333333	1	30	11	1	0.873046875
747.6162109375	0.00833333333333333	1	30	12	1	1.609375
751.42578125	0.00833333333333333	1	30	13	2	1.3916015625
755.265625	0.00833333333333333	1	30	12	1	1.0166015625
758.541015625	0.00833333333333333	1	30	13	1	1.3486328125
762.44140625	0.00833333333333333	1	30	14	2	1.072265625
765.7998046875	0.00833333333333333	1	30	11.8333333333333	1	1.2666015625
769.357421875	0.00833333333333333	1	30	10.8333333333333	1	1.052734375
772.607421875	0.00833333333333333	1	NaN	-0.75	1	1.291015625
775.982421875	0.00833333333333333	1	NaN	0.25	1	1.32421875
779.82421875	0.00833333333333333	1	NaN	-0.625	1	1.0263671875
783.298828125	0.00833333333333333	1	-30	-7.91666666666667	2	1.087890625
786.923828125	0.00833333333333333	1	30	11.9583333333333	2	1.4951171875
790.640625	0.00833333333333333	1	NaN	0.375	1	0.9384765625
793.8984375	0.00833333333333333	1	-30	-8.91666666666667	1	0.8486328125
796.8818359375	0.00833333333333333	1	-30	-8.79166666666667	2	1.44921875
800.732421875	0.00833333333333333	1	NaN	0.5	1	0.7509765625
803.5400390625	0.00833333333333333	1	-30	-8.91666666666667	1	1.2958984375
806.982421875	0.00833333333333333	1	-30	-8.04166666666667	2	1.7890625
811.44140625	0.00833333333333333	1	30	11.8333333333333	2	1.5458984375
815.240234375	0.00833333333333333	1	NaN	0.625	1	1.1474609375
818.71484375	0.00833333333333333	1	30	11.7083333333333	2	1.4013671875
822.6064453125	0.00833333333333333	1	-30	-8.79166666666667	1	1.4697265625
826.1328125	0.00833333333333333	1	-30	-8.16666666666667	1	1.1435546875
829.5146484375	0.00833333333333333	1	NaN	-0.5	2	1.521484375
833.2236328125	0.00833333333333333	1	-30	-8.04166666666667	1	1.5322265625
836.931640625	0.00833333333333333	1	30	11.5833333333333	2	1.1845703125
840.2978515625	0.00833333333333333	1	30	10.9583333333333	1	1.619140625
844.056640625	0.00833333333333333	1	NaN	-0.625	1	1.0595703125
847.4892578125	0.00833333333333333	1	30	11.4583333333333	2	1.412109375
851.3896484375	0.00833333333333333	1	30	11.3333333333333	2	1.3037109375
855.181640625	0.00833333333333333	1	NaN	-0.5	1	0.8798828125
858.5146484375	0.00833333333333333	1	NaN	0.75	1	1.3388671875
862.2060546875	0.00833333333333333	1	NaN	0.875	1	1.470703125
865.84765625	0.00833333333333333	1	30	11.0833333333333	2	1.2138671875
869.4560546875	0.00833333333333333	1	NaN	1	1	2.1650390625
874.1064453125	0.00833333333333333	1	-30	-8.66666666666667	2	1.203125
877.5556640625	0.00833333333333333	1	30	11.2083333333333	2	1.1943359375
881.314453125	0.00833333333333333	1	30	10.9583333333333	2	1.603515625
885.23046875	0.00833333333333333	1	NaN	-0.375	1	1.0712890625
888.380859375	0.00833333333333333	1	-30	-8.79166666666667	2	1.4248046875
892.1220703125	0.00833333333333333	1	NaN	-0.25	1	0.7802734375
895.34765625	0.00833333333333333	1	-30	-8.91666666666667	1	1.203125
898.755859375	0.00833333333333333	1	-30	-8.79166666666667	1	0.9462890625
901.9970703125	0.00833333333333333	1	-30	-8.66666666666667	2	1.505859375
905.888671875	0.00833333333333333	1	-30	-7.91666666666667	1	1.0615234375
909.1220703125	0.00833333333333333	1	30	10.8333333333333	1	1.4609375
912.796875	0.00833333333333333	1	-30	-8.79166666666667	1	1.314453125
916.5224609375	0.00833333333333333	1	-30	-7.79166666666667	1	1.6689453125
920.5966796875	0.00833333333333333	1	30	11.0833333333333	1	1.5703125
924.7138671875	0.00833333333333333	1	30	11.2083333333333	2	1.6376953125
928.6884765625	0.00833333333333333	1	-30	-8.66666666666667	1	0.9912109375
931.8134765625	0.00833333333333333	1	30	11.0833333333333	2	1.841796875
936.0966796875	0.00833333333333333	1	-30	-8.54166666666667	1	0.966796875
939.580078125	0.00833333333333333	1	NaN	1.125	1	0.9873046875
942.65625	0.00833333333333333	1	30	10.9583333333333	2	1.3037109375
946.1796875	0.00833333333333333	1	30	10.9583333333333	2	1.1005859375
949.5380859375	0.00833333333333333	1	-30	-8.41666666666667	1	0.8701171875
952.5380859375	0.00833333333333333	1	-30	-8.29166666666667	1	1.1982421875
956.212890625	0.00833333333333333	1	-30	-7.66666666666667	1	1.595703125
960.24609375	0.00833333333333333	1	30	10.8333333333333	2	0.9384765625
963.279296875	0.00833333333333333	1	NaN	1.25	1	1.369140625
966.8798828125	0.00833333333333333	1	NaN	-0.125	1	0.865234375
969.9462890625	0.00833333333333333	1	30	10.8333333333333	2	1.40625
973.6962890625	0.00833333333333333	1	NaN	0	1	1.2490234375
977.0126953125	0.00833333333333333	1	30	10.7083333333333	2	1.076171875
980.5380859375	0.00833333333333333	1	NaN	1.375	2	1.302734375
984.2548828125	0.00833333333333333	1	-30	-7.54166666666667	1	1.810546875
988.345703125	0.00833333333333333	1	-30	-7.41666666666667	2	1.1357421875
991.8876953125	0.00833333333333333	1	30	10.7083333333333	2	1.41015625
995.7294921875	0.00833333333333333	1	NaN	1.25	2	1.3603515625
999.5126953125	0.00833333333333333	1	-30	-8.16666666666667	2	1.8251953125
1003.8544921875	0.00833333333333333	1	30	10.5833333333333	2	1.68359375
1007.8203125	0.00833333333333333	1	30	10.5833333333333	1	1.005859375
1011.2119140625	0.00833333333333333	1	30	10.7083333333333	1	1.326171875
1014.9208984375	0.00833333333333333	1	NaN	1.125	1	1.625
1018.7294921875	0.00833333333333333	1	-30	-8.29166666666667	1	1.2890625
1022.162109375	0.00833333333333333	1	30	10.4583333333333	2	1.12890625
1025.529296875	0.00833333333333333	1	30	10.3333333333333	1	0.8974609375
1028.470703125	0.00833333333333333	1	30	10.8333333333333	1	0.828125
1031.7705078125	0.00833333333333333	1	NaN	0.125	1	1.369140625
1035.412109375	0.00833333333333333	1	30	10.4583333333333	1	1.4462890625
1039.13671875	0.00833333333333333	1	NaN	1.25	2	1.330078125
1042.904296875	0.00833333333333333	1	NaN	1.125	1	0.8427734375
1045.8701171875	0.00833333333333333	1	30	10.5833333333333	1	1.1328125
1079.2451171875	0.00833333333333333	1	NaN	1.25	1	1.431640625
1083.169921875	0.00833333333333333	1	30	10.7083333333333	2	1.9228515625
1087.4775390625	0.00833333333333333	1	30	10.9583333333333	1	1.607421875
1091.51171875	0.00833333333333333	1	30	11.0833333333333	2	1.2294921875
1094.9443359375	0.00833333333333333	1	30	10.9583333333333	2	1.396484375
1098.5361328125	0.00833333333333333	1	-30	-8.16666666666667	1	1.2607421875
1102.0029296875	0.00833333333333333	1	30	10.5833333333333	2	1.4345703125
1105.927734375	0.00833333333333333	1	-30	-7.54166666666667	2	1.26171875
1109.369140625	0.00833333333333333	1	30	10.8333333333333	1	0.9560546875
1112.5107421875	0.00833333333333333	1	30	10.9583333333333	2	1.22265625
1116.185546875	0.00833333333333333	1	NaN	1.375	1	1.3564453125
1119.7021484375	0.00833333333333333	1	NaN	0.25	1	0.8798828125
1123.0439453125	0.00833333333333333	1	-30	-7.66666666666667	1	1.2177734375
1126.7275390625	0.00833333333333333	1	NaN	1.5	2	0.8857421875
1129.953125	0.00833333333333333	1	NaN	0.375	1	0.6689453125
1132.986328125	0.00833333333333333	1	30	10.8333333333333	2	1.0517578125
1136.669921875	0.00833333333333333	1	NaN	0.5	1	1.3681640625
1140.2275390625	0.00833333333333333	1	30	10.4583333333333	1	1.2744140625
1143.9365234375	0.00833333333333333	1	NaN	1.375	1	0.91015625
1147.001953125	0.00833333333333333	1	NaN	1.5	1	0.828125
1150.177734375	0.00833333333333333	1	NaN	0.625	1	1.31640625
1153.9765625	0.00833333333333333	1	NaN	0.75	1	1.4306640625
1157.6181640625	0.00833333333333333	1	NaN	1.625	2	1.4765625
1161.3857421875	0.00833333333333333	1	-30	-7.54166666666667	1	1.1015625
1164.7431640625	0.00833333333333333	1	-30	-7.41666666666667	2	0.927734375
1167.9521484375	0.00833333333333333	1	NaN	1.5	2	1.119140625
1171.7099609375	0.00833333333333333	1	-30	-8.04166666666667	1	1.544921875
1175.3017578125	0.00833333333333333	1	30	10.5833333333333	2	1.43359375
1179.16015625	0.00833333333333333	1	-30	-7.91666666666667	1	1.2470703125
1182.751953125	0.00833333333333333	1	30	10.7083333333333	2	1.103515625
1186.0517578125	0.00833333333333333	1	30	10.5833333333333	1	1.4521484375
1189.8349609375	0.00833333333333333	1	30	10.4583333333333	1	1.365234375
1193.7099609375	0.00833333333333333	1	-30	-7.54166666666667	1	0.826171875
1196.9931640625	0.00833333333333333	1	-30	-7.41666666666667	2	0.951171875
1200.392578125	0.00833333333333333	1	30	10.5833333333333	1	1.5439453125
1203.9599609375	0.00833333333333333	1	30	10.7083333333333	2	1.14453125
1207.3681640625	0.00833333333333333	1	30	10.7083333333333	2	1.1044921875
1211.0341796875	0.00833333333333333	1	-30	-7.79166666666667	2	1.501953125
1215.0673828125	0.00833333333333333	1	30	10.5833333333333	2	1.3896484375
1218.5009765625	0.00833333333333333	1	NaN	1.375	1	0.66015625
1221.4423828125	0.00833333333333333	1	30	10.4583333333333	2	1.2705078125
1225.208984375	0.00833333333333333	1	NaN	1.5	1	1
1228.576171875	0.00833333333333333	1	30	10.5833333333333	2	0.8486328125
1231.55078125	0.00833333333333333	1	30	10.3333333333333	1	1.138671875
1235.017578125	0.00833333333333333	1	-30	-7.91666666666667	1	1.50390625
1238.9345703125	0.00833333333333333	1	NaN	0.875	1	1.2509765625
1242.3505859375	0.00833333333333333	1	-30	-7.79166666666667	2	0.9716796875
1245.525390625	0.00833333333333333	1	30	10.4583333333333	2	0.8359375
1248.833984375	0.00833333333333333	1	NaN	1.625	1	0.912109375
1252.142578125	0.00833333333333333	1	30	10.4583333333333	1	0.8994140625
1255.525390625	0.00833333333333333	1	-30	-7.54166666666667	1	1.533203125
1259.150390625	0.00833333333333333	1	NaN	1	2	1.1953125
1262.6259765625	0.00833333333333333	1	NaN	0.875	1	0.80859375
1265.8251953125	0.00833333333333333	1	30	10.3333333333333	2	0.79296875
1268.9501953125	0.00833333333333333	1	-30	-7.41666666666667	1	1.2919921875
1272.7255859375	0.00833333333333333	1	30	10.2083333333333	2	1.197265625
1276.525390625	0.00833333333333333	1	NaN	1.75	1	1.0615234375
1279.7998046875	0.00833333333333333	1	30	10.5833333333333	1	0.970703125
1283.025390625	0.00833333333333333	1	NaN	1.875	1	1.185546875
1286.5087890625	0.00833333333333333	1	-30	-7.29166666666667	1	1.55078125
1290.375	0.00833333333333333	1	-30	-7.16666666666667	1	1.4443359375
1294.2666015625	0.00833333333333333	1	30	10.0833333333333	2	1.4482421875
1298.2080078125	0.00833333333333333	1	NaN	1	1	1.419921875
1301.7578125	0.00833333333333333	1	-30	-7.91666666666667	1	1.3662109375
1305.2666015625	0.00833333333333333	1	NaN	1.125	2	1.3212890625
1308.716796875	0.00833333333333333	1	NaN	2	1	0.9990234375
1311.8828125	0.00833333333333333	1	NaN	1	2	1.224609375
1315.625	0.00833333333333333	1	30	10.7083333333333	1	0.9072265625
1318.875	0.00833333333333333	1	-30	-7.04166666666667	1	1.3369140625
1322.5166015625	0.00833333333333333	1	NaN	2.125	2	1.095703125
1326.1494140625	0.00833333333333333	1	-30	-7.79166666666667	1	1.3505859375
1329.6416015625	0.00833333333333333	1	-30	-7.66666666666667	1	1.130859375
1332.908203125	0.00833333333333333	1	NaN	0.875	1	1.3525390625
1336.5576171875	0.00833333333333333	1	-30	-6.91666666666667	2	1.3994140625
1340.474609375	0.00833333333333333	1	NaN	2	1	1.39453125
1344.015625	0.00833333333333333	1	30	10.8333333333333	2	1.3251953125
1347.6669921875	0.00833333333333333	1	30	10.7083333333333	2	1.8017578125
1351.6826171875	0.00833333333333333	1	NaN	2.125	1	0.9140625
1354.82421875	0.00833333333333333	1	30	10.5833333333333	1	1.060546875
1358.1240234375	0.00833333333333333	1	-30	-7.54166666666667	1	0.953125
1361.4990234375	0.00833333333333333	1	NaN	1	1	1.2099609375
1364.82421875	0.00833333333333333	1	-30	-7.41666666666667	2	1.3173828125
1368.3994140625	0.00833333333333333	1	30	10.7083333333333	2	1.494140625
1371.9736328125	0.00833333333333333	1	NaN	2.25	1	0.7919921875
1375.1318359375	0.00833333333333333	1	-30	-7.04166666666667	1	1.4580078125
1378.8740234375	0.00833333333333333	1	-30	-7.54166666666667	1	0.7724609375
1460.3818359375	0.00833333333333333	1	NaN	2.375	2	1.779296875
1464.2314453125	0.00833333333333333	1	30	9.95833333333333	1	1.1689453125
1467.5390625	0.00833333333333333	1	-30	-7.41666666666667	2	0.93359375
1470.97265625	0.00833333333333333	1	NaN	2.25	2	0.916015625
1473.98046875	0.00833333333333333	1	NaN	2.125	1	0.9404296875
1477.130859375	0.00833333333333333	1	NaN	1.125	1	1.158203125
1480.6728515625	0.00833333333333333	1	NaN	2.25	1	1.0244140625
1483.822265625	0.00833333333333333	1	30	10.5833333333333	1	1.0908203125
1487.421875	0.00833333333333333	1	30	10.7083333333333	1	1.1552734375
1491.0732421875	0.00833333333333333	1	NaN	2.375	2	1.3603515625
1494.947265625	0.00833333333333333	1	30	10.0833333333333	2	1.7509765625
1498.8642578125	0.00833333333333333	1	NaN	2.25	1	1.09765625
1502.2724609375	0.00833333333333333	1	30	10.8333333333333	2	1.0419921875
1505.4970703125	0.00833333333333333	1	30	9.95833333333333	1	1.11328125
1508.705078125	0.00833333333333333	1	-30	-6.91666666666667	1	1.201171875
1512.0556640625	0.00833333333333333	1	NaN	1.25	2	2.4423828125
1516.521484375	0.00833333333333333	1	30	10.0833333333333	2	1.3369140625
1520.0390625	0.00833333333333333	1	NaN	2.375	1	1.00390625
1523.0966796875	0.00833333333333333	1	NaN	1.125	2	1.07421875
1526.3466796875	0.00833333333333333	1	NaN	2.5	2	0.81640625
1529.7548828125	0.00833333333333333	1	NaN	1	1	0.6884765625
1532.9462890625	0.00833333333333333	1	-30	-6.79166666666667	2	1.072265625
1536.521484375	0.00833333333333333	1	-30	-6.91666666666667	1	0.857421875
1539.630859375	0.00833333333333333	1	-30	-6.79166666666667	1	1.1884765625
1543.3046875	0.00833333333333333	1	-30	-6.66666666666667	1	1.2265625
1546.98828125	0.00833333333333333	1	-30	-6.54166666666667	2	1.7509765625
1551.1884765625	0.00833333333333333	1	NaN	1.125	2	1.1435546875
1554.896484375	0.00833333333333333	1	-30	-6.66666666666667	1	1.1708984375
1558.5712890625	0.00833333333333333	1	-30	-6.54166666666667	2	1.216796875
1561.99609375	0.00833333333333333	1	-30	-6.66666666666667	2	0.904296875
1565.212890625	0.00833333333333333	1	-30	-6.79166666666667	1	1.0234375
1568.6123046875	0.00833333333333333	1	NaN	1	1	1.48828125
1572.455078125	0.00833333333333333	1	NaN	1.125	1	1.708984375
1576.3623046875	0.00833333333333333	1	NaN	1.25	2	0.921875
1579.8544921875	0.00833333333333333	1	NaN	1.125	2	1.26171875
1583.49609375	0.00833333333333333	1	NaN	1	2	1.2607421875
1587.220703125	0.00833333333333333	1	NaN	0.875	1	0.744140625
1590.3037109375	0.00833333333333333	1	NaN	1	2	1.1572265625
1593.8291015625	0.00833333333333333	1	NaN	0.875	2	1.416015625
1597.4208984375	0.00833333333333333	1	NaN	0.75	2	0.9599609375
1600.646484375	0.00833333333333333	1	NaN	0.625	2	1.046875
1603.787109375	0.00833333333333333	1	NaN	0.5	2	1.2099609375
1607.228515625	0.00833333333333333	1	NaN	0.375	2	1.3125
1610.9208984375	0.00833333333333333	1	NaN	0.25	2	0.732421875
1614.26171875	0.00833333333333333	1	NaN	0.125	1	1
1617.5869140625	0.00833333333333333	1	NaN	0.25	2	0.9072265625
1620.6201171875	0.00833333333333333	0	-30	-7.41041666666667	2	1.41796875
1624.220703125	0.00833333333333333	0	30	10.5083333333333	2	1.0576171875
1627.51171875	0.00833333333333333	0	-30	-7.41041666666667	1	1.4541015625
1631.12109375	0.00833333333333333	0	30	10.5083333333333	1	0.9970703125
1634.3369140625	0.00833333333333333	0	-30	-7.41041666666667	1	1.189453125
1637.970703125	0.00833333333333333	0	30	10.5083333333333	1	1.1318359375
1641.25390625	0.00833333333333333	0	30	10.5083333333333	1	1.240234375
1644.8212890625	0.00833333333333333	0	30	10.5083333333333	1	1.177734375
1648.5791015625	0.00833333333333333	0	-30	-7.41041666666667	1	1.3876953125
1652.1865234375	0.00833333333333333	0	30	10.5083333333333	2	1.1240234375
1655.728515625	0.00833333333333333	0	30	10.5083333333333	1	1.6220703125
1659.828125	0.00833333333333333	0	30	10.5083333333333	2	1.0029296875
1663.328125	0.00833333333333333	0	30	10.5083333333333	1	0.9833984375
1666.6279296875	0.00833333333333333	0	30	10.5083333333333	1	1.275390625
1670.2197265625	0.00833333333333333	0	30	10.5083333333333	2	0.9560546875
1673.5205078125	0.00833333333333333	0	30	10.5083333333333	1	1.4873046875
1677.25390625	0.00833333333333333	0	-30	-7.41041666666667	1	0.8173828125
1680.2197265625	0.00833333333333333	0	30	10.5083333333333	1	0.8916015625
1683.4609375	0.00833333333333333	0	-30	-7.41041666666667	1	0.6904296875
1686.40234375	0.00833333333333333	0	-30	-7.28541666666667	1	0.9736328125
1689.927734375	0.00833333333333333	0	30	10.5083333333333	2	0.904296875
1693.369140625	0.00833333333333333	0	-30	-7.28541666666667	1	0.8466796875
1696.6455078125	0.00833333333333333	0	30	10.5083333333333	1	1.5869140625
1700.6689453125	0.00833333333333333	0	-30	-7.28541666666667	1	1.01171875
1704.228515625	0.00833333333333333	0	30	10.5083333333333	2	0.7802734375
1707.5615234375	0.00833333333333333	0	-30	-7.28541666666667	1	0.791015625
1710.810546875	0.00833333333333333	0	30	10.5083333333333	2	0.982421875
1714.0439453125	0.00833333333333333	0	30	10.5083333333333	1	0.876953125
1717.0771484375	0.00833333333333333	0	-30	-7.28541666666667	1	0.8515625
1720.2451171875	0.00833333333333333	0	-30	-7.16041666666667	1	1.076171875
1723.7607421875	0.00833333333333333	0	-30	-7.16041666666667	1	1.8486328125
1727.7783203125	0.00833333333333333	0	30	10.5083333333333	2	0.85546875
1731.1865234375	0.00833333333333333	0	-30	-7.16041666666667	2	1.19140625
1734.4697265625	0.00833333333333333	0	-30	-7.16041666666667	1	1.107421875
1737.9443359375	0.00833333333333333	0	30	10.5083333333333	2	1.3935546875
1741.5693359375	0.00833333333333333	0	-30	-7.16041666666667	1	1.5849609375
1745.5615234375	0.00833333333333333	0	30	10.5083333333333	2	1.080078125
1749.15234375	0.00833333333333333	0	-30	-7.16041666666667	1	1.5615234375
1752.986328125	0.00833333333333333	0	-30	-7.16041666666667	1	1.48828125
1756.84375	0.00833333333333333	0	-30	-7.16041666666667	2	1.1748046875
1760.236328125	0.00833333333333333	0	-30	-7.16041666666667	1	0.7900390625
1763.310546875	0.00833333333333333	0	-30	-7.16041666666667	1	0.9638671875
1766.77734375	0.00833333333333333	0	30	10.5083333333333	2	1.017578125
1769.8857421875	0.00833333333333333	0	30	10.5083333333333	2	0.884765625
1773.1435546875	0.00833333333333333	0	30	10.3833333333333	2	0.939453125
1776.52734375	0.00833333333333333	0	-30	-7.16041666666667	1	0.9873046875
1779.701171875	0.00833333333333333	0	30	10.3833333333333	2	1.109375
1783.109375	0.00833333333333333	0	30	10.3833333333333	1	0.830078125
1786.4443359375	0.00833333333333333	0	30	10.3833333333333	1	1.142578125
1789.9267578125	0.00833333333333333	0	-30	-7.16041666666667	1	0.9482421875
1792.96875	0.00833333333333333	0	30	10.3833333333333	2	0.875
1796.3349609375	0.00833333333333333	0	-30	-7.16041666666667	1	0.7568359375
1799.5263671875	0.00833333333333333	0	-30	-7.03541666666667	2	0.8369140625
1802.734375	0.00833333333333333	0	-30	-7.03541666666667	1	0.7978515625
1806.017578125	0.00833333333333333	0	30	10.3833333333333	1	0.7861328125
1808.9931640625	0.00833333333333333	0	-30	-7.03541666666667	1	0.7548828125
1811.958984375	0.00833333333333333	0	30	10.3833333333333	1	1.4375
1815.66015625	0.00833333333333333	0	-30	-7.03541666666667	1	1.3837890625
1819.4267578125	0.00833333333333333	0	-30	-7.03541666666667	1	1.5771484375
1823.29296875	0.00833333333333333	0	30	10.3833333333333	2	0.7275390625
1826.3681640625	0.00833333333333333	0	30	10.3833333333333	2	0.9638671875
1829.951171875	0.00833333333333333	0	30	10.3833333333333	2	1.29296875
1833.568359375	0.00833333333333333	0	-30	-7.03541666666667	1	1.0361328125
1836.7265625	0.00833333333333333	0	30	10.3833333333333	1	1.0146484375
1840.134765625	0.00833333333333333	0	30	10.3833333333333	2	1.1826171875
1843.7177734375	0.00833333333333333	0	-30	-6.91041666666667	1	0.798828125
1846.701171875	0.00833333333333333	0	-30	-6.91041666666667	1	0.896484375
1849.7177734375	0.00833333333333333	0	30	10.3833333333333	2	0.783203125
1852.875	0.00833333333333333	0	30	10.3833333333333	2	0.810546875
1856.134765625	0.00833333333333333	0	30	10.3833333333333	2	0.8388671875
1859.142578125	0.00833333333333333	0	30	10.3833333333333	2	1.1748046875
1862.4169921875	0.00833333333333333	0	-30	-6.91041666666667	1	0.98828125
1865.8671875	0.00833333333333333	0	30	10.2583333333333	1	1.443359375
1869.6171875	0.00833333333333333	0	30	10.2583333333333	1	1.4130859375
1873.109375	0.00833333333333333	0	30	10.2583333333333	2	0.7529296875
1876.2255859375	0.00833333333333333	0	-30	-6.91041666666667	1	1.140625
1879.609375	0.00833333333333333	0	30	10.2583333333333	2	1.7333984375
1883.9091796875	0.00833333333333333	0	-30	-6.91041666666667	1	0.9130859375
1887.1337890625	0.00833333333333333	0	-30	-6.78541666666667	1	0.8330078125
1890.326171875	0.00833333333333333	0	30	10.2583333333333	2	1.328125
1919.158203125	0.00833333333333333	0	30	10.2583333333333	1	1.5458984375
1922.7666015625	0.00833333333333333	0	-30	-6.78541666666667	1	1.873046875
1926.849609375	0.00833333333333333	0	30	10.2583333333333	2	1.158203125
1930.55859375	0.00833333333333333	0	-30	-6.78541666666667	1	1.4814453125
1934.283203125	0.00833333333333333	0	-30	-6.78541666666667	2	1.4130859375
1937.9501953125	0.00833333333333333	0	-30	-6.78541666666667	1	1.4658203125
1941.5751953125	0.00833333333333333	0	-30	-6.78541666666667	1	0.7685546875
1944.658203125	0.00833333333333333	0	-30	-6.78541666666667	1	0.91796875
1947.9248046875	0.00833333333333333	0	30	10.2583333333333	2	0.859375
1951.1748046875	0.00833333333333333	0	30	10.2583333333333	2	0.9453125
1954.341796875	0.00833333333333333	0	-30	-6.78541666666667	1	0.771484375
1957.3916015625	0.00833333333333333	0	-30	-6.78541666666667	1	1.10546875
1960.724609375	0.00833333333333333	0	30	10.2583333333333	2	0.8125
1963.7158203125	0.00833333333333333	0	30	10.2583333333333	1	1.197265625
1966.9658203125	0.00833333333333333	0	30	10.2583333333333	1	1.1474609375
1970.6162109375	0.00833333333333333	0	-30	-6.66041666666667	1	1.361328125
1974.2158203125	0.00833333333333333	0	-30	-6.66041666666667	1	1.08984375
1977.482421875	0.00833333333333333	0	-30	-6.66041666666667	2	0.958984375
1980.607421875	0.00833333333333333	0	30	10.2583333333333	2	1.5302734375
1984.4990234375	0.00833333333333333	0	-30	-6.66041666666667	1	1.20703125
1988.0732421875	0.00833333333333333	0	30	10.2583333333333	1	1.0810546875
1991.623046875	0.00833333333333333	0	30	10.2583333333333	2	1.1630859375
1995.0234375	0.00833333333333333	0	-30	-6.66041666666667	2	1.474609375
1998.6162109375	0.00833333333333333	0	-30	-6.66041666666667	2	0.8740234375
2001.640625	0.00833333333333333	0	30	10.2583333333333	1	0.7294921875
2004.673828125	0.00833333333333333	0	-30	-6.66041666666667	1	0.7041015625
2007.71484375	0.00833333333333333	0	-30	-6.66041666666667	2	1.53515625
2011.615234375	0.00833333333333333	0	30	10.2583333333333	2	0.8671875
2014.6572265625	0.00833333333333333	0	30	10.2583333333333	1	1.0009765625
2017.8408203125	0.00833333333333333	0	30	10.2583333333333	2	0.9462890625
2021.0654296875	0.00833333333333333	0	30	10.2583333333333	2	1.0341796875
2024.71484375	0.00833333333333333	0	30	10.2583333333333	2	0.9921875
2028.21484375	0.00833333333333333	0	-30	-6.66041666666667	2	1.4365234375
2032.140625	0.00833333333333333	0	30	10.2583333333333	2	0.966796875
2035.5068359375	0.00833333333333333	0	-30	-6.66041666666667	1	0.880859375
2038.765625	0.00833333333333333	0	30	10.2583333333333	2	1.013671875
2041.873046875	0.00833333333333333	0	-30	-6.66041666666667	1	1.146484375
2045.1318359375	0.00833333333333333	0	-30	-6.66041666666667	1	0.775390625
2048.03125	0.00833333333333333	0	-30	-6.66041666666667	2	0.7802734375
2050.873046875	0.00833333333333333	0	-30	-6.66041666666667	1	0.7783203125
2053.9736328125	0.00833333333333333	0	30	10.1333333333333	2	0.798828125
2056.998046875	0.00833333333333333	0	30	10.1333333333333	2	0.91796875
2060.0146484375	0.00833333333333333	0	30	10.1333333333333	1	1.181640625
2063.3984375	0.00833333333333333	0	-30	-6.66041666666667	2	1.662109375
2067.373046875	0.00833333333333333	0	-30	-6.66041666666667	1	0.798828125
2070.3974609375	0.00833333333333333	0	30	10.1333333333333	2	0.814453125
2073.630859375	0.00833333333333333	0	30	10.1333333333333	2	0.7900390625
2076.7978515625	0.00833333333333333	0	30	10.1333333333333	2	0.783203125
2079.97265625	0.00833333333333333	0	30	10.1333333333333	2	1.248046875
2083.373046875	0.00833333333333333	0	30	10.1333333333333	2	0.83203125
2086.6298828125	0.00833333333333333	0	30	10.0083333333333	1	0.767578125
2089.880859375	0.00833333333333333	0	30	10.0083333333333	2	0.8359375
2093.1064453125	0.00833333333333333	0	30	10.0083333333333	2	0.978515625
2096.3642578125	0.00833333333333333	0	30	10.0083333333333	2	0.873046875
2099.322265625	0.00833333333333333	0	30	10.0083333333333	2	1.0751953125
2102.73046875	0.00833333333333333	0	30	10.0083333333333	2	2.890625
2108.0048828125	0.00833333333333333	0	-30	-6.66041666666667	1	1.216796875
2111.6806640625	0.00833333333333333	0	-30	-6.66041666666667	1	1.373046875
2115.4638671875	0.00833333333333333	0	-30	-6.66041666666667	1	1.0537109375
2118.8642578125	0.00833333333333333	0	30	9.88333333333333	2	1.2138671875
2122.34765625	0.00833333333333333	0	30	9.88333333333333	2	0.8740234375
2125.4794921875	0.00833333333333333	0	30	9.88333333333333	2	0.7109375
2128.2392578125	0.00833333333333333	0	-30	-6.66041666666667	2	0.798828125
2131.546875	0.00833333333333333	0	-30	-6.66041666666667	2	0.9716796875
2134.630859375	0.00833333333333333	0	-30	-6.66041666666667	2	1.84765625
2138.6884765625	0.00833333333333333	0	30	9.88333333333333	2	0.974609375
2142.0390625	0.00833333333333333	0	-30	-6.66041666666667	1	0.9755859375
2145.1044921875	0.00833333333333333	0	30	9.88333333333333	2	0.7421875
2148.2216796875	0.00833333333333333	0	-30	-6.66041666666667	1	1.2568359375
2151.9296875	0.00833333333333333	0	-30	-6.66041666666667	1	0.94921875
2155.0126953125	0.00833333333333333	0	-30	-6.66041666666667	1	0.9541015625
2158.1884765625	0.00833333333333333	0	30	9.75833333333333	2	0.9072265625
2161.24609375	0.00833333333333333	0	-30	-6.66041666666667	2	1.4970703125
2165.1962890625	0.00833333333333333	0	-30	-6.66041666666667	1	0.71484375
2168.3046875	0.00833333333333333	0	-30	-6.66041666666667	1	0.6953125
2171.087890625	0.00833333333333333	0	30	9.75833333333333	2	1.0234375
2174.546875	0.00833333333333333	0	30	9.75833333333333	2	0.94921875
2177.9384765625	0.00833333333333333	0	30	9.75833333333333	2	0.8291015625
2181.212890625	0.00833333333333333	0	30	9.75833333333333	2	1.37109375
2184.779296875	0.00833333333333333	0	-30	-6.66041666666667	2	1.5576171875
2205.4794921875	0.00833333333333333	0	-30	-6.66041666666667	2	1.5615234375
2209.1123046875	0.00833333333333333	0	30	9.63333333333333	2	1.1845703125
2212.587890625	0.00833333333333333	0	-30	-6.66041666666667	2	1.3173828125
2216.271484375	0.00833333333333333	0	30	9.63333333333333	2	1.330078125
2219.9208984375	0.00833333333333333	0	30	9.63333333333333	2	1.232421875
2223.6708984375	0.00833333333333333	0	-30	-6.66041666666667	2	1.2021484375
2227.1044921875	0.00833333333333333	0	30	9.63333333333333	2	1.3125
2230.587890625	0.00833333333333333	0	-30	-6.66041666666667	2	1.1171875
2233.99609375	0.00833333333333333	0	30	9.63333333333333	2	1.1494140625
2237.3623046875	0.00833333333333333	0	30	9.50833333333333	2	0.9599609375
2240.5869140625	0.00833333333333333	0	30	9.50833333333333	2	0.9111328125
2243.9287109375	0.00833333333333333	0	30	9.50833333333333	1	0.9697265625
2247.1123046875	0.00833333333333333	0	30	9.50833333333333	2	0.8974609375
2250.3369140625	0.00833333333333333	0	30	9.50833333333333	1	0.873046875
2253.3193359375	0.00833333333333333	0	-30	-6.78541666666667	1	1.21875
2256.6123046875	0.00833333333333333	0	30	9.50833333333333	2	1.310546875
2260.3115234375	0.00833333333333333	0	30	9.50833333333333	2	1.03515625
2263.5283203125	0.00833333333333333	0	30	9.50833333333333	1	0.8662109375
2266.6865234375	0.00833333333333333	0	30	9.50833333333333	1	1.083984375
2269.9365234375	0.00833333333333333	0	-30	-6.78541666666667	1	1.169921875
2273.50390625	0.00833333333333333	0	-30	-6.78541666666667	2	1.2587890625
2277.078125	0.00833333333333333	0	-30	-6.78541666666667	1	0.7890625
2280.287109375	0.00833333333333333	0	-30	-6.78541666666667	1	1.259765625
2283.912109375	0.00833333333333333	0	-30	-6.78541666666667	1	0.8994140625
2287.01953125	0.00833333333333333	0	30	9.50833333333333	1	1.6396484375
2291.052734375	0.00833333333333333	0	-30	-6.78541666666667	1	1.8310546875
2294.9443359375	0.00833333333333333	0	30	9.50833333333333	2	0.9228515625
2298.302734375	0.00833333333333333	0	30	9.50833333333333	2	1.029296875
2301.669921875	0.00833333333333333	0	30	9.50833333333333	2	1.8779296875
2305.9609375	0.00833333333333333	0	30	9.50833333333333	2	0.8916015625
2309.1865234375	0.00833333333333333	0	30	9.50833333333333	2	0.9775390625
2312.3525390625	0.00833333333333333	0	30	9.38333333333333	2	1.01171875
2315.5029296875	0.00833333333333333	0	30	9.38333333333333	1	0.92578125
2318.7109375	0.00833333333333333	0	30	9.38333333333333	1	0.9658203125
2322.052734375	0.00833333333333333	0	30	9.38333333333333	1	1.271484375
2325.4189453125	0.00833333333333333	0	30	9.38333333333333	1	0.994140625
2328.59375	0.00833333333333333	0	-30	-6.78541666666667	1	1.2587890625
2332.177734375	0.00833333333333333	0	30	9.38333333333333	2	0.771484375
2335.4521484375	0.00833333333333333	0	30	9.38333333333333	1	0.880859375
2338.6357421875	0.00833333333333333	0	-30	-6.66041666666667	2	0.8896484375
2341.626953125	0.00833333333333333	0	30	9.38333333333333	2	0.986328125
2345.0693359375	0.00833333333333333	0	-30	-6.66041666666667	1	0.8642578125
2348.3525390625	0.00833333333333333	0	30	9.38333333333333	2	0.8369140625
2351.435546875	0.00833333333333333	0	30	9.38333333333333	2	0.7294921875
2354.310546875	0.00833333333333333	0	30	9.38333333333333	2	1.0390625
2357.9267578125	0.00833333333333333	0	-30	-6.66041666666667	1	0.791015625
2361.001953125	0.00833333333333333	0	-30	-6.66041666666667	1	0.7001953125
2364.1767578125	0.00833333333333333	0	-30	-6.66041666666667	2	0.78125
2367.1357421875	0.00833333333333333	0	-30	-6.66041666666667	1	0.8701171875
2370.09375	0.00833333333333333	0	-30	-6.66041666666667	1	0.8642578125
2373.3603515625	0.00833333333333333	0	-30	-6.66041666666667	1	1.1181640625
2376.7099609375	0.00833333333333333	0	30	9.38333333333333	1	1.0244140625
2380.0185546875	0.00833333333333333	0	-30	-6.66041666666667	1	0.939453125
2383.251953125	0.00833333333333333	0	30	9.38333333333333	2	0.8505859375
2386.6181640625	0.00833333333333333	0	-30	-6.66041666666667	2	0.98828125
2389.9267578125	0.00833333333333333	0	-30	-6.66041666666667	2	1.095703125
2393.484375	0.00833333333333333	0	-30	-6.66041666666667	2	1.322265625
2396.9599609375	0.00833333333333333	0	-30	-6.66041666666667	2	0.806640625
2400.0263671875	0.00833333333333333	0	30	9.38333333333333	2	1.0771484375
2403.3935546875	0.00833333333333333	0	30	9.38333333333333	2	0.8212890625
2406.5185546875	0.00833333333333333	0	-30	-6.66041666666667	1	1.080078125
2409.6923828125	0.00833333333333333	0	-30	-6.66041666666667	2	1.138671875
2412.951171875	0.00833333333333333	0	30	9.38333333333333	2	1.064453125
2416.4755859375	0.00833333333333333	0	30	9.38333333333333	1	1.068359375
2419.734375	0.00833333333333333	0	-30	-6.66041666666667	1	0.76953125
2422.7509765625	0.00833333333333333	0	-30	-6.66041666666667	1	1.560546875
2426.4169921875	0.00833333333333333	0	-30	-6.66041666666667	2	1.119140625
2429.9091796875	0.00833333333333333	0	-30	-6.66041666666667	1	0.962890625
2433.109375	0.00833333333333333	0	30	9.38333333333333	2	0.826171875
2436.3095703125	0.00833333333333333	0	-30	-6.66041666666667	1	1.0986328125
2439.9013671875	0.00833333333333333	0	30	9.38333333333333	2	0.8671875
2442.9921875	0.00833333333333333	0	-30	-6.66041666666667	1	1.2880859375
2446.5009765625	0.00833333333333333	0	-30	-6.66041666666667	1	0.748046875
2449.734375	0.00833333333333333	0	30	9.38333333333333	1	1.0498046875
2452.9248046875	0.00833333333333333	0	-30	-6.66041666666667	1	1.3076171875
2456.54296875	0.00833333333333333	0	-30	-6.53541666666667	1	1.330078125
2460.267578125	0.00833333333333333	0	-30	-6.53541666666667	1	1.26171875
2464.0009765625	0.00833333333333333	0	30	9.38333333333333	1	1.15234375
2467.4677734375	0.00833333333333333	0	-30	-6.53541666666667	1	1.0849609375
2470.80859375	0.00833333333333333	0	-30	-6.53541666666667	1	1.7763671875
2494.1005859375	0.00833333333333333	0	-30	-6.53541666666667	1	3.4697265625
2499.7666015625	0.00833333333333333	0	30	9.38333333333333	1	1.2919921875
2503.2001953125	0.00833333333333333	0	30	9.38333333333333	2	1.6416015625
2507.2587890625	0.00833333333333333	0	-30	-6.41041666666667	2	1.248046875
2510.966796875	0.00833333333333333	0	30	9.38333333333333	2	1.611328125
2515.0830078125	0.00833333333333333	0	30	9.38333333333333	1	2.0634765625
2519.341796875	0.00833333333333333	0	-30	-6.41041666666667	1	1.0615234375
2522.875	0.00833333333333333	0	30	9.38333333333333	2	1.9677734375
2527.224609375	0.00833333333333333	0	-30	-6.41041666666667	1	1.2109375
2530.56640625	0.00833333333333333	0	30	9.38333333333333	1	0.78125
2533.6416015625	0.00833333333333333	0	-30	-6.41041666666667	2	0.833984375
2537	0.00833333333333333	0	-30	-6.41041666666667	1	0.69140625
2540.1572265625	0.00833333333333333	0	30	9.38333333333333	1	0.830078125
2543.4912109375	0.00833333333333333	0	-30	-6.41041666666667	1	0.728515625
2546.3916015625	0.00833333333333333	0	30	9.38333333333333	2	0.923828125
2549.4482421875	0.00833333333333333	0	-30	-6.41041666666667	1	0.939453125
2552.69921875	0.00833333333333333	0	-30	-6.41041666666667	1	0.720703125
2555.724609375	0.00833333333333333	0	30	9.38333333333333	1	1.279296875
2559.1572265625	0.00833333333333333	0	-30	-6.41041666666667	1	0.7265625
2562.0654296875	0.00833333333333333	0	30	9.38333333333333	1	1.3466796875
2565.58203125	0.00833333333333333	0	-30	-6.28541666666667	1	0.990234375
2568.9658203125	0.00833333333333333	0	30	9.38333333333333	2	0.9501953125
2572.1572265625	0.00833333333333333	0	30	9.38333333333333	2	0.6875
2575.3154296875	0.00833333333333333	0	30	9.38333333333333	2	1.2255859375
2578.7822265625	0.00833333333333333	0	30	9.38333333333333	1	1.2783203125
2582.4228515625	0.00833333333333333	0	-30	-6.28541666666667	1	0.7255859375
2585.4404296875	0.00833333333333333	0	-30	-6.28541666666667	1	1.1640625
2588.6650390625	0.00833333333333333	0	-30	-6.28541666666667	2	0.755859375
2591.6484375	0.00833333333333333	0	-30	-6.28541666666667	1	0.8046875
2594.798828125	0.00833333333333333	0	-30	-6.28541666666667	1	1.1904296875
2598.58203125	0.00833333333333333	0	30	9.38333333333333	2	0.7431640625
2601.7060546875	0.00833333333333333	0	30	9.38333333333333	1	0.8193359375
2605.0654296875	0.00833333333333333	0	30	9.38333333333333	2	1.7880859375
2608.9990234375	0.00833333333333333	0	-30	-6.28541666666667	1	1.20703125
2612.7314453125	0.00833333333333333	0	-30	-6.28541666666667	1	1.0107421875
2615.9482421875	0.00833333333333333	0	-30	-6.28541666666667	1	1.2255859375
2619.33984375	0.00833333333333333	0	-30	-6.16041666666667	1	0.9619140625
2622.5986328125	0.00833333333333333	0	-30	-6.16041666666667	1	0.8232421875
2625.8232421875	0.00833333333333333	0	-30	-6.16041666666667	1	1.4306640625
2629.5732421875	0.00833333333333333	0	-30	-6.16041666666667	1	1.2578125
2633.3896484375	0.00833333333333333	0	-30	-6.16041666666667	2	0.9208984375
2636.439453125	0.00833333333333333	0	30	9.38333333333333	2	0.6474609375
2639.6318359375	0.00833333333333333	0	30	9.38333333333333	1	0.791015625
2642.556640625	0.00833333333333333	0	-30	-6.16041666666667	1	0.994140625
2645.7060546875	0.00833333333333333	0	-30	-6.16041666666667	2	1.3251953125
2649.2900390625	0.00833333333333333	0	-30	-6.16041666666667	1	1.62890625
2653.22265625	0.00833333333333333	0	30	9.38333333333333	1	1.1767578125
2656.78125	0.00833333333333333	0	-30	-6.16041666666667	1	1.513671875
2660.623046875	0.00833333333333333	0	-30	-6.16041666666667	2	0.736328125
2663.53125	0.00833333333333333	0	-30	-6.16041666666667	2	1.1162109375
2666.7392578125	0.00833333333333333	0	-30	-6.16041666666667	1	1.1806640625
2670.36328125	0.00833333333333333	0	-30	-6.16041666666667	1	0.7724609375
2673.380859375	0.00833333333333333	0	30	9.38333333333333	2	1.2431640625
2677.0146484375	0.00833333333333333	0	-30	-6.16041666666667	2	1.0009765625
2680.5478515625	0.00833333333333333	0	30	9.38333333333333	2	0.8037109375
2683.6640625	0.00833333333333333	0	-30	-6.16041666666667	1	1
2687.013671875	0.00833333333333333	0	30	9.38333333333333	1	1.146484375
2690.2802734375	0.00833333333333333	0	30	9.38333333333333	2	0.8798828125
2693.6552734375	0.00833333333333333	0	30	9.38333333333333	2	1.43359375
2697.6552734375	0.00833333333333333	0	-30	-6.16041666666667	1	0.9462890625
2700.6806640625	0.00833333333333333	0	-30	-6.16041666666667	1	0.8876953125
2703.6142578125	0.00833333333333333	0	30	9.38333333333333	1	1.2587890625
2707.2138671875	0.00833333333333333	0	30	9.38333333333333	2	0.7470703125
2710.11328125	0.00833333333333333	0	30	9.38333333333333	2	0.912109375
2713.447265625	0.00833333333333333	0	-30	-6.16041666666667	2	0.90625
2716.7958984375	0.00833333333333333	0	30	9.38333333333333	2	0.8857421875
2719.98828125	0.00833333333333333	0	-30	-6.16041666666667	2	7.5654296875
2729.896484375	0.00833333333333333	0	-30	-6.16041666666667	2	1.544921875
2734.0380859375	0.00833333333333333	0	-30	-6.16041666666667	1	1.068359375
2737.654296875	0.00833333333333333	0	-30	-6.16041666666667	1	1.123046875
2741.080078125	0.00833333333333333	0	-30	-6.16041666666667	1	1.7294921875
2745.2880859375	0.00833333333333333	0	-30	-6.16041666666667	1	1.4423828125
2748.904296875	0.00833333333333333	0	30	9.38333333333333	2	0.8896484375
2752.1298828125	0.00833333333333333	0	-30	-6.16041666666667	1	0.8564453125
2755.4130859375	0.00833333333333333	0	-30	-6.03541666666667	1	1.61328125
2759.4462890625	0.00833333333333333	0	30	9.38333333333333	1	1.5166015625
2763.0712890625	0.00833333333333333	0	-30	-6.03541666666667	1	1.00390625
2766.279296875	0.00833333333333333	0	30	9.38333333333333	2	0.8916015625
2769.646484375	0.00833333333333333	0	30	9.38333333333333	2	0.8681640625
2773.0712890625	0.00833333333333333	0	-30	-6.03541666666667	1	1.1640625
2803.49609375	0.00833333333333333	0	-30	-6.03541666666667	1	13.2763671875
2819.1123046875	0.00833333333333333	0	30	9.38333333333333	1	2.0283203125
2823.4619140625	0.00833333333333333	0	-30	-6.03541666666667	2	0.87890625
2826.5283203125	0.00833333333333333	0	-30	-6.03541666666667	2	0.884765625
2829.8369140625	0.00833333333333333	0	30	9.38333333333333	2	1.34375
2833.5283203125	0.00833333333333333	0	-30	-6.03541666666667	2	0.900390625
2836.6455078125	0.00833333333333333	0	30	9.38333333333333	2	1.0712890625
2839.9033203125	0.00833333333333333	0	-30	-6.03541666666667	2	1.5419921875
2843.662109375	0.00833333333333333	0	-30	-6.03541666666667	2	1.71875
2847.65234375	0.00833333333333333	0	-30	-6.16041666666667	1	0.6728515625
2850.794921875	0.00833333333333333	0	-30	-6.16041666666667	2	1.8984375
2855.0869140625	0.00833333333333333	0	30	9.38333333333333	1	2.1748046875
2859.478515625	0.00833333333333333	0	30	9.38333333333333	1	1.5751953125
2863.236328125	0.00833333333333333	0	-30	-6.16041666666667	1	0.841796875
2866.5029296875	0.00833333333333333	0	-30	-6.16041666666667	2	1.439453125
2870.27734375	0.00833333333333333	0	30	9.38333333333333	2	0.880859375
2873.2783203125	0.00833333333333333	0	-30	-6.16041666666667	1	1.15234375
2876.6611328125	0.00833333333333333	0	30	9.38333333333333	2	1.0654296875
2880.236328125	0.00833333333333333	0	30	9.38333333333333	2	0.978515625
2883.328125	0.00833333333333333	0	30	9.38333333333333	2	1.2705078125
2886.7529296875	0.00833333333333333	0	-30	-6.16041666666667	1	1.109375
2890.26953125	0.00833333333333333	0	30	9.38333333333333	1	0.9931640625
2893.703125	0.00833333333333333	0	30	9.38333333333333	1	1.34375
2897.1943359375	0.00833333333333333	0	-30	-6.16041666666667	1	1.0126953125
2900.5107421875	0.00833333333333333	0	30	9.38333333333333	2	0.83203125
2903.4765625	0.00833333333333333	0	30	9.38333333333333	1	0.9306640625
2906.869140625	0.00833333333333333	0	-30	-6.16041666666667	1	0.76171875
2910.111328125	0.00833333333333333	0	30	9.38333333333333	1	0.9921875
2913.51953125	0.00833333333333333	0	-30	-6.16041666666667	2	0.767578125
2916.5517578125	0.00833333333333333	0	-30	-6.16041666666667	1	0.912109375
2919.6279296875	0.00833333333333333	0	30	9.38333333333333	1	0.7158203125
2922.59375	0.00833333333333333	0	-30	-6.16041666666667	1	0.7177734375
2925.53515625	0.00833333333333333	0	-30	-6.16041666666667	1	0.6728515625
2928.5107421875	0.00833333333333333	0	30	9.38333333333333	2	0.76171875
2931.52734375	0.00833333333333333	0	30	9.38333333333333	2	0.96875
2934.9521484375	0.00833333333333333	0	-30	-6.16041666666667	1	0.767578125
2938.1025390625	0.00833333333333333	0	30	9.38333333333333	2	0.75390625
2940.935546875	0.00833333333333333	0	30	9.38333333333333	2	0.46484375
2943.90234375	0.00833333333333333	0	-30	-6.16041666666667	2	0.9462890625
2947.3017578125	0.00833333333333333	0	30	9.38333333333333	1	0.546875
2950.001953125	0.00833333333333333	0	30	9.38333333333333	2	0.7109375
2953.0927734375	0.00833333333333333	0	30	9.38333333333333	2	0.595703125
2955.91015625	0.00833333333333333	0	30	9.38333333333333	1	0.6904296875
2958.66796875	0.00833333333333333	0	-30	-6.16041666666667	1	0.64453125
2961.7265625	0.00833333333333333	0	-30	-6.16041666666667	1	0.6181640625
2964.8349609375	0.00833333333333333	0	30	9.38333333333333	2	0.75
2968.068359375	0.00833333333333333	0	30	9.38333333333333	1	0.6845703125
2971.1513671875	0.00833333333333333	0	30	9.38333333333333	2	0.6015625
2974.0849609375	0.00833333333333333	0	-30	-6.16041666666667	1	1.0205078125
2977.42578125	0.00833333333333333	0	-30	-6.16041666666667	2	0.9033203125
2980.7001953125	0.00833333333333333	0	30	9.38333333333333	1	1.109375
2983.9013671875	0.00833333333333333	0	-30	-6.16041666666667	2	0.8447265625
2987.1259765625	0.00833333333333333	0	-30	-6.16041666666667	1	1.404296875
2990.9599609375	0.00833333333333333	0	30	9.38333333333333	2	1.08203125
2994.54296875	0.00833333333333333	0	30	9.38333333333333	1	0.69921875
2997.41796875	0.00833333333333333	0	-30	-6.16041666666667	1	1.0400390625
3000.892578125	0.00833333333333333	0	30	9.38333333333333	1	0.7734375
3004.076171875	0.00833333333333333	0	-30	-6.16041666666667	1	0.6220703125
3007.06640625	0.00833333333333333	0	30	9.38333333333333	2	2.671875
3011.884765625	0.00833333333333333	0	-30	-6.16041666666667	1	0.7177734375
3014.9423828125	0.00833333333333333	0	-30	-6.16041666666667	1	0.66796875
3017.7587890625	0.00833333333333333	0	30	9.38333333333333	2	0.7880859375
3021.076171875	0.00833333333333333	0	30	9.38333333333333	2	0.7666015625
3024.091796875	0.00833333333333333	0	30	9.38333333333333	1	0.607421875
3026.984375	0.00833333333333333	0	30	9.38333333333333	2	0.658203125
3029.775390625	0.00833333333333333	0	30	9.38333333333333	1	0.9716796875
3032.8671875	0.00833333333333333	0	-30	-6.03541666666667	1	0.9599609375
3035.8837890625	0.00833333333333333	0	30	9.38333333333333	1	0.6552734375
3038.9248046875	0.00833333333333333	0	30	9.38333333333333	2	0.982421875
3042.2919921875	0.00833333333333333	0	30	9.38333333333333	1	0.095703125
3044.583984375	0.00833333333333333	0	-30	-6.03541666666667	1	0.7392578125
3047.67578125	0.00833333333333333	0	30	9.38333333333333	2	1.1044921875
3051.283203125	0.00833333333333333	0	30	9.38333333333333	1	0.009765625
3053.5087890625	0.00833333333333333	0	-30	-6.03541666666667	1	1.431640625
3057.025390625	0.00833333333333333	0	30	9.38333333333333	2	1.03515625
3060.18359375	0.00833333333333333	0	30	9.38333333333333	1	0.9326171875
3063.3173828125	0.00833333333333333	0	30	9.38333333333333	1	0.9111328125
3066.7421875	0.00833333333333333	0	30	9.38333333333333	1	0.8623046875
3069.7744140625	0.00833333333333333	0	30	9.38333333333333	2	0.90234375
3072.966796875	0.00833333333333333	0	30	9.38333333333333	2	1.013671875
3122.666015625	0.00833333333333333	0	30	9.38333333333333	2	0.84375
3125.5498046875	0.00833333333333333	0	30	9.38333333333333	2	0.6728515625
3128.482421875	0.00833333333333333	0	30	9.38333333333333	1	0.6435546875
3131.19140625	0.00833333333333333	0	-30	-6.03541666666667	2	0.607421875
3133.982421875	0.00833333333333333	0	-30	-6.03541666666667	1	0.896484375
3137.0068359375	0.00833333333333333	0	30	9.38333333333333	2	0.65625
3139.8740234375	0.00833333333333333	0	30	9.38333333333333	2	0.572265625
3142.5908203125	0.00833333333333333	0	30	9.38333333333333	2	0.82421875
3145.673828125	0.00833333333333333	0	30	9.38333333333333	2	0.61328125
3148.4404296875	0.00833333333333333	0	30	9.38333333333333	2	0.814453125
3151.666015625	0.00833333333333333	0	-30	-6.03541666666667	2	1.1650390625
3155.107421875	0.00833333333333333	0	-30	-6.03541666666667	1	0.740234375
3158.265625	0.00833333333333333	0	-30	-6.03541666666667	1	1.28515625
3161.9990234375	0.00833333333333333	0	-30	-6.03541666666667	1	1.0322265625
3165.2568359375	0.00833333333333333	0	-30	-6.03541666666667	1	0.6865234375
3168.173828125	0.00833333333333333	0	30	9.25833333333333	2	1.001953125
3171.5322265625	0.00833333333333333	0	-30	-6.03541666666667	1	0.7080078125
3174.53125	0.00833333333333333	0	-30	-5.91041666666667	1	1.0283203125
3177.623046875	0.00833333333333333	0	-30	-5.91041666666667	2	1.056640625
3181.0732421875	0.00833333333333333	0	-30	-5.91041666666667	2	0.5908203125
3183.9736328125	0.00833333333333333	0	30	9.25833333333333	1	0.73828125
3187.2236328125	0.00833333333333333	0	30	9.25833333333333	1	0.5927734375
3189.9736328125	0.00833333333333333	0	-30	-5.91041666666667	1	0.458984375
3192.623046875	0.00833333333333333	0	-30	-5.91041666666667	2	0.7216796875
3195.40625	0.00833333333333333	0	-30	-5.91041666666667	1	1.138671875
3199.064453125	0.00833333333333333	0	30	9.25833333333333	2	0.640625
3202.0478515625	0.00833333333333333	0	-30	-5.91041666666667	1	0.8408203125
3205.2470703125	0.00833333333333333	0	30	9.25833333333333	2	0.74609375
3208.1064453125	0.00833333333333333	0	-30	-5.91041666666667	1	0.55078125
3210.955078125	0.00833333333333333	0	30	9.25833333333333	2	0.486328125
3213.5400390625	0.00833333333333333	0	30	9.25833333333333	2	0.693359375
3216.3232421875	0.00833333333333333	0	30	9.25833333333333	2	0.56640625
3219.2060546875	0.00833333333333333	0	-30	-5.91041666666667	2	1.107421875
3222.4892578125	0.00833333333333333	0	-30	-5.91041666666667	1	1.2080078125
3225.873046875	0.00833333333333333	0	30	9.13333333333333	2	0.7685546875
3228.9970703125	0.00833333333333333	0	-30	-5.91041666666667	1	0.66015625
3231.7978515625	0.00833333333333333	0	-30	-5.91041666666667	1	0.7314453125
3234.65625	0.00833333333333333	0	30	9.13333333333333	2	0.8818359375
3237.630859375	0.00833333333333333	0	30	9.13333333333333	1	0.859375
3240.5146484375	0.00833333333333333	0	-30	-5.91041666666667	2	0.958984375
3243.6474609375	0.00833333333333333	0	-30	-5.91041666666667	2	0.6025390625
3246.314453125	0.00833333333333333	0	-30	-5.91041666666667	1	0.83203125
3249.380859375	0.00833333333333333	0	-30	-5.91041666666667	2	0.701171875
3252.130859375	0.00833333333333333	0	-30	-5.91041666666667	1	0.919921875
3255.5224609375	0.00833333333333333	0	-30	-5.91041666666667	1	0.65625
3258.5634765625	0.00833333333333333	0	-30	-5.91041666666667	1	0.4228515625
3261.005859375	0.00833333333333333	0	-30	-5.91041666666667	2	1.2685546875
3264.6806640625	0.00833333333333333	0	30	9.13333333333333	2	0.8662109375
3267.7216796875	0.00833333333333333	0	30	9.13333333333333	2	0.4892578125
3270.4052734375	0.00833333333333333	0	30	9.13333333333333	1	1.1416015625
3273.9892578125	0.00833333333333333	0	30	9.13333333333333	2	0.60546875
3277.005859375	0.00833333333333333	0	-30	-5.91041666666667	1	0.861328125
3280.0634765625	0.00833333333333333	0	30	9.13333333333333	2	0.66015625
3282.9384765625	0.00833333333333333	0	-30	-5.91041666666667	1	0.865234375
3286.11328125	0.00833333333333333	0	-30	-5.91041666666667	2	0.9697265625
3289.421875	0.00833333333333333	0	30	9.13333333333333	2	0.58203125
3292.3466796875	0.00833333333333333	0	30	9.13333333333333	2	0.5126953125
3295.162109375	0.00833333333333333	0	-30	-5.91041666666667	1	0.9453125
3298.455078125	0.00833333333333333	0	-30	-5.91041666666667	2	0.6123046875
3301.0546875	0.00833333333333333	0	-30	-5.91041666666667	1	0.7412109375
3303.86328125	0.00833333333333333	0	30	9.13333333333333	2	0.484375
3306.705078125	0.00833333333333333	0	30	9.00833333333333	2	0.5546875
3309.587890625	0.00833333333333333	0	-30	-5.91041666666667	1	0.576171875
3312.2294921875	0.00833333333333333	0	30	9.00833333333333	2	0.822265625
3315.087890625	0.00833333333333333	0	30	9.00833333333333	1	0.828125
3318.287109375	0.00833333333333333	0	30	9.00833333333333	2	0.59765625
3320.9130859375	0.00833333333333333	0	-30	-5.91041666666667	2	0.6435546875
3323.921875	0.00833333333333333	0	-30	-5.91041666666667	2	0.5625
3326.9130859375	0.00833333333333333	0	-30	-5.91041666666667	1	1.1953125
3330.212890625	0.00833333333333333	0	-30	-5.91041666666667	1	0.568359375
3333.2548828125	0.00833333333333333	0	-30	-5.91041666666667	1	0.4697265625
3336.2041015625	0.00833333333333333	0	-30	-5.91041666666667	1	0.5693359375
3339.1962890625	0.00833333333333333	0	30	9.00833333333333	2	0.6806640625
3342.212890625	0.00833333333333333	0	30	9.00833333333333	2	0.7119140625
3345.419921875	0.00833333333333333	0	30	9.00833333333333	2	0.625
3348.0380859375	0.00833333333333333	0	30	9.00833333333333	2	0.623046875
3350.646484375	0.00833333333333333	0	30	8.88333333333333	2	0.5673828125
3353.4296875	0.00833333333333333	0	30	8.88333333333333	2	0.84765625
3356.5791015625	0.00833333333333333	0	-30	-5.91041666666667	1	0.6025390625
3359.4375	0.00833333333333333	0	30	8.88333333333333	2	0.6162109375
3374.1376953125	0.00833333333333333	0	30	8.88333333333333	1	13.0927734375
3389.76171875	0.00833333333333333	0	-30	-5.78541666666667	2	0.9970703125
3392.9365234375	0.00833333333333333	0	-30	-5.78541666666667	2	0.837890625
3396.0791015625	0.00833333333333333	0	-30	-5.78541666666667	2	0.744140625
3399.220703125	0.00833333333333333	0	-30	-5.78541666666667	1	0.73828125
3402.12890625	0.00833333333333333	0	-30	-5.78541666666667	1	0.7666015625
3405.1201171875	0.00833333333333333	0	30	8.88333333333333	2	0.5595703125
3407.7705078125	0.00833333333333333	0	-30	-5.78541666666667	1	0.7490234375
3411.01171875	0.00833333333333333	0	30	8.88333333333333	2	0.603515625
3414.01171875	0.00833333333333333	0	-30	-5.78541666666667	2	1.2119140625
3417.287109375	0.00833333333333333	0	30	8.88333333333333	2	0.80859375
3420.4033203125	0.00833333333333333	0	30	8.88333333333333	1	0.5888671875
3423.1689453125	0.00833333333333333	0	-30	-5.78541666666667	2	0.4150390625
3425.927734375	0.00833333333333333	0	30	8.88333333333333	2	0.6318359375
3429.0185546875	0.00833333333333333	0	30	8.88333333333333	2	0.7177734375
3431.9033203125	0.00833333333333333	0	30	8.88333333333333	2	0.80078125
3434.744140625	0.00833333333333333	0	30	8.88333333333333	1	0.9521484375
3438.15234375	0.00833333333333333	0	30	8.88333333333333	1	1.0078125
3441.38671875	0.00833333333333333	0	-30	-5.78541666666667	1	0.7578125
3444.4951171875	0.00833333333333333	0	-30	-5.78541666666667	1	0.6337890625
3447.294921875	0.00833333333333333	0	-30	-5.78541666666667	1	0.76171875
3450.1865234375	0.00833333333333333	0	-30	-5.78541666666667	2	0.7744140625
3453.0361328125	0.00833333333333333	0	30	8.88333333333333	1	0.900390625
3456.236328125	0.00833333333333333	0	-30	-5.78541666666667	1	0.564453125
3458.90234375	0.00833333333333333	0	-30	-5.78541666666667	1	0.5390625
3461.5107421875	0.00833333333333333	0	30	8.88333333333333	1	0.546875
3464.4765625	0.00833333333333333	0	-30	-5.78541666666667	1	0.8525390625
3467.677734375	0.00833333333333333	0	-30	-5.78541666666667	2	0.67578125
3470.552734375	0.00833333333333333	0	30	8.88333333333333	2	0.7841796875
3473.611328125	0.00833333333333333	0	-30	-5.78541666666667	2	0.734375
3476.6689453125	0.00833333333333333	0	30	8.88333333333333	2	0.5966796875
3479.6357421875	0.00833333333333333	0	-30	-5.78541666666667	2	0.734375
3482.4443359375	0.00833333333333333	0	-30	-5.78541666666667	2	1.173828125
3485.91015625	0.00833333333333333	0	30	8.88333333333333	2	0.427734375
3488.5361328125	0.00833333333333333	0	-30	-5.78541666666667	1	0.5615234375
3491.369140625	0.00833333333333333	0	30	8.88333333333333	1	0.77734375
3494.59375	0.00833333333333333	0	-30	-5.78541666666667	2	0.751953125
3497.5849609375	0.00833333333333333	0	-30	-5.78541666666667	1	0.5927734375
3500.2275390625	0.00833333333333333	0	-30	-5.78541666666667	2	0.806640625
3503.5439453125	0.00833333333333333	0	-30	-5.78541666666667	2	0.5947265625
3506.3017578125	0.00833333333333333	0	-30	-5.78541666666667	1	2.0771484375
3510.46875	0.00833333333333333	0	30	8.88333333333333	2	0.7099609375
3513.685546875	0.00833333333333333	0	-30	-5.78541666666667	1	0.7333984375
3516.78515625	0.00833333333333333	0	-30	-5.78541666666667	1	0.609375
3519.634765625	0.00833333333333333	0	-30	-5.78541666666667	1	0.5439453125
3522.376953125	0.00833333333333333	0	-30	-5.78541666666667	1	0.6025390625
3525.193359375	0.00833333333333333	0	30	8.88333333333333	2	0.513671875
3527.8271484375	0.00833333333333333	0	30	8.88333333333333	1	0.927734375
3531.2353515625	0.00833333333333333	0	-30	-5.66041666666667	2	0.9521484375
3534.66015625	0.00833333333333333	0	-30	-5.66041666666667	1	0.86328125
3537.7265625	0.00833333333333333	0	30	8.88333333333333	2	1.029296875
3541.1015625	0.00833333333333333	0	30	8.88333333333333	1	0.7099609375
3544.28515625	0.00833333333333333	0	30	8.88333333333333	2	0.6708984375
3547.0517578125	0.00833333333333333	0	-30	-5.66041666666667	1	0.8798828125
3550.076171875	0.00833333333333333	0	30	8.88333333333333	2	0.6640625
3553.0263671875	0.00833333333333333	0	30	8.88333333333333	2	0.865234375
3556.0927734375	0.00833333333333333	0	30	8.88333333333333	2	0.6708984375
3558.8349609375	0.00833333333333333	0	30	8.88333333333333	2	1.1611328125
3562.4765625	0.00833333333333333	0	30	8.75833333333333	2	0.751953125
3565.734375	0.00833333333333333	0	-30	-5.66041666666667	2	1.013671875
3569.0009765625	0.00833333333333333	0	-30	-5.66041666666667	1	0.755859375
3571.984375	0.00833333333333333	0	30	8.75833333333333	1	0.595703125
3575.017578125	0.00833333333333333	0	30	8.75833333333333	2	0.5634765625
3577.8837890625	0.00833333333333333	0	30	8.75833333333333	2	0.5048828125
3580.642578125	0.00833333333333333	0	-30	-5.66041666666667	2	0.498046875
3583.384765625	0.00833333333333333	0	-30	-5.66041666666667	1	0.8046875
3586.2421875	0.00833333333333333	0	30	8.75833333333333	1	0.787109375
3589.5087890625	0.00833333333333333	0	30	8.75833333333333	2	0.80859375
3592.3759765625	0.00833333333333333	0	-30	-5.66041666666667	2	0.6767578125
3595.083984375	0.00833333333333333	0	-30	-5.66041666666667	1	0.4169921875
3597.6171875	0.00833333333333333	0	30	8.75833333333333	2	0.7158203125
3600.4091796875	0.00833333333333333	0	30	8.75833333333333	1	0.7646484375
3603.400390625	0.00833333333333333	0	-30	-5.66041666666667	1	0.5087890625
3606.0009765625	0.00833333333333333	0	30	8.75833333333333	1	0.6845703125
3608.984375	0.00833333333333333	0	30	8.75833333333333	2	1.109375
3612.158203125	0.00833333333333333	0	30	8.75833333333333	2	0.591796875
3614.8251953125	0.00833333333333333	0	30	8.75833333333333	2	0.548828125
3617.42578125	0.00833333333333333	0	30	8.75833333333333	1	0.6845703125
3620.232421875	0.00833333333333333	0	-30	-5.66041666666667	2	0.853515625
3623.466796875	0.00833333333333333	0	-30	-5.66041666666667	1	0.787109375
3642.3671875	0.00833333333333333	0	-30	-5.66041666666667	2	1.248046875
3646.1416015625	0.00833333333333333	0	-30	-5.66041666666667	2	1.1455078125
3649.6162109375	0.00833333333333333	0	-30	-5.66041666666667	2	0.6787109375
3652.650390625	0.00833333333333333	0	30	8.75833333333333	2	0.701171875
3655.482421875	0.00833333333333333	0	30	8.75833333333333	2	1.060546875
3658.6494140625	0.00833333333333333	0	30	8.75833333333333	2	1.24609375
3662.125	0.00833333333333333	0	-30	-5.66041666666667	1	0.72265625
3665.099609375	0.00833333333333333	0	-30	-5.66041666666667	1	0.603515625
3667.7333984375	0.00833333333333333	0	-30	-5.66041666666667	2	0.6826171875
3670.599609375	0.00833333333333333	0	30	8.75833333333333	2	0.5595703125
3673.25	0.00833333333333333	0	-30	-5.66041666666667	1	0.7333984375
3676.1494140625	0.00833333333333333	0	-30	-5.66041666666667	1	0.6748046875
3679.091796875	0.00833333333333333	0	30	8.75833333333333	2	0.5966796875
3682.0498046875	0.00833333333333333	0	-30	-5.66041666666667	2	1.20703125
3685.3408203125	0.00833333333333333	0	-30	-5.66041666666667	2	0.7392578125
3688.3994140625	0.00833333333333333	0	-30	-5.66041666666667	2	0.9609375
3691.607421875	0.00833333333333333	0	-30	-5.66041666666667	1	0.9453125
3694.7080078125	0.00833333333333333	0	30	8.63333333333333	2	0.6845703125
3697.857421875	0.00833333333333333	0	30	8.63333333333333	2	0.638671875
3700.6162109375	0.00833333333333333	0	30	8.63333333333333	2	1.3447265625
3704.416015625	0.00833333333333333	0	30	8.63333333333333	2	0.728515625
3707.615234375	0.00833333333333333	0	-30	-5.66041666666667	1	0.673828125
3710.33984375	0.00833333333333333	0	30	8.63333333333333	2	0.796875
3713.541015625	0.00833333333333333	0	-30	-5.66041666666667	2	1.1083984375
3717.19921875	0.00833333333333333	0	30	8.50833333333333	1	0.7294921875
3720.1826171875	0.00833333333333333	0	-30	-5.66041666666667	1	0.6904296875
3722.9072265625	0.00833333333333333	0	-30	-5.66041666666667	2	0.677734375
3726.08203125	0.00833333333333333	0	-30	-5.66041666666667	2	0.6796875
3729.1826171875	0.00833333333333333	0	-30	-5.66041666666667	2	0.7705078125
3732.0400390625	0.00833333333333333	0	30	8.50833333333333	2	0.59375
3734.806640625	0.00833333333333333	0	30	8.50833333333333	2	0.70703125
3738.048828125	0.00833333333333333	0	-30	-5.66041666666667	2	0.96875
3741.1396484375	0.00833333333333333	0	30	8.50833333333333	1	0.814453125
3744.4150390625	0.00833333333333333	0	30	8.50833333333333	2	0.802734375
3747.4814453125	0.00833333333333333	0	-30	-5.66041666666667	2	1.064453125
3750.6064453125	0.00833333333333333	0	-30	-5.78541666666667	2	0.7236328125
3753.4072265625	0.00833333333333333	0	-30	-5.78541666666667	2	0.7470703125
3756.3818359375	0.00833333333333333	0	30	8.50833333333333	2	0.876953125
3759.748046875	0.00833333333333333	0	-30	-5.78541666666667	1	0.5830078125
3762.65625	0.00833333333333333	0	30	8.50833333333333	2	0.7626953125
3765.4814453125	0.00833333333333333	0	-30	-5.78541666666667	2	0.9296875
3768.9150390625	0.00833333333333333	0	30	8.50833333333333	2	0.6162109375
3771.83203125	0.00833333333333333	0	-30	-5.78541666666667	2	0.8427734375
3774.84765625	0.00833333333333333	0	30	8.50833333333333	2	0.763671875
3777.931640625	0.00833333333333333	0	-30	-5.78541666666667	1	0.84765625
3781.1142578125	0.00833333333333333	0	-30	-5.78541666666667	1	1.041015625
3784.630859375	0.00833333333333333	0	-30	-5.78541666666667	2	0.7802734375
3787.630859375	0.00833333333333333	0	-30	-5.78541666666667	2	0.6123046875
3790.4052734375	0.00833333333333333	0	30	8.38333333333333	2	1.078125
3793.59765625	0.00833333333333333	0	30	8.38333333333333	2	0.58203125
3796.5224609375	0.00833333333333333	0	30	8.38333333333333	2	0.529296875
3799.2646484375	0.00833333333333333	0	30	8.38333333333333	1	0.931640625
3802.189453125	0.00833333333333333	0	30	8.38333333333333	2	0.5830078125
3804.8974609375	0.00833333333333333	0	30	8.38333333333333	1	0.72265625
3807.8310546875	0.00833333333333333	0	-30	-5.78541666666667	2	0.7890625
3810.6728515625	0.00833333333333333	0	30	8.38333333333333	2	0.69140625
3813.873046875	0.00833333333333333	0	-30	-5.78541666666667	2	0.6513671875
3817.0146484375	0.00833333333333333	0	30	8.38333333333333	2	0.6455078125
3820.0478515625	0.00833333333333333	0	-30	-5.78541666666667	1	0.4130859375
3822.888671875	0.00833333333333333	0	-30	-5.78541666666667	2	0.4521484375
3825.763671875	0.00833333333333333	0	30	8.38333333333333	2	0.9453125
3828.9052734375	0.00833333333333333	0	30	8.38333333333333	1	0.6435546875
3831.7138671875	0.00833333333333333	0	-30	-5.78541666666667	2	0.603515625
3834.638671875	0.00833333333333333	0	30	8.38333333333333	2	1.134765625
3837.7890625	0.00833333333333333	0	30	8.38333333333333	2	0.7119140625
3840.9052734375	0.00833333333333333	0	-30	-5.78541666666667	2	0.6435546875
3843.8720703125	0.00833333333333333	0	30	8.38333333333333	1	1.212890625
3847.5048828125	0.00833333333333333	0	30	8.38333333333333	2	1.1806640625
3850.86328125	0.00833333333333333	0	-30	-5.78541666666667	1	1.22265625
3854.10546875	0.00833333333333333	0	30	8.38333333333333	2	0.7080078125
3856.921875	0.00833333333333333	0	30	8.38333333333333	2	0.7802734375
3859.771484375	0.00833333333333333	0	30	8.38333333333333	1	1.1142578125
3862.921875	0.00833333333333333	0	-30	-5.78541666666667	2	0.7236328125
3865.8798828125	0.00833333333333333	0	-30	-5.78541666666667	2	0.6220703125
3868.8046875	0.00833333333333333	0	30	8.38333333333333	1	0.705078125
3871.7548828125	0.00833333333333333	0	30	8.38333333333333	2	0.515625
3874.654296875	0.00833333333333333	0	-30	-5.78541666666667	2	0.5439453125
3877.6708984375	0.00833333333333333	0	-30	-5.78541666666667	2	0.599609375
3880.6298828125	0.00833333333333333	0	-30	-5.78541666666667	2	0.8564453125
3883.646484375	0.00833333333333333	0	-30	-5.91041666666667	2	1.0400390625
3900.271484375	0.00833333333333333	0	-30	-5.91041666666667	2	1.1357421875
3903.904296875	0.00833333333333333	0	-30	-5.91041666666667	2	1.447265625
3907.7041015625	0.00833333333333333	0	-30	-5.91041666666667	2	0.783203125
3910.720703125	0.00833333333333333	0	-30	-5.91041666666667	2	0.6953125
3913.8046875	0.00833333333333333	0	-30	-6.03541666666667	2	0.6826171875
3917.029296875	0.00833333333333333	0	30	8.38333333333333	2	1.234375
3920.5791015625	0.00833333333333333	0	30	8.38333333333333	2	0.708984375
3923.3544921875	0.00833333333333333	0	30	8.38333333333333	2	1.0693359375
3926.74609375	0.00833333333333333	0	30	8.38333333333333	2	0.9736328125
3930.00390625	0.00833333333333333	0	-30	-6.03541666666667	2	1.0439453125
3933.154296875	0.00833333333333333	0	30	8.25833333333333	2	0.7421875
3936.0791015625	0.00833333333333333	0	-30	-6.03541666666667	2	0.609375
3938.99609375	0.00833333333333333	0	-30	-6.03541666666667	2	0.587890625
3941.8701171875	0.00833333333333333	0	-30	-6.03541666666667	1	0.90625
3945.0693359375	0.00833333333333333	0	30	8.25833333333333	2	0.5634765625
3947.87890625	0.00833333333333333	0	-30	-6.03541666666667	1	1.025390625
3951.3876953125	0.00833333333333333	0	30	8.25833333333333	2	0.724609375
3954.611328125	0.00833333333333333	0	-30	-6.03541666666667	2	0.9658203125
3957.9453125	0.00833333333333333	0	30	8.25833333333333	2	0.455078125
3960.8291015625	0.00833333333333333	0	-30	-6.03541666666667	1	1.244140625
3964.5703125	0.00833333333333333	0	-30	-6.03541666666667	1	0.646484375
3967.720703125	0.00833333333333333	0	30	8.25833333333333	2	0.5849609375
3970.669921875	0.00833333333333333	0	-30	-6.03541666666667	1	0.7392578125
3973.4365234375	0.00833333333333333	0	30	8.13333333333333	2	0.96484375
3976.919921875	0.00833333333333333	0	30	8.13333333333333	2	0.697265625
3980.044921875	0.00833333333333333	0	-30	-6.03541666666667	2	0.8203125
3983.111328125	0.00833333333333333	0	-30	-6.03541666666667	2	0.7705078125
3985.9521484375	0.00833333333333333	0	-30	-6.03541666666667	2	1.0107421875
3989.4111328125	0.00833333333333333	0	-30	-6.03541666666667	1	0.5751953125
3992.1865234375	0.00833333333333333	0	30	8.13333333333333	2	0.5830078125
3995.251953125	0.00833333333333333	0	-30	-6.03541666666667	1	0.7822265625
3998.1533203125	0.00833333333333333	0	-30	-6.03541666666667	2	0.6171875
4000.8369140625	0.00833333333333333	0	-30	-6.03541666666667	2	0.693359375
4003.853515625	0.00833333333333333	0	30	8.13333333333333	2	0.564453125
4006.7353515625	0.00833333333333333	0	-30	-6.03541666666667	2	1.107421875
4010.1357421875	0.00833333333333333	0	30	8.13333333333333	2	0.626953125
4013.203125	0.00833333333333333	0	30	8.00833333333333	2	0.6318359375
4015.8935546875	0.00833333333333333	0	-30	-6.03541666666667	1	0.8857421875
4019.1201171875	0.00833333333333333	0	30	8.00833333333333	1	0.8828125
4022.119140625	0.00833333333333333	0	30	8.00833333333333	2	0.5400390625
4024.96875	0.00833333333333333	0	30	8.00833333333333	2	0.658203125
4027.8857421875	0.00833333333333333	0	30	8.00833333333333	1	0.7578125
4030.90234375	0.00833333333333333	0	-30	-6.03541666666667	2	0.7724609375
4034.01953125	0.00833333333333333	0	30	8.00833333333333	1	1.2236328125
4037.27734375	0.00833333333333333	0	30	8.00833333333333	2	0.6298828125
4040.27734375	0.00833333333333333	0	-30	-6.03541666666667	2	0.6142578125
4043.40234375	0.00833333333333333	0	-30	-6.03541666666667	1	0.8330078125
4046.369140625	0.00833333333333333	0	30	8.00833333333333	2	0.5068359375
4049.0361328125	0.00833333333333333	0	30	8.00833333333333	2	0.84765625
4052.4111328125	0.00833333333333333	0	-30	-6.03541666666667	2	0.45703125
4055.15234375	0.00833333333333333	0	30	8.00833333333333	2	0.6435546875
4058.244140625	0.00833333333333333	0	30	8.00833333333333	2	0.5361328125
4061.2109375	0.00833333333333333	0	30	7.88333333333333	2	0.5849609375
4064.0107421875	0.00833333333333333	0	-30	-6.03541666666667	2	0.5693359375
4067.0439453125	0.00833333333333333	0	-30	-6.03541666666667	1	0.6484375
4070.16015625	0.00833333333333333	0	30	7.88333333333333	2	0.580078125
4073.0771484375	0.00833333333333333	0	30	7.88333333333333	2	0.5673828125
4076.1103515625	0.00833333333333333	0	30	7.88333333333333	2	0.669921875
4078.9521484375	0.00833333333333333	0	30	7.88333333333333	2	0.6611328125
4081.7685546875	0.00833333333333333	0	30	7.75833333333333	2	0.6767578125
4084.6103515625	0.00833333333333333	0	30	7.75833333333333	1	0.6826171875
4087.810546875	0.00833333333333333	0	-30	-6.03541666666667	2	0.642578125
4090.634765625	0.00833333333333333	0	30	7.75833333333333	2	1.130859375
4093.8681640625	0.00833333333333333	0	30	7.75833333333333	2	0.6650390625
4096.7431640625	0.00833333333333333	0	-30	-6.03541666666667	1	0.6376953125
4099.79296875	0.00833333333333333	0	30	7.75833333333333	2	0.8525390625
4102.951171875	0.00833333333333333	0	-30	-6.03541666666667	1	0.87890625
4106.1845703125	0.00833333333333333	0	-30	-6.03541666666667	1	0.7412109375
4109.3515625	0.00833333333333333	0	-30	-6.03541666666667	1	0.806640625
4112.5927734375	0.00833333333333333	0	30	7.75833333333333	1	1.197265625
4115.9345703125	0.00833333333333333	0	-30	-6.03541666666667	2	0.8076171875
4118.8935546875	0.00833333333333333	0	-30	-6.03541666666667	2	0.880859375
4122.03515625	0.00833333333333333	0	-30	-6.03541666666667	1	0.8671875
4124.943359375	0.00833333333333333	0	30	7.75833333333333	2	0.6064453125
4127.7763671875	0.00833333333333333	0	30	7.75833333333333	1	0.5263671875
4130.5009765625	0.00833333333333333	0	-30	-6.03541666666667	2	1.001953125
4133.92578125	0.00833333333333333	0	-30	-6.03541666666667	1	1.1044921875
4137.509765625	0.00833333333333333	0	-30	-6.03541666666667	2	0.4970703125
4140.451171875	0.00833333333333333	0	30	7.75833333333333	1	1.0517578125
4143.7255859375	0.00833333333333333	0	-30	-6.03541666666667	1	0.7294921875
4156.6083984375	0.00833333333333333	0	30	7.75833333333333	2	2.0546875
4160.9423828125	0.00833333333333333	0	-30	-6.03541666666667	2	0.888671875
4163.8837890625	0.00833333333333333	0	-30	-6.03541666666667	2	0.69140625
4166.7919921875	0.00833333333333333	0	-30	-6.03541666666667	2	0.951171875
4170.0009765625	0.00833333333333333	0	30	7.75833333333333	2	0.798828125
4172.9169921875	0.00833333333333333	0	-30	-6.03541666666667	2	0.9072265625
4176.1923828125	0.00833333333333333	0	-30	-6.03541666666667	1	1.0634765625
4179.8095703125	0.00833333333333333	0	30	7.75833333333333	2	0.7099609375
4183	0.00833333333333333	0	30	7.75833333333333	1	0.9677734375
4186.0166015625	0.00833333333333333	0	-30	-6.03541666666667	1	1.0556640625
4189.30859375	0.00833333333333333	0	30	7.75833333333333	2	0.603515625
4192.150390625	0.00833333333333333	0	30	7.75833333333333	2	0.8818359375
4195.0908203125	0.00833333333333333	0	-30	-6.03541666666667	1	0.853515625
4197.9248046875	0.00833333333333333	0	30	7.75833333333333	1	0.771484375
4201.2001953125	0.00833333333333333	0	-30	-6.03541666666667	2	0.6962890625
4204.025390625	0.00833333333333333	0	-30	-6.03541666666667	1	0.8310546875
4207.275390625	0.00833333333333333	0	-30	-6.03541666666667	2	0.501953125
4210.1416015625	0.00833333333333333	0	30	7.75833333333333	1	0.4990234375
4212.7421875	0.00833333333333333	0	-30	-6.03541666666667	2	0.794921875
4215.69921875	0.00833333333333333	0	-30	-6.03541666666667	1	0.59765625
4218.591796875	0.00833333333333333	0	30	7.75833333333333	2	0.6416015625
4221.58203125	0.00833333333333333	0	30	7.75833333333333	2	0.6357421875
4224.6669921875	0.00833333333333333	0	30	7.75833333333333	2	1.0224609375
4227.7080078125	0.00833333333333333	0	-30	-6.03541666666667	1	1.09375
4230.923828125	0.00833333333333333	0	30	7.75833333333333	2	0.91015625
4233.94921875	0.00833333333333333	0	30	7.75833333333333	2	0.6767578125
4236.658203125	0.00833333333333333	0	-30	-6.03541666666667	1	0.8486328125
4239.7998046875	0.00833333333333333	0	-30	-6.03541666666667	1	0.8662109375
4242.875	0.00833333333333333	0	-30	-6.03541666666667	1	0.775390625
4245.8076171875	0.00833333333333333	0	30	7.63333333333333	2	0.666015625
4248.6572265625	0.00833333333333333	0	30	7.63333333333333	2	0.5849609375
4251.57421875	0.00833333333333333	0	30	7.63333333333333	2	0.66796875
4254.3818359375	0.00833333333333333	0	-30	-5.91041666666667	2	0.708984375
4257.6240234375	0.00833333333333333	0	30	7.63333333333333	2	0.74609375
4260.8076171875	0.00833333333333333	0	30	7.63333333333333	2	0.771484375
4263.974609375	0.00833333333333333	0	-30	-5.91041666666667	2	1.5556640625
4267.666015625	0.00833333333333333	0	-30	-5.91041666666667	2	0.953125
4270.849609375	0.00833333333333333	0	-30	-5.91041666666667	2	0.9130859375
4273.974609375	0.00833333333333333	0	30	7.50833333333333	2	0.66015625
4276.7490234375	0.00833333333333333	0	-30	-5.91041666666667	2	1.1025390625
4280.3076171875	0.00833333333333333	0	-30	-6.03541666666667	1	0.8076171875
4283.3486328125	0.00833333333333333	0	30	7.50833333333333	2	0.8623046875
4286.5322265625	0.00833333333333333	0	-30	-6.03541666666667	2	0.7587890625
4289.490234375	0.00833333333333333	0	-30	-6.03541666666667	1	0.7529296875
4292.3154296875	0.00833333333333333	0	-30	-6.03541666666667	1	0.7041015625
4295.515625	0.00833333333333333	0	-30	-6.03541666666667	2	0.5595703125
4298.357421875	0.00833333333333333	0	30	7.50833333333333	1	1.158203125
4301.83203125	0.00833333333333333	0	30	7.50833333333333	2	0.771484375
4305.0234375	0.00833333333333333	0	-30	-6.03541666666667	1	0.6767578125
4308.048828125	0.00833333333333333	0	30	7.50833333333333	2	0.6591796875
4311.1484375	0.00833333333333333	0	30	7.50833333333333	2	1.015625
4314.4736328125	0.00833333333333333	0	30	7.50833333333333	2	0.70703125
4317.33984375	0.00833333333333333	0	-30	-6.03541666666667	2	0.6328125
4320.28125	0.00833333333333333	0	30	7.50833333333333	2	0.53125
4322.90625	0.00833333333333333	0	-30	-6.03541666666667	2	0.6982421875
4325.7646484375	0.00833333333333333	0	-30	-6.03541666666667	1	0.583984375
4328.3564453125	0.00833333333333333	0	30	7.38333333333333	2	0.4560546875
4331.240234375	0.00833333333333333	0	30	7.38333333333333	2	0.62890625
4334.2900390625	0.00833333333333333	0	-30	-6.03541666666667	2	0.4990234375
4336.9736328125	0.00833333333333333	0	30	7.38333333333333	1	0.5830078125
4340.0068359375	0.00833333333333333	0	-30	-6.03541666666667	2	0.486328125
4342.7314453125	0.00833333333333333	0	30	7.38333333333333	2	0.4814453125
4345.572265625	0.00833333333333333	0	-30	-6.03541666666667	1	0.537109375
4348.240234375	0.00833333333333333	0	-30	-6.03541666666667	1	0.5576171875
4351.3310546875	0.00833333333333333	0	30	7.38333333333333	1	1.3466796875
4355.03125	0.00833333333333333	0	30	7.38333333333333	2	0.654296875
4358.072265625	0.00833333333333333	0	-30	-6.03541666666667	1	0.7255859375
4360.84765625	0.00833333333333333	0	-30	-6.03541666666667	2	0.486328125
4363.6806640625	0.00833333333333333	0	30	7.38333333333333	1	0.6376953125
4366.71484375	0.00833333333333333	0	30	7.38333333333333	2	0.3955078125
4369.6640625	0.00833333333333333	0	30	7.38333333333333	2	0.3583984375
4372.123046875	0.00833333333333333	0	-30	-6.03541666666667	2	0.802734375
4375.4560546875	0.00833333333333333	0	-30	-6.03541666666667	1	0.4306640625
4378.248046875	0.00833333333333333	0	30	7.38333333333333	2	0.478515625
4381.09765625	0.00833333333333333	0	30	7.38333333333333	2	0.373046875
4383.8642578125	0.00833333333333333	0	-30	-6.03541666666667	2	0.2705078125
4386.3974609375	0.00833333333333333	0	30	7.38333333333333	2	1.0810546875
4389.8056640625	0.00833333333333333	0	30	7.25833333333333	1	0.7373046875
4393.0888671875	0.00833333333333333	0	-30	-6.03541666666667	2	1.0224609375
4396.2060546875	0.00833333333333333	0	-30	-6.03541666666667	1	0.9375
