onset	duration	titr	surround	centre	response	rt
71.5166015625	0.00833333333333333	1	NaN	-15	1	1.6708984375
75.5498046875	0.00833333333333333	1	-30	15	2	0.7578125
78.7578125	0.00833333333333333	1	-30	14	2	0.56640625
81.3740234375	0.00833333333333333	1	-30	-15	2	1.4375
84.974609375	0.00833333333333333	1	-30	13	2	0.533203125
87.6328125	0.00833333333333333	1	-30	-16	1	0.970703125
90.7490234375	0.00833333333333333	1	30	-15	1	0.55859375
93.623046875	0.00833333333333333	1	NaN	-14	1	0.4765625
96.0908203125	0.00833333333333333	1	NaN	-13	1	0.6728515625
98.8408203125	0.00833333333333333	1	NaN	-12	1	1.099609375
102.32421875	0.00833333333333333	1	-30	12	2	0.728515625
105.33203125	0.00833333333333333	1	30	-14	1	0.6083984375
108.33203125	0.00833333333333333	1	30	-13	1	0.6572265625
111.015625	0.00833333333333333	1	30	-12	1	0.7890625
114.2978515625	0.00833333333333333	1	NaN	-11	1	0.7158203125
117.33203125	0.00833333333333333	1	-30	-15	1	0.9931640625
120.5400390625	0.00833333333333333	1	30	15	2	0.75390625
123.615234375	0.00833333333333333	1	30	-11	1	0.7421875
126.58984375	0.00833333333333333	1	NaN	15	2	0.8798828125
129.5732421875	0.00833333333333333	1	30	14	2	0.9921875
132.7900390625	0.00833333333333333	1	-30	11	2	0.5361328125
135.6650390625	0.00833333333333333	1	30	-10	1	0.62109375
138.556640625	0.00833333333333333	1	-30	-14	2	0.8251953125
141.6904296875	0.00833333333333333	1	NaN	-10	1	0.619140625
144.7734375	0.00833333333333333	1	-30	-15	1	0.6728515625
147.5390625	0.00833333333333333	1	-30	-14	1	0.7314453125
150.65625	0.00833333333333333	1	NaN	14	2	0.7099609375
153.6484375	0.00833333333333333	1	NaN	-9	1	0.5732421875
156.564453125	0.00833333333333333	1	-30	10	2	0.5537109375
159.5732421875	0.00833333333333333	1	NaN	13	2	0.705078125
162.814453125	0.00833333333333333	1	-30	9	2	0.6240234375
165.5146484375	0.00833333333333333	1	30	13	2	0.740234375
168.4716796875	0.00833333333333333	1	30	12	2	1.111328125
171.7392578125	0.00833333333333333	1	-30	8	2	0.5556640625
174.3974609375	0.00833333333333333	1	-30	-13	2	1.3291015625
177.9814453125	0.00833333333333333	1	NaN	12	2	0.6572265625
181.22265625	0.00833333333333333	1	NaN	-8	1	0.8330078125
184.3642578125	0.00833333333333333	1	NaN	11	2	0.787109375
187.630859375	0.00833333333333333	1	30	-9	1	0.6240234375
190.755859375	0.00833333333333333	1	30	11	2	0.8115234375
193.99609375	0.00833333333333333	1	NaN	10	2	0.619140625
196.6474609375	0.00833333333333333	1	-30	7	2	0.671875
199.5478515625	0.00833333333333333	1	NaN	-7	2	1.107421875
203.0546875	0.00833333333333333	1	-30	6	2	0.7607421875
206.189453125	0.00833333333333333	1	-30	5	2	0.5068359375
209.072265625	0.00833333333333333	1	NaN	9	2	0.51953125
211.7138671875	0.00833333333333333	1	-30	-14	2	0.669921875
214.755859375	0.00833333333333333	1	-30	4	2	0.5244140625
217.5556640625	0.00833333333333333	1	30	-8	1	0.580078125
220.60546875	0.00833333333333333	1	30	10	2	0.875
223.5390625	0.00833333333333333	1	NaN	-8	1	0.7412109375
226.6884765625	0.00833333333333333	1	30	9	2	1.015625
229.98046875	0.00833333333333333	1	NaN	-7	1	1.1240234375
233.138671875	0.00833333333333333	1	NaN	-6	1	0.7578125
235.9384765625	0.00833333333333333	1	30	8	2	1.1103515625
239.2216796875	0.00833333333333333	1	-30	-15	1	0.8193359375
242.5634765625	0.00833333333333333	1	-30	3	2	0.701171875
245.4970703125	0.00833333333333333	1	30	-7	1	0.6884765625
248.1796875	0.00833333333333333	1	30	-6	1	0.8291015625
251.138671875	0.00833333333333333	1	-30	-14	1	0.9580078125
254.1796875	0.00833333333333333	1	NaN	8	2	0.91015625
257.37109375	0.00833333333333333	1	30	-5	1	0.6943359375
260.2041015625	0.00833333333333333	1	30	7	1	0.8212890625
263.3876953125	0.00833333333333333	1	-30	2	2	0.6298828125
266.2548828125	0.00833333333333333	1	30	8	2	0.8349609375
269.1455078125	0.00833333333333333	1	-30	-13	2	1.0078125
272.37109375	0.00833333333333333	1	30	7	1	0.90234375
275.279296875	0.00833333333333333	1	-30	1	2	0.802734375
278.4462890625	0.00833333333333333	1	-30	0	2	0.748046875
281.2880859375	0.00833333333333333	1	30	8	1	0.6826171875
284.0869140625	0.00833333333333333	1	-30	-14	1	0.6513671875
286.779296875	0.00833333333333333	1	-30	-1	2	0.6787109375
289.720703125	0.00833333333333333	1	30	-4	1	0.5615234375
292.4873046875	0.00833333333333333	1	30	-3	1	0.619140625
295.1796875	0.00833333333333333	1	30	-2	1	0.53515625
298.12890625	0.00833333333333333	1	30	-1	1	0.681640625
301.2861328125	0.00833333333333333	1	30	9	1	0.5810546875
304.1953125	0.00833333333333333	1	NaN	-5	1	0.7197265625
307.037109375	0.00833333333333333	1	NaN	-4	1	1.1904296875
310.3037109375	0.00833333333333333	1	-30	-2	2	0.9716796875
313.478515625	0.00833333333333333	1	-30	-3	2	0.9248046875
316.8955078125	0.00833333333333333	1	30	10	2	0.771484375
319.9365234375	0.00833333333333333	1	NaN	-3	2	1.130859375
323.1376953125	0.00833333333333333	1	NaN	7	2	0.59375
326.037109375	0.00833333333333333	1	-30	-13	2	0.7587890625
329.162109375	0.00833333333333333	1	NaN	-4	1	1.0732421875
332.5859375	0.00833333333333333	1	-30	-4	2	0.8662109375
335.5625	0.00833333333333333	1	30	9	2	1.001953125
338.6953125	0.00833333333333333	1	30	8	2	1.1728515625
342.26171875	0.00833333333333333	1	30	7	2	0.89453125
345.6787109375	0.00833333333333333	1	30	6	2	1.0458984375
349.0107421875	0.00833333333333333	1	NaN	6	2	0.75390625
352.27734375	0.00833333333333333	1	NaN	-3	2	1.1748046875
355.8779296875	0.00833333333333333	1	30	0	1	0.7265625
359.0029296875	0.00833333333333333	1	NaN	-4	1	0.6416015625
361.8701171875	0.00833333333333333	1	NaN	5	2	0.51953125
364.4619140625	0.00833333333333333	1	30	5	2	0.6865234375
367.2607421875	0.00833333333333333	1	NaN	-3	1	1.1044921875
370.5537109375	0.00833333333333333	1	30	1	1	0.70703125
392.8857421875	0.00833333333333333	1	30	2	1	0.7919921875
395.919921875	0.00833333333333333	1	30	4	1	0.8935546875
399.0947265625	0.00833333333333333	1	30	5	1	0.6552734375
401.794921875	0.00833333333333333	1	30	3	1	0.634765625
404.744140625	0.00833333333333333	1	-30	-14	1	0.669921875
407.4189453125	0.00833333333333333	1	-30	-5	2	0.6513671875
410.3271484375	0.00833333333333333	1	30	6	2	0.775390625
413.41796875	0.00833333333333333	1	30	5	1	0.5166015625
416.34375	0.00833333333333333	1	NaN	-2	1	0.5986328125
419.3095703125	0.00833333333333333	1	-30	-13	1	0.6171875
421.9111328125	0.00833333333333333	1	NaN	-1	2	0.775390625
424.8427734375	0.00833333333333333	1	-30	-6	2	0.587890625
427.6845703125	0.00833333333333333	1	30	6	2	0.6103515625
430.6259765625	0.00833333333333333	1	NaN	-2	2	0.5009765625
433.517578125	0.00833333333333333	1	-30	-12	2	0.59375
436.4765625	0.00833333333333333	1	30	4	1	0.546875
439.54296875	0.00833333333333333	1	30	5	1	0.5126953125
442.126953125	0.00833333333333333	1	NaN	-3	2	0.552734375
444.7099609375	0.00833333333333333	1	NaN	4	2	0.4814453125
447.2353515625	0.00833333333333333	1	-30	-7	2	0.5166015625
449.9931640625	0.00833333333333333	1	30	6	2	0.5185546875
452.54296875	0.00833333333333333	1	-30	-8	2	0.5771484375
455.3505859375	0.00833333333333333	1	30	5	2	0.5615234375
458.0341796875	0.00833333333333333	1	NaN	-4	1	0.6376953125
460.7177734375	0.00833333333333333	1	NaN	-3	1	0.5224609375
463.400390625	0.00833333333333333	1	-30	-9	2	0.912109375
466.4423828125	0.00833333333333333	1	NaN	3	2	0.5419921875
469.150390625	0.00833333333333333	1	NaN	-2	2	0.5615234375
472.025390625	0.00833333333333333	1	NaN	-3	2	0.54296875
474.80078125	0.00833333333333333	1	30	4	1	0.6962890625
477.9677734375	0.00833333333333333	1	NaN	2	2	0.4482421875
480.583984375	0.00833333333333333	1	NaN	1	2	0.568359375
483.466796875	0.00833333333333333	1	NaN	0	2	0.5341796875
486.3583984375	0.00833333333333333	1	30	5	2	1.162109375
489.708984375	0.00833333333333333	1	-30	-10	2	0.7080078125
492.650390625	0.00833333333333333	1	30	4	2	1.310546875
496.05859375	0.00833333333333333	1	NaN	-1	2	1.3505859375
499.8173828125	0.00833333333333333	1	NaN	-2	2	1.1201171875
503.2919921875	0.00833333333333333	1	NaN	-4	1	1.125
506.833984375	0.00833333333333333	1	NaN	-3	1	0.615234375
509.775390625	0.00833333333333333	1	30	3	1	0.73828125
512.5419921875	0.00833333333333333	1	-30	-11	1	0.8193359375
515.56640625	0.00833333333333333	1	-30	-10	2	1.0673828125
519	0.00833333333333333	1	-30	-11	1	1.0576171875
522.408203125	0.00833333333333333	1	30	4	1	0.9775390625
525.400390625	0.00833333333333333	1	NaN	-2	2	0.9775390625
528.7412109375	0.00833333333333333	1	30	5	1	1.220703125
532.3662109375	0.00833333333333333	1	30	6	2	0.65234375
535.408203125	0.00833333333333333	1	-30	-10	2	0.59375
538.3251953125	0.00833333333333333	1	NaN	-3	1	0.6689453125
541.099609375	0.00833333333333333	1	NaN	-2	2	0.53515625
543.7412109375	0.00833333333333333	1	-30	-11	2	0.533203125
546.392578125	0.00833333333333333	1	30	5	1	0.658203125
549.2509765625	0.00833333333333333	1	NaN	-3	1	1.1357421875
552.482421875	0.00833333333333333	1	-30	-12	2	1.224609375
555.8994140625	0.00833333333333333	1	-30	-13	1	0.6953125
559.033203125	0.00833333333333333	1	30	6	2	0.6103515625
561.7998046875	0.00833333333333333	1	-30	-12	1	0.8193359375
564.6240234375	0.00833333333333333	1	30	5	1	0.6435546875
567.5908203125	0.00833333333333333	1	30	6	1	0.740234375
570.798828125	0.00833333333333333	1	-30	-11	2	0.65234375
573.5908203125	0.00833333333333333	1	30	7	2	0.6123046875
576.6904296875	0.00833333333333333	1	-30	-12	1	0.78515625
579.673828125	0.00833333333333333	1	NaN	-2	2	0.73828125
582.8994140625	0.00833333333333333	1	30	6	2	0.576171875
585.7744140625	0.00833333333333333	1	-30	-11	1	0.7578125
588.82421875	0.00833333333333333	1	NaN	-3	1	0.939453125
591.83203125	0.00833333333333333	1	NaN	-2	2	0.572265625
594.732421875	0.00833333333333333	1	-30	-10	2	0.744140625
597.70703125	0.00833333333333333	1	-30	-11	1	0.712890625
600.673828125	0.00833333333333333	1	NaN	-3	2	0.7783203125
603.82421875	0.00833333333333333	1	30	5	1	0.740234375
606.6494140625	0.00833333333333333	1	-30	-10	1	0.947265625
609.673828125	0.00833333333333333	1	NaN	-4	2	1.0029296875
613.07421875	0.00833333333333333	1	NaN	-5	1	0.6748046875
615.9150390625	0.00833333333333333	1	NaN	-4	1	0.673828125
618.548828125	0.00833333333333333	1	-30	-9	2	0.888671875
621.7490234375	0.00833333333333333	1	NaN	-3	2	1.0322265625
624.982421875	0.00833333333333333	1	NaN	-2.5	1	0.7587890625
627.7568359375	0.00833333333333333	1	30	5	2	0.9287109375
631.1904296875	0.00833333333333333	1	30	4.875	1	0.9111328125
634.1484375	0.00833333333333333	1	NaN	-2.375	1	0.79296875
637.3564453125	0.00833333333333333	1	-30	-11.75	1	0.80078125
640.623046875	0.00833333333333333	1	-30	-11.625	2	1.0947265625
644.1064453125	0.00833333333333333	1	NaN	-3.5	1	0.787109375
647.115234375	0.00833333333333333	1	30	6	1	0.6103515625
649.9482421875	0.00833333333333333	1	-30	-12.75	1	0.7216796875
652.990234375	0.00833333333333333	1	NaN	-2.25	1	0.5439453125
655.990234375	0.00833333333333333	1	-30	-12.625	1	0.591796875
658.689453125	0.00833333333333333	1	NaN	-3.375	1	0.63671875
661.5400390625	0.00833333333333333	1	30	5	1	0.5859375
664.28125	0.00833333333333333	1	-30	-11.75	1	0.6611328125
667.248046875	0.00833333333333333	1	NaN	-3.25	1	0.5029296875
670.056640625	0.00833333333333333	1	-30	-11.625	1	0.58203125
672.83984375	0.00833333333333333	1	NaN	-2.125	2	0.7353515625
675.97265625	0.00833333333333333	1	30	5.125	1	1.0263671875
679.1064453125	0.00833333333333333	1	NaN	-2.25	2	0.4599609375
681.7060546875	0.00833333333333333	1	-30	-12.5	2	0.9091796875
685.0810546875	0.00833333333333333	1	NaN	-2.375	2	0.7822265625
688.0390625	0.00833333333333333	1	-30	-11.5	1	1.1279296875
691.2978515625	0.00833333333333333	1	-30	-12.625	1	0.7490234375
732.4638671875	0.00833333333333333	1	NaN	-3.125	1	30.185546875
765.0966796875	0.00833333333333333	1	-30	-12.5	1	0.9931640625
768.1376953125	0.00833333333333333	1	NaN	-3	2	0.896484375
771.1552734375	0.00833333333333333	1	30	6.125	2	1.0224609375
774.4384765625	0.00833333333333333	1	-30	-11.375	2	1.01953125
777.5126953125	0.00833333333333333	1	30	6	1	0.9453125
780.779296875	0.00833333333333333	1	NaN	-2.5	2	1.03125
783.7626953125	0.00833333333333333	1	30	5.25	2	0.9521484375
787.1630859375	0.00833333333333333	1	30	6.125	2	0.8876953125
790.0126953125	0.00833333333333333	1	NaN	-3.125	1	1.0458984375
793.0458984375	0.00833333333333333	1	NaN	-3	1	0.685546875
795.9794921875	0.00833333333333333	1	30	5.125	1	0.8076171875
798.9541015625	0.00833333333333333	1	30	6	2	0.6650390625
801.8544921875	0.00833333333333333	1	-30	-12.375	1	0.63671875
804.962890625	0.00833333333333333	1	30	5.25	1	0.6484375
807.6123046875	0.00833333333333333	1	NaN	-2.875	2	0.90234375
810.6796875	0.00833333333333333	1	-30	-12.25	1	0.7958984375
813.5126953125	0.00833333333333333	1	30	5.375	1	0.658203125
816.1953125	0.00833333333333333	1	-30	-12.125	1	0.5205078125
819.1875	0.00833333333333333	1	30	5.5	1	0.50390625
821.8369140625	0.00833333333333333	1	NaN	-3	1	0.4462890625
824.2958984375	0.00833333333333333	1	NaN	-2.625	1	0.5078125
827.0205078125	0.00833333333333333	1	30	5.625	1	0.599609375
829.9208984375	0.00833333333333333	1	NaN	-2.875	1	0.4423828125
832.478515625	0.00833333333333333	1	-30	-12	1	0.509765625
835.3701171875	0.00833333333333333	1	NaN	-2.5	1	0.5859375
838.3623046875	0.00833333333333333	1	-30	-11.875	1	0.6181640625
841.4619140625	0.00833333333333333	1	-30	-11.5	1	0.7099609375
844.478515625	0.00833333333333333	1	NaN	-2.375	1	0.7900390625
847.6787109375	0.00833333333333333	1	NaN	-2.75	1	0.7978515625
850.6201171875	0.00833333333333333	1	NaN	-2.25	1	0.48828125
853.203125	0.00833333333333333	1	30	5.875	1	0.6572265625
855.9619140625	0.00833333333333333	1	-30	-11.375	1	0.72265625
858.7705078125	0.00833333333333333	1	NaN	-2.125	1	0.39453125
861.703125	0.00833333333333333	1	-30	-11.25	1	0.4853515625
864.3955078125	0.00833333333333333	1	-30	-11.75	1	0.513671875
867.3447265625	0.00833333333333333	1	-30	-11.125	1	0.580078125
870.4287109375	0.00833333333333333	1	30	5.75	1	0.640625
873.4794921875	0.00833333333333333	1	-30	-11	1	0.509765625
876.4111328125	0.00833333333333333	1	30	6	1	0.482421875
879.00390625	0.00833333333333333	1	NaN	-2.625	1	0.4658203125
881.7041015625	0.00833333333333333	1	NaN	-2.5	1	0.4375
884.228515625	0.00833333333333333	1	-30	-10.875	1	0.4091796875
887.01953125	0.00833333333333333	1	NaN	-2.375	1	0.5224609375
889.6201171875	0.00833333333333333	1	30	6.125	1	0.521484375
892.578125	0.00833333333333333	1	NaN	-2	1	0.29296875
895.3193359375	0.00833333333333333	1	-30	-10.75	1	0.462890625
898.26953125	0.00833333333333333	1	30	6.25	1	0.369140625
901.0947265625	0.00833333333333333	1	-30	-11.625	1	0.3671875
903.544921875	0.00833333333333333	1	30	5.875	1	0.4775390625
906.169921875	0.00833333333333333	1	-30	-11.5	1	0.46875
908.6865234375	0.00833333333333333	1	NaN	-1.875	1	0.51171875
911.5107421875	0.00833333333333333	1	-30	-11.375	1	0.3359375
913.986328125	0.00833333333333333	1	30	6	1	1.8125
917.994140625	0.00833333333333333	1	-30	-10.625	1	0.65234375
921.0107421875	0.00833333333333333	1	30	6.125	1	0.7880859375
924.2861328125	0.00833333333333333	1	-30	-10.5	2	0.904296875
927.6025390625	0.00833333333333333	1	30	6.25	2	1.0283203125
930.64453125	0.00833333333333333	1	-30	-11.25	2	0.7861328125
933.8271484375	0.00833333333333333	1	-30	-10.625	1	0.7724609375
936.552734375	0.00833333333333333	1	-30	-11.375	2	0.9111328125
939.4853515625	0.00833333333333333	1	NaN	-1.75	2	0.6181640625
942.4521484375	0.00833333333333333	1	30	6.125	2	0.875
945.7607421875	0.00833333333333333	1	-30	-10.5	2	0.791015625
949.060546875	0.00833333333333333	1	NaN	-2.25	2	0.603515625
952.0517578125	0.00833333333333333	1	NaN	-2.375	2	0.4765625
954.5517578125	0.00833333333333333	1	NaN	-1.875	2	0.4716796875
957.16015625	0.00833333333333333	1	-30	-10.625	2	0.5439453125
959.8935546875	0.00833333333333333	1	30	6.375	2	0.505859375
962.77734375	0.00833333333333333	1	-30	-11.5	2	0.56640625
965.810546875	0.00833333333333333	1	NaN	-2.5	2	0.4619140625
968.4267578125	0.00833333333333333	1	-30	-11.625	2	0.685546875
971.28515625	0.00833333333333333	1	30	6.25	2	0.458984375
974.1103515625	0.00833333333333333	1	30	6	1	0.658203125
976.96875	0.00833333333333333	1	NaN	-2	2	0.6318359375
979.876953125	0.00833333333333333	1	30	6.125	2	0.6201171875
982.91015625	0.00833333333333333	1	NaN	-2.125	2	0.458984375
985.4013671875	0.00833333333333333	1	NaN	-2.625	2	0.5439453125
988.3349609375	0.00833333333333333	1	30	6.125	1	0.650390625
991.0185546875	0.00833333333333333	1	NaN	-2.25	2	0.6064453125
993.9931640625	0.00833333333333333	1	-30	-11.75	2	0.6396484375
996.7177734375	0.00833333333333333	1	-30	-11.875	1	0.5478515625
999.6513671875	0.00833333333333333	1	30	6.25	1	0.8779296875
1002.6435546875	0.00833333333333333	1	30	6.375	1	0.60546875
1005.7177734375	0.00833333333333333	1	30	6	2	0.7001953125
1008.66796875	0.00833333333333333	1	30	5.875	2	0.7021484375
1011.9013671875	0.00833333333333333	1	NaN	-2.75	2	0.828125
1014.80078125	0.00833333333333333	1	-30	-10.75	2	0.7373046875
1017.5927734375	0.00833333333333333	1	30	5.75	2	0.625
1020.30078125	0.00833333333333333	1	30	5.625	2	0.93359375
1023.3681640625	0.00833333333333333	1	NaN	-2.375	1	0.8017578125
1026.359375	0.00833333333333333	1	-30	-10.875	2	0.8427734375
1029.66796875	0.00833333333333333	1	30	5.5	1	0.662109375
1032.767578125	0.00833333333333333	1	-30	-11	1	0.650390625
1077.2841796875	0.00833333333333333	1	30	6.5	1	0.9833984375
1080.5751953125	0.00833333333333333	1	-30	-11.75	1	1.2451171875
1084.05859375	0.00833333333333333	1	NaN	-2.25	2	1.0576171875
1087.466796875	0.00833333333333333	1	-30	-10.875	2	0.9453125
1090.875	0.00833333333333333	1	NaN	-2.875	1	0.6650390625
1093.908203125	0.00833333333333333	1	-30	-11.625	2	0.80859375
1096.9833984375	0.00833333333333333	1	NaN	-2.375	1	0.59765625
1099.8505859375	0.00833333333333333	1	NaN	-2.25	2	0.74609375
1102.81640625	0.00833333333333333	1	NaN	-2.375	2	0.572265625
1105.7587890625	0.00833333333333333	1	30	6.625	1	0.6064453125
1108.8759765625	0.00833333333333333	1	-30	-11	2	0.8251953125
1112.1748046875	0.00833333333333333	1	30	6.75	1	0.5419921875
1114.94140625	0.00833333333333333	1	NaN	-2.5	2	0.49609375
1117.9833984375	0.00833333333333333	1	30	6.875	2	0.58203125
1120.892578125	0.00833333333333333	1	NaN	-2.75	1	0.9208984375
1124.0244140625	0.00833333333333333	1	30	6.75	2	0.525390625
1126.951171875	0.00833333333333333	1	30	5.625	1	0.7265625
1130.0673828125	0.00833333333333333	1	-30	-11.125	2	0.642578125
1133.0166015625	0.00833333333333333	1	30	5.75	2	0.5087890625
1135.849609375	0.00833333333333333	1	NaN	-2.625	2	0.5244140625
1138.5751953125	0.00833333333333333	1	NaN	-2.75	2	0.4384765625
1141.408203125	0.00833333333333333	1	30	6.625	2	0.501953125
1144.349609375	0.00833333333333333	1	NaN	-2.875	2	0.6484375
1147.408203125	0.00833333333333333	1	30	5.625	2	0.6220703125
1150.4912109375	0.00833333333333333	1	30	6.5	2	0.5712890625
1153.2412109375	0.00833333333333333	1	-30	-11.25	2	0.548828125
1156.0244140625	0.00833333333333333	1	NaN	-3	1	0.6298828125
1158.6826171875	0.00833333333333333	1	-30	-11.375	2	0.5556640625
1161.482421875	0.00833333333333333	1	30	5.5	2	0.6279296875
1164.416015625	0.00833333333333333	1	-30	-11.5	2	0.7431640625
1167.3828125	0.00833333333333333	1	-30	-11.625	2	0.6083984375
1170.32421875	0.00833333333333333	1	NaN	-2.875	2	0.6982421875
1173.3662109375	0.00833333333333333	1	30	6.375	2	0.6005859375
1176.4658203125	0.00833333333333333	1	-30	-11.75	2	0.61328125
1179.482421875	0.00833333333333333	1	30	5.375	2	0.5322265625
1182.1484375	0.00833333333333333	1	30	6.25	2	0.458984375
1184.93359375	0.00833333333333333	1	30	6.125	2	0.529296875
1187.806640625	0.00833333333333333	1	NaN	-3	1	0.7529296875
1190.923828125	0.00833333333333333	1	30	5.25	2	0.515625
1193.5732421875	0.00833333333333333	1	-30	-11.75	2	0.5302734375
1196.3408203125	0.00833333333333333	1	30	6	2	0.36328125
1199.1826171875	0.00833333333333333	1	-30	-11.875	2	0.5849609375
1201.9482421875	0.00833333333333333	1	30	5.125	2	0.515625
1205.0068359375	0.00833333333333333	1	NaN	-2.875	2	0.5048828125
1207.890625	0.00833333333333333	1	30	5	2	0.4853515625
1210.4990234375	0.00833333333333333	1	30	5.875	2	0.380859375
1213.2490234375	0.00833333333333333	1	30	5.75	2	0.4072265625
1216.0986328125	0.00833333333333333	1	-30	-12	2	0.7021484375
1219.03125	0.00833333333333333	1	NaN	-3	2	0.5849609375
1222.0478515625	0.00833333333333333	1	30	4.875	2	0.4482421875
1224.689453125	0.00833333333333333	1	NaN	-3.125	2	0.4150390625
1227.373046875	0.00833333333333333	1	30	5.625	2	0.4677734375
1230.2060546875	0.00833333333333333	1	-30	-12.125	2	0.4912109375
1233.28125	0.00833333333333333	1	NaN	-2.625	2	0.50390625
1235.9736328125	0.00833333333333333	1	-30	-11.875	2	0.515625
1239.0576171875	0.00833333333333333	1	-30	-12.25	2	0.49609375
1241.7490234375	0.00833333333333333	1	-30	-12	2	0.484375
1244.6142578125	0.00833333333333333	1	-30	-12.375	2	0.466796875
1247.2060546875	0.00833333333333333	1	30	4.75	2	0.6435546875
1250.1728515625	0.00833333333333333	1	NaN	-2.75	2	0.453125
1253.107421875	0.00833333333333333	1	30	4.625	2	0.58984375
1255.9140625	0.00833333333333333	1	30	4.5	1	0.5361328125
1258.6142578125	0.00833333333333333	1	NaN	-3.25	1	0.5078125
1261.4306640625	0.00833333333333333	1	30	5.5	1	0.6748046875
1264.2060546875	0.00833333333333333	1	NaN	-3.125	1	0.6279296875
1267.015625	0.00833333333333333	1	NaN	-3	2	0.6669921875
1269.7900390625	0.00833333333333333	1	30	5.625	2	0.4765625
1272.73046875	0.00833333333333333	1	30	5.5	2	0.6962890625
1275.822265625	0.00833333333333333	1	NaN	-2.875	1	0.5400390625
1278.4638671875	0.00833333333333333	1	-30	-12.125	2	0.5146484375
1281.0390625	0.00833333333333333	1	30	4.625	2	0.5712890625
1284.0478515625	0.00833333333333333	1	30	4.5	2	0.4990234375
1286.6728515625	0.00833333333333333	1	NaN	-3.125	2	0.44140625
1289.3984375	0.00833333333333333	1	30	5.375	2	0.412109375
1292.0390625	0.00833333333333333	1	30	5.25	2	0.5078125
1294.7314453125	0.00833333333333333	1	30	4.375	2	0.455078125
1297.513671875	0.00833333333333333	1	30	4.25	2	0.44140625
1300.1884765625	0.00833333333333333	1	30	4.125	2	0.4951171875
1302.9228515625	0.00833333333333333	1	NaN	-3.25	2	0.46484375
1305.556640625	0.00833333333333333	1	30	5.125	2	0.783203125
1308.564453125	0.00833333333333333	1	NaN	-2.75	1	0.54296875
1311.5732421875	0.00833333333333333	1	NaN	-3.375	1	0.638671875
1314.6220703125	0.00833333333333333	1	NaN	-3.25	1	0.4619140625
1317.5732421875	0.00833333333333333	1	30	5	1	0.56640625
1320.5234375	0.00833333333333333	1	30	5.125	1	0.48828125
1323.3984375	0.00833333333333333	1	NaN	-2.625	1	0.4775390625
1326.0390625	0.00833333333333333	1	-30	-12.5	1	0.4931640625
1328.9306640625	0.00833333333333333	1	NaN	-3.125	1	0.4736328125
1331.689453125	0.00833333333333333	1	-30	-12.25	1	0.458984375
1334.3642578125	0.00833333333333333	1	-30	-12.125	1	0.48046875
1336.90625	0.00833333333333333	1	NaN	-2.5	1	0.8984375
1340.28125	0.00833333333333333	1	-30	-12.375	1	0.515625
1343.3056640625	0.00833333333333333	1	-30	-12.25	1	0.466796875
1346.1474609375	0.00833333333333333	1	-30	-12.125	1	0.5693359375
1348.90625	0.00833333333333333	1	30	5.25	1	0.546875
1351.4892578125	0.00833333333333333	1	-30	-12	1	0.419921875
1354.462890625	0.00833333333333333	1	-30	-12	1	0.341796875
1357.0302734375	0.00833333333333333	1	NaN	-3	1	0.470703125
1359.6640625	0.00833333333333333	1	NaN	-2.875	1	0.4052734375
1362.2060546875	0.00833333333333333	1	30	5.375	1	0.439453125
1364.947265625	0.00833333333333333	1	30	4	1	0.3935546875
1367.455078125	0.00833333333333333	1	NaN	-2.375	1	0.3984375
1370.1142578125	0.00833333333333333	1	NaN	-2.25	1	0.3310546875
1372.755859375	0.00833333333333333	1	-30	-11.875	1	0.4091796875
1375.35546875	0.00833333333333333	1	NaN	-2.125	1	0.474609375
1406.080078125	0.00833333333333333	1	NaN	-2.75	1	0.814453125
1409.087890625	0.00833333333333333	1	NaN	-2.625	2	0.638671875
1412.013671875	0.00833333333333333	1	NaN	-2	2	0.59375
1414.830078125	0.00833333333333333	1	30	4.125	2	0.8408203125
1418.0634765625	0.00833333333333333	1	30	4	2	1.087890625
1421.421875	0.00833333333333333	1	-30	-11.75	1	1.689453125
1425.2958984375	0.00833333333333333	1	-30	-11.625	1	1.3916015625
1428.904296875	0.00833333333333333	1	NaN	-2.125	1	0.88671875
1432.095703125	0.00833333333333333	1	-30	-11.875	1	0.9677734375
1435.37109375	0.00833333333333333	1	30	5.5	2	0.9482421875
1438.779296875	0.00833333333333333	1	-30	-11.75	1	0.828125
1442.021484375	0.00833333333333333	1	30	3.875	1	0.673828125
1444.8623046875	0.00833333333333333	1	30	5.375	1	0.609375
1447.8291015625	0.00833333333333333	1	-30	-11.625	1	0.7470703125
1450.8623046875	0.00833333333333333	1	30	5.5	1	0.609375
1453.6787109375	0.00833333333333333	1	30	5.625	1	0.826171875
1456.7958984375	0.00833333333333333	1	30	4	1	0.6044921875
1459.74609375	0.00833333333333333	1	30	5.75	1	0.6064453125
1462.587890625	0.00833333333333333	1	30	4.125	1	0.6767578125
1465.5205078125	0.00833333333333333	1	30	4.25	1	0.6640625
1468.5625	0.00833333333333333	1	-30	-11.5	1	0.822265625
1471.9541015625	0.00833333333333333	1	-30	-11.375	1	0.630859375
1474.7119140625	0.00833333333333333	1	-30	-11.5	1	0.6728515625
1477.4873046875	0.00833333333333333	1	-30	-11.375	1	0.625
1480.470703125	0.00833333333333333	1	-30	-11.25	2	0.5458984375
1483.2451171875	0.00833333333333333	1	30	5.875	2	0.4443359375
1486.0458984375	0.00833333333333333	1	30	4.375	2	0.5791015625
1488.76171875	0.00833333333333333	1	30	4.25	2	0.447265625
1491.294921875	0.00833333333333333	1	-30	-11.375	1	1.38671875
1494.8193359375	0.00833333333333333	1	30	5.75	2	0.55859375
1497.853515625	0.00833333333333333	1	NaN	-2	1	0.6357421875
1500.52734375	0.00833333333333333	1	-30	-11.25	1	0.5625
1503.13671875	0.00833333333333333	1	30	5.625	1	0.5126953125
1505.7119140625	0.00833333333333333	1	30	5.75	2	0.4580078125
1508.478515625	0.00833333333333333	1	-30	-11.125	2	0.8349609375
1511.62890625	0.00833333333333333	1	30	4.125	2	0.4130859375
1514.13671875	0.00833333333333333	1	NaN	-1.875	2	0.45703125
1516.953125	0.00833333333333333	1	30	4	1	0.873046875
1520.169921875	0.00833333333333333	1	NaN	-2	2	0.552734375
1523.1533203125	0.00833333333333333	1	-30	-11.25	2	0.689453125
1526.0703125	0.00833333333333333	1	-30	-11.25	2	0.564453125
1528.802734375	0.00833333333333333	1	-30	-11.375	2	0.51171875
1531.6201171875	0.00833333333333333	1	-30	-11.5	2	0.486328125
1534.1943359375	0.00833333333333333	1	-30	-11.375	2	0.48046875
1536.7451171875	0.00833333333333333	1	-30	-11.5	2	0.4658203125
1539.7197265625	0.00833333333333333	1	NaN	-2.125	2	0.443359375
1542.5615234375	0.00833333333333333	1	NaN	-2.25	2	0.369140625
1545.4609375	0.00833333333333333	1	-30	-11.625	2	0.318359375
1548.26953125	0.00833333333333333	1	-30	-11.75	2	0.333984375
1551.1533203125	0.00833333333333333	1	NaN	-2.375	2	0.40234375
1553.828125	0.00833333333333333	1	NaN	-2.5	2	0.3671875
1556.669921875	0.00833333333333333	1	-30	-11.875	2	0.326171875
1559.2607421875	0.00833333333333333	1	-30	-12	2	0.3828125
1562.0185546875	0.00833333333333333	1	NaN	-2.625	2	0.3046875
1564.6943359375	0.00833333333333333	1	-30	-11.625	2	0.685546875
1567.89453125	0.00833333333333333	1	NaN	-2.75	2	0.357421875
1570.52734375	0.00833333333333333	1	-30	-12.125	1	0.8681640625
1573.560546875	0.00833333333333333	1	-30	-12	2	0.5478515625
1576.3447265625	0.00833333333333333	1	-30	-11.75	1	0.771484375
1579.369140625	0.00833333333333333	1	-30	-11.625	1	0.6591796875
1582.4775390625	0.00833333333333333	1	-30	-11.5	1	0.775390625
1585.52734375	0.00833333333333333	1	-30	-12.125	1	0.5810546875
1588.326171875	0.00833333333333333	1	NaN	-2.875	1	0.56640625
1591.435546875	0.00833333333333333	1	NaN	-2.75	1	0.537109375
1594.185546875	0.00833333333333333	1	NaN	-2.625	1	0.515625
1596.927734375	0.00833333333333333	1	-30	-11.375	1	0.716796875
1599.818359375	0.00833333333333333	1	-30	-11.25	2	0.810546875
1603.126953125	0.00833333333333333	1	-30	-12	2	1.1103515625
1606.6435546875	0.00833333333333333	1	-30	-12.125	2	0.7939453125
1609.6689453125	0.00833333333333333	1	NaN	-2.5	1	0.65625
1612.4599609375	0.00833333333333333	1	NaN	-2.375	1	0.44921875
1614.9599609375	0.00833333333333333	1	NaN	-2.25	2	0.5576171875
1617.5849609375	0.00833333333333333	1	-30	-12.25	1	0.8447265625
1620.9189453125	0.00833333333333333	1	NaN	-2.375	2	0.4541015625
1623.9091796875	0.00833333333333333	1	-30	-12.125	1	0.96875
1627.30078125	0.00833333333333333	1	-30	-12	2	1.2568359375
1630.7587890625	0.00833333333333333	1	NaN	-2.5	2	0.8310546875
1633.6767578125	0.00833333333333333	1	NaN	-2.625	2	0.77734375
1636.6103515625	0.00833333333333333	1	NaN	-2.75	1	0.8115234375
1639.943359375	0.00833333333333333	1	-30	-12.125	2	1.0625
1643.2919921875	0.00833333333333333	1	-30	-12.25	2	1.1298828125
1646.8017578125	0.00833333333333333	1	-30	-12.375	2	0.876953125
1650.1591796875	0.00833333333333333	1	-30	-12.5	1	2.263671875
1654.9599609375	0.00833333333333333	1	NaN	-2.625	2	0.9267578125
1658.3095703125	0.00833333333333333	1	-30	-12.375	2	0.7529296875
1661.46875	0.00833333333333333	0	30	5.20625	2	0.7939453125
1664.41796875	0.00833333333333333	0	30	5.20625	1	1.2451171875
1667.9931640625	0.00833333333333333	0	30	5.20625	2	0.669921875
1671.017578125	0.00833333333333333	0	-30	-11.65625	2	0.4775390625
1673.701171875	0.00833333333333333	0	-30	-11.65625	2	0.482421875
1676.333984375	0.00833333333333333	0	30	5.20625	2	0.376953125
1679.076171875	0.00833333333333333	0	30	5.20625	2	0.34765625
1681.6005859375	0.00833333333333333	0	-30	-11.65625	2	0.4150390625
1684.0927734375	0.00833333333333333	0	-30	-11.65625	2	0.3544921875
1686.6669921875	0.00833333333333333	0	-30	-11.65625	2	0.396484375
1689.5595703125	0.00833333333333333	0	30	5.20625	2	0.3046875
1692.16796875	0.00833333333333333	0	-30	-11.78125	2	0.3037109375
1694.92578125	0.00833333333333333	0	-30	-11.78125	2	0.2900390625
1697.333984375	0.00833333333333333	0	-30	-11.78125	2	0.314453125
1699.984375	0.00833333333333333	0	30	5.20625	2	0.359375
1702.6669921875	0.00833333333333333	0	-30	-11.78125	2	0.30859375
1705.43359375	0.00833333333333333	0	-30	-11.78125	2	0.2705078125
1708.0341796875	0.00833333333333333	0	-30	-11.90625	2	0.318359375
1710.7744140625	0.00833333333333333	0	-30	-11.90625	2	0.330078125
1713.1923828125	0.00833333333333333	0	-30	-11.90625	2	0.328125
1715.841796875	0.00833333333333333	0	-30	-11.90625	2	0.318359375
1718.4833984375	0.00833333333333333	0	-30	-11.90625	2	0.3251953125
1721.392578125	0.00833333333333333	0	-30	-12.03125	2	0.5361328125
1724.2666015625	0.00833333333333333	0	-30	-12.03125	2	0.6064453125
1727.0087890625	0.00833333333333333	0	-30	-12.03125	2	0.6005859375
1730.1171875	0.00833333333333333	0	-30	-12.03125	1	1.099609375
1733.4248046875	0.00833333333333333	0	30	5.08125	1	0.576171875
1736.2001953125	0.00833333333333333	0	30	5.08125	2	0.76953125
1739.2001953125	0.00833333333333333	0	-30	-12.03125	2	0.6015625
1741.9833984375	0.00833333333333333	0	30	5.08125	2	0.41796875
1744.591796875	0.00833333333333333	0	30	5.08125	2	0.482421875
1747.275390625	0.00833333333333333	0	-30	-12.03125	2	0.40625
1750.091796875	0.00833333333333333	0	-30	-12.03125	1	0.8857421875
1753.2998046875	0.00833333333333333	0	30	5.08125	1	0.3896484375
1755.974609375	0.00833333333333333	0	-30	-12.03125	1	0.6591796875
1758.8994140625	0.00833333333333333	0	-30	-12.03125	1	0.654296875
1761.8330078125	0.00833333333333333	0	30	5.08125	2	0.5771484375
1764.4912109375	0.00833333333333333	0	30	5.08125	2	0.7431640625
1767.408203125	0.00833333333333333	0	-30	-12.03125	1	0.5625
1770.3828125	0.00833333333333333	0	-30	-12.03125	1	0.7158203125
1773.541015625	0.00833333333333333	0	-30	-11.90625	1	0.4697265625
1776.4404296875	0.00833333333333333	0	30	5.08125	2	0.5869140625
1779.357421875	0.00833333333333333	0	30	5.08125	2	0.5009765625
1782.349609375	0.00833333333333333	0	30	5.08125	2	0.5087890625
1784.974609375	0.00833333333333333	0	-30	-11.90625	1	0.8837890625
1787.8984375	0.00833333333333333	0	30	4.95625	2	0.7041015625
1791.0576171875	0.00833333333333333	0	30	4.95625	1	1.1533203125
1794.5498046875	0.00833333333333333	0	-30	-11.90625	2	0.5576171875
1797.265625	0.00833333333333333	0	30	4.95625	2	0.5458984375
1799.982421875	0.00833333333333333	0	-30	-11.90625	2	0.6123046875
1802.8896484375	0.00833333333333333	0	30	4.95625	2	0.4658203125
1805.7578125	0.00833333333333333	0	30	4.95625	2	0.40625
1808.4658203125	0.00833333333333333	0	-30	-11.90625	2	0.43359375
1811.015625	0.00833333333333333	0	30	4.95625	2	0.4921875
1813.5908203125	0.00833333333333333	0	-30	-11.90625	2	0.3330078125
1816.166015625	0.00833333333333333	0	-30	-11.90625	2	0.318359375
1819.0400390625	0.00833333333333333	0	30	4.95625	2	0.2841796875
1821.5322265625	0.00833333333333333	0	-30	-12.03125	2	0.3037109375
1824.2158203125	0.00833333333333333	0	30	4.83125	2	0.3408203125
1826.7822265625	0.00833333333333333	0	30	4.83125	2	0.3984375
1829.5322265625	0.00833333333333333	0	30	4.83125	2	0.2880859375
1832.3408203125	0.00833333333333333	0	30	4.83125	2	0.3837890625
1834.8486328125	0.00833333333333333	0	30	4.83125	2	0.5
1837.6982421875	0.00833333333333333	0	30	4.70625	2	0.4267578125
1840.57421875	0.00833333333333333	0	-30	-12.03125	2	0.470703125
1843.4990234375	0.00833333333333333	0	30	4.70625	2	0.537109375
1846.3232421875	0.00833333333333333	0	-30	-12.03125	2	0.8818359375
1849.45703125	0.00833333333333333	0	-30	-12.03125	2	0.63671875
1852.4072265625	0.00833333333333333	0	30	4.70625	2	0.501953125
1855.21484375	0.00833333333333333	0	30	4.70625	2	0.57421875
1857.890625	0.00833333333333333	0	30	4.70625	2	0.634765625
1860.931640625	0.00833333333333333	0	30	4.58125	1	0.5859375
1863.8564453125	0.00833333333333333	0	30	4.58125	2	0.4853515625
1866.740234375	0.00833333333333333	0	-30	-12.03125	2	0.4248046875
1869.5654296875	0.00833333333333333	0	30	4.58125	2	0.431640625
1872.3056640625	0.00833333333333333	0	30	4.58125	2	0.34765625
1874.806640625	0.00833333333333333	0	-30	-12.15625	2	0.6630859375
1877.7236328125	0.00833333333333333	0	30	4.58125	2	0.2978515625
1880.4228515625	0.00833333333333333	0	-30	-12.15625	1	0.6875
1883.4150390625	0.00833333333333333	0	30	4.58125	1	0.51953125
1965.2138671875	0.00833333333333333	0	-30	-12.15625	1	0.7783203125
1968.220703125	0.00833333333333333	0	30	4.58125	1	0.67578125
1970.9384765625	0.00833333333333333	0	30	4.58125	1	1.078125
1974.3798828125	0.00833333333333333	0	-30	-12.15625	1	1.30078125
1978.0966796875	0.00833333333333333	0	30	4.58125	1	0.6806640625
1980.845703125	0.00833333333333333	0	-30	-12.15625	1	0.6591796875
1983.61328125	0.00833333333333333	0	-30	-12.15625	1	0.595703125
1986.330078125	0.00833333333333333	0	-30	-12.03125	1	0.7119140625
1989.546875	0.00833333333333333	0	-30	-12.03125	1	0.5751953125
1992.580078125	0.00833333333333333	0	30	4.58125	1	0.5732421875
1995.396484375	0.00833333333333333	0	-30	-12.03125	1	0.517578125
1998.36328125	0.00833333333333333	0	30	4.70625	1	0.5341796875
2001.1455078125	0.00833333333333333	0	30	4.70625	1	0.80078125
2004.1630859375	0.00833333333333333	0	-30	-12.03125	1	0.53515625
2007.0869140625	0.00833333333333333	0	-30	-12.03125	1	0.5546875
2009.9033203125	0.00833333333333333	0	30	4.70625	1	0.5068359375
2012.720703125	0.00833333333333333	0	-30	-11.90625	1	0.6337890625
2015.6875	0.00833333333333333	0	-30	-11.90625	1	0.5947265625
2018.771484375	0.00833333333333333	0	30	4.70625	1	0.5751953125
2021.7041015625	0.00833333333333333	0	-30	-11.90625	1	0.5380859375
2024.6630859375	0.00833333333333333	0	30	4.70625	1	0.828125
2027.970703125	0.00833333333333333	0	-30	-11.90625	1	0.6396484375
2031.12109375	0.00833333333333333	0	30	4.83125	2	0.609375
2034.1123046875	0.00833333333333333	0	-30	-11.90625	2	0.642578125
2037.0126953125	0.00833333333333333	0	30	4.83125	2	0.4150390625
2039.8046875	0.00833333333333333	0	-30	-11.90625	1	0.638671875
2042.9375	0.00833333333333333	0	-30	-11.90625	2	0.578125
2045.7119140625	0.00833333333333333	0	30	4.83125	1	0.603515625
2048.75390625	0.00833333333333333	0	30	4.83125	2	0.4013671875
2051.287109375	0.00833333333333333	0	-30	-11.90625	1	0.3564453125
2053.7705078125	0.00833333333333333	0	30	4.83125	2	0.47265625
2056.7119140625	0.00833333333333333	0	-30	-11.90625	1	0.5478515625
2059.7626953125	0.00833333333333333	0	-30	-11.90625	1	0.521484375
2062.470703125	0.00833333333333333	0	30	4.83125	1	0.5166015625
2065.2041015625	0.00833333333333333	0	-30	-11.90625	1	0.48046875
2067.76171875	0.00833333333333333	0	-30	-11.90625	1	0.3623046875
2070.6875	0.00833333333333333	0	-30	-11.78125	1	0.3486328125
2073.478515625	0.00833333333333333	0	-30	-11.78125	1	0.3974609375
2075.953125	0.00833333333333333	0	30	4.83125	1	0.435546875
2078.6201171875	0.00833333333333333	0	30	4.83125	1	0.3603515625
2081.2197265625	0.00833333333333333	0	-30	-11.78125	1	0.3525390625
2083.7275390625	0.00833333333333333	0	-30	-11.78125	1	0.365234375
2086.453125	0.00833333333333333	0	-30	-11.78125	1	0.3359375
2088.9365234375	0.00833333333333333	0	-30	-11.65625	1	0.3564453125
2091.6787109375	0.00833333333333333	0	30	4.83125	1	0.349609375
2094.294921875	0.00833333333333333	0	30	4.83125	1	0.40625
2097.203125	0.00833333333333333	0	-30	-11.65625	1	0.330078125
2099.7109375	0.00833333333333333	0	30	4.95625	1	0.3583984375
2102.419921875	0.00833333333333333	0	30	4.95625	1	0.46484375
2105.2451171875	0.00833333333333333	0	30	4.95625	1	0.5439453125
2108.169921875	0.00833333333333333	0	-30	-11.65625	1	0.7158203125
2111.27734375	0.00833333333333333	0	-30	-11.65625	1	0.65625
2114.2529296875	0.00833333333333333	0	-30	-11.65625	1	1.1123046875
2117.6279296875	0.00833333333333333	0	-30	-11.53125	2	0.6181640625
2120.794921875	0.00833333333333333	0	30	4.95625	2	0.6982421875
2123.77734375	0.00833333333333333	0	-30	-11.53125	2	0.6123046875
2126.619140625	0.00833333333333333	0	-30	-11.53125	2	0.4423828125
2129.53515625	0.00833333333333333	0	30	4.95625	2	0.9111328125
2132.5361328125	0.00833333333333333	0	-30	-11.53125	2	1.150390625
2136.01953125	0.00833333333333333	0	30	4.95625	2	0.7470703125
2139.0947265625	0.00833333333333333	0	-30	-11.53125	1	0.8798828125
2142.111328125	0.00833333333333333	0	30	4.95625	1	0.52734375
2144.8193359375	0.00833333333333333	0	30	4.95625	2	0.5390625
2147.9189453125	0.00833333333333333	0	30	4.95625	1	0.6552734375
2150.861328125	0.00833333333333333	0	-30	-11.53125	1	0.76171875
2153.9443359375	0.00833333333333333	0	-30	-11.53125	1	0.71875
2156.8095703125	0.00833333333333333	0	-30	-11.53125	1	0.853515625
2159.7861328125	0.00833333333333333	0	30	4.95625	2	1.0849609375
2163.2021484375	0.00833333333333333	0	30	4.95625	2	0.556640625
2165.8193359375	0.00833333333333333	0	30	4.95625	2	0.435546875
2168.4443359375	0.00833333333333333	0	30	4.95625	2	0.466796875
2171.2109375	0.00833333333333333	0	30	4.95625	2	0.4765625
2173.7685546875	0.00833333333333333	0	30	4.83125	2	0.470703125
2176.4521484375	0.00833333333333333	0	-30	-11.53125	2	0.5068359375
2179.0009765625	0.00833333333333333	0	30	4.83125	2	0.5185546875
2181.7353515625	0.00833333333333333	0	-30	-11.53125	2	0.5439453125
2184.77734375	0.00833333333333333	0	-30	-11.53125	2	0.494140625
2187.560546875	0.00833333333333333	0	30	4.83125	2	0.4794921875
2190.2607421875	0.00833333333333333	0	-30	-11.53125	2	0.3955078125
2192.935546875	0.00833333333333333	0	30	4.83125	2	0.416015625
2273.576171875	0.00833333333333333	0	-30	-11.53125	1	0.73828125
2276.767578125	0.00833333333333333	0	-30	-11.53125	2	0.947265625
2279.984375	0.00833333333333333	0	30	4.83125	1	0.6103515625
2282.7578125	0.00833333333333333	0	30	4.83125	2	0.6455078125
2285.767578125	0.00833333333333333	0	-30	-11.53125	2	0.69140625
2288.6923828125	0.00833333333333333	0	-30	-11.53125	1	0.4873046875
2291.208984375	0.00833333333333333	0	-30	-11.53125	2	0.6103515625
2293.900390625	0.00833333333333333	0	-30	-11.53125	2	0.55859375
2296.9423828125	0.00833333333333333	0	30	4.83125	1	0.5732421875
2299.599609375	0.00833333333333333	0	-30	-11.53125	2	0.572265625
2302.25	0.00833333333333333	0	-30	-11.53125	2	0.59375
2305.025390625	0.00833333333333333	0	30	4.83125	2	0.59375
2307.7333984375	0.00833333333333333	0	-30	-11.53125	2	0.58984375
2310.583984375	0.00833333333333333	0	30	4.83125	1	0.587890625
2313.3671875	0.00833333333333333	0	30	4.83125	1	0.6689453125
2316.30859375	0.00833333333333333	0	-30	-11.65625	1	0.53515625
2319.1337890625	0.00833333333333333	0	30	4.83125	1	0.5419921875
2321.81640625	0.00833333333333333	0	-30	-11.65625	1	0.7080078125
2324.9580078125	0.00833333333333333	0	30	4.83125	1	0.4541015625
2327.4990234375	0.00833333333333333	0	30	4.83125	1	0.6416015625
2330.533203125	0.00833333333333333	0	30	4.95625	1	0.4150390625
2333.43359375	0.00833333333333333	0	-30	-11.65625	1	0.5869140625
2336.31640625	0.00833333333333333	0	-30	-11.65625	1	0.65625
2339.408203125	0.00833333333333333	0	-30	-11.65625	2	0.7724609375
2342.291015625	0.00833333333333333	0	-30	-11.65625	2	0.5693359375
2345.1826171875	0.00833333333333333	0	-30	-11.65625	2	0.5029296875
2347.849609375	0.00833333333333333	0	-30	-11.65625	2	0.5
2350.791015625	0.00833333333333333	0	30	4.95625	2	0.7099609375
2353.6162109375	0.00833333333333333	0	30	4.95625	2	0.4365234375
2356.4326171875	0.00833333333333333	0	-30	-11.65625	2	0.62109375
2359.2412109375	0.00833333333333333	0	30	4.95625	2	0.580078125
2361.9990234375	0.00833333333333333	0	30	4.95625	2	0.4140625
2364.9326171875	0.00833333333333333	0	30	4.95625	2	0.8408203125
2368.107421875	0.00833333333333333	0	-30	-11.78125	2	0.5546875
2371.19140625	0.00833333333333333	0	-30	-11.78125	1	0.5341796875
2374.1494140625	0.00833333333333333	0	-30	-11.78125	2	0.552734375
2377.0576171875	0.00833333333333333	0	30	4.83125	2	0.4287109375
2379.7490234375	0.00833333333333333	0	-30	-11.78125	2	0.4248046875
2382.673828125	0.00833333333333333	0	30	4.83125	2	0.6201171875
2385.4990234375	0.00833333333333333	0	30	4.83125	2	0.466796875
2388.306640625	0.00833333333333333	0	-30	-11.78125	2	0.419921875
2390.9990234375	0.00833333333333333	0	-30	-11.78125	2	0.51953125
2393.9658203125	0.00833333333333333	0	30	4.83125	2	0.384765625
2396.431640625	0.00833333333333333	0	-30	-11.78125	2	0.478515625
2399.0986328125	0.00833333333333333	0	30	4.83125	2	0.5478515625
2401.931640625	0.00833333333333333	0	-30	-11.90625	2	0.515625
2404.7236328125	0.00833333333333333	0	-30	-11.90625	2	0.4189453125
2407.6484375	0.00833333333333333	0	30	4.70625	2	0.3828125
2410.298828125	0.00833333333333333	0	-30	-11.90625	2	0.4921875
2413.0986328125	0.00833333333333333	0	-30	-11.90625	2	0.380859375
2415.9306640625	0.00833333333333333	0	-30	-11.90625	2	0.4599609375
2418.556640625	0.00833333333333333	0	30	4.70625	2	0.4501953125
2421.3818359375	0.00833333333333333	0	-30	-12.03125	2	0.6259765625
2424.2568359375	0.00833333333333333	0	30	4.70625	2	0.7822265625
2427.20703125	0.00833333333333333	0	30	4.70625	2	0.640625
2430.1484375	0.00833333333333333	0	30	4.70625	2	0.71484375
2433.0810546875	0.00833333333333333	0	-30	-12.03125	2	0.990234375
2436.380859375	0.00833333333333333	0	-30	-12.03125	1	1.1552734375
2439.748046875	0.00833333333333333	0	30	4.58125	2	0.99609375
2443.22265625	0.00833333333333333	0	-30	-12.03125	2	0.5615234375
2445.931640625	0.00833333333333333	0	-30	-12.03125	1	0.8525390625
2449.123046875	0.00833333333333333	0	-30	-12.03125	1	0.765625
2452.4140625	0.00833333333333333	0	30	4.58125	2	0.658203125
2455.28125	0.00833333333333333	0	30	4.58125	2	0.599609375
2458.171875	0.00833333333333333	0	30	4.58125	2	0.5810546875
2460.83984375	0.00833333333333333	0	-30	-12.03125	2	0.4970703125
2463.498046875	0.00833333333333333	0	30	4.58125	2	0.6064453125
2466.1728515625	0.00833333333333333	0	-30	-12.03125	2	0.771484375
2469.1396484375	0.00833333333333333	0	30	4.45625	2	0.5576171875
2471.97265625	0.00833333333333333	0	-30	-12.03125	1	0.5087890625
2474.7978515625	0.00833333333333333	0	30	4.45625	1	0.466796875
2477.505859375	0.00833333333333333	0	30	4.45625	1	0.3994140625
2480.08984375	0.00833333333333333	0	30	4.45625	2	0.775390625
2483.3388671875	0.00833333333333333	0	30	4.45625	1	0.55859375
2486.09765625	0.00833333333333333	0	-30	-12.03125	2	0.8154296875
2488.9560546875	0.00833333333333333	0	30	4.45625	2	0.525390625
2491.72265625	0.00833333333333333	0	-30	-12.03125	1	0.5673828125
2494.8134765625	0.00833333333333333	0	-30	-12.03125	1	0.716796875
2497.9560546875	0.00833333333333333	0	-30	-12.03125	2	0.59765625
2500.9560546875	0.00833333333333333	0	30	4.45625	1	0.5263671875
2540.98828125	0.00833333333333333	0	30	4.45625	2	0.6787109375
2544.0888671875	0.00833333333333333	0	30	4.45625	2	0.802734375
2547.2216796875	0.00833333333333333	0	30	4.45625	2	0.501953125
2549.8134765625	0.00833333333333333	0	-30	-12.03125	2	0.5576171875
2552.7958984375	0.00833333333333333	0	30	4.45625	2	0.4873046875
2555.6123046875	0.00833333333333333	0	30	4.45625	2	0.4072265625
2558.4462890625	0.00833333333333333	0	30	4.33125	2	0.453125
2561.3212890625	0.00833333333333333	0	-30	-12.03125	2	0.4580078125
2564.12890625	0.00833333333333333	0	30	4.33125	2	0.4267578125
2566.9716796875	0.00833333333333333	0	30	4.33125	2	0.408203125
2569.4541015625	0.00833333333333333	0	-30	-12.03125	2	0.3818359375
2572.3134765625	0.00833333333333333	0	30	4.33125	2	0.37890625
2575.1044921875	0.00833333333333333	0	30	4.33125	2	0.5556640625
2577.87109375	0.00833333333333333	0	-30	-12.03125	2	1.1728515625
2581.3701171875	0.00833333333333333	0	30	4.20625	2	0.6181640625
2584.3544921875	0.00833333333333333	0	30	4.20625	1	0.7138671875
2587.24609375	0.00833333333333333	0	-30	-12.15625	1	0.630859375
2590.0126953125	0.00833333333333333	0	30	4.20625	2	0.583984375
2593.12109375	0.00833333333333333	0	30	4.20625	2	0.443359375
2595.7041015625	0.00833333333333333	0	30	4.20625	2	0.4130859375
2598.2880859375	0.00833333333333333	0	30	4.20625	2	0.388671875
2601.12890625	0.00833333333333333	0	-30	-12.15625	2	0.6357421875
2603.87109375	0.00833333333333333	0	-30	-12.15625	1	0.7578125
2606.87890625	0.00833333333333333	0	30	4.20625	1	0.8310546875
2609.7041015625	0.00833333333333333	0	30	4.20625	1	0.5576171875
2612.453125	0.00833333333333333	0	-30	-12.15625	1	0.6806640625
2615.537109375	0.00833333333333333	0	-30	-12.15625	2	0.5966796875
2618.5712890625	0.00833333333333333	0	30	4.20625	2	0.5947265625
2621.3701171875	0.00833333333333333	0	-30	-12.15625	2	0.4677734375
2623.9365234375	0.00833333333333333	0	-30	-12.15625	1	0.7490234375
2626.9619140625	0.00833333333333333	0	30	4.20625	1	0.484375
2629.7783203125	0.00833333333333333	0	30	4.20625	1	0.515625
2632.8203125	0.00833333333333333	0	-30	-12.15625	2	1.1376953125
2636.3125	0.00833333333333333	0	-30	-12.15625	1	0.7900390625
2639.361328125	0.00833333333333333	0	30	4.20625	1	0.7255859375
2642.353515625	0.00833333333333333	0	30	4.20625	2	0.5498046875
2645.353515625	0.00833333333333333	0	30	4.20625	2	0.5810546875
2648.169921875	0.00833333333333333	0	-30	-12.15625	1	0.8125
2651.1533203125	0.00833333333333333	0	30	4.20625	1	0.8134765625
2654.3037109375	0.00833333333333333	0	30	4.20625	1	0.7509765625
2657.2373046875	0.00833333333333333	0	30	4.20625	1	0.705078125
2660.328125	0.00833333333333333	0	30	4.20625	2	0.4873046875
2662.89453125	0.00833333333333333	0	30	4.20625	1	0.6884765625
2665.619140625	0.00833333333333333	0	-30	-12.15625	1	0.7802734375
2668.5185546875	0.00833333333333333	0	30	4.20625	1	0.6328125
2671.5283203125	0.00833333333333333	0	-30	-12.15625	1	0.5107421875
2674.0869140625	0.00833333333333333	0	30	4.20625	2	0.65625
2676.9697265625	0.00833333333333333	0	30	4.20625	2	0.59765625
2680.103515625	0.00833333333333333	0	-30	-12.15625	1	0.6162109375
2683.0283203125	0.00833333333333333	0	30	4.20625	2	0.5712890625
2686.103515625	0.00833333333333333	0	-30	-12.03125	1	0.744140625
2689.26953125	0.00833333333333333	0	-30	-12.03125	1	0.833984375
2692.3779296875	0.00833333333333333	0	-30	-12.03125	1	0.5498046875
2695.169921875	0.00833333333333333	0	30	4.20625	1	0.5341796875
2698.119140625	0.00833333333333333	0	30	4.20625	1	0.4814453125
2700.8271484375	0.00833333333333333	0	30	4.20625	1	0.548828125
2703.4775390625	0.00833333333333333	0	-30	-12.03125	1	0.4990234375
2706.14453125	0.00833333333333333	0	-30	-12.03125	1	0.6083984375
2708.9111328125	0.00833333333333333	0	-30	-11.90625	1	0.44140625
2711.8525390625	0.00833333333333333	0	-30	-11.90625	1	0.724609375
2714.7109375	0.00833333333333333	0	-30	-11.90625	1	0.666015625
2717.677734375	0.00833333333333333	0	-30	-11.90625	1	0.5068359375
2720.4599609375	0.00833333333333333	0	-30	-11.90625	1	1.1806640625
2724.119140625	0.00833333333333333	0	-30	-11.78125	1	0.8896484375
2727.244140625	0.00833333333333333	0	30	4.20625	2	0.7890625
2730.4189453125	0.00833333333333333	0	-30	-11.78125	1	0.55859375
2733.4189453125	0.00833333333333333	0	-30	-11.78125	1	0.982421875
2736.9111328125	0.00833333333333333	0	-30	-11.78125	1	1.6181640625
2740.59375	0.00833333333333333	0	30	4.20625	2	0.7275390625
2743.8525390625	0.00833333333333333	0	-30	-11.78125	2	0.9736328125
2747.40234375	0.00833333333333333	0	30	4.20625	2	0.87109375
2750.619140625	0.00833333333333333	0	-30	-11.78125	1	0.5986328125
2753.53515625	0.00833333333333333	0	-30	-11.78125	1	0.6025390625
2756.2353515625	0.00833333333333333	0	-30	-11.78125	1	0.654296875
2759.0517578125	0.00833333333333333	0	-30	-11.78125	1	0.5185546875
2761.7431640625	0.00833333333333333	0	30	4.20625	1	0.603515625
2764.826171875	0.00833333333333333	0	-30	-11.78125	1	0.583984375
2767.6015625	0.00833333333333333	0	30	4.20625	1	0.6083984375
2770.3515625	0.00833333333333333	0	-30	-11.65625	1	0.53125
2773.310546875	0.00833333333333333	0	-30	-11.65625	1	0.5478515625
2822.259765625	0.00833333333333333	0	30	4.20625	2	0.640625
2825.3515625	0.00833333333333333	0	30	4.20625	2	0.677734375
2828.392578125	0.00833333333333333	0	30	4.20625	2	0.67578125
2831.4423828125	0.00833333333333333	0	-30	-11.65625	2	0.642578125
2834.5595703125	0.00833333333333333	0	30	4.20625	1	0.685546875
2837.30078125	0.00833333333333333	0	30	4.20625	1	0.5595703125
2839.859375	0.00833333333333333	0	30	4.20625	2	0.76171875
2843.1591796875	0.00833333333333333	0	30	4.20625	2	0.7978515625
2846.1337890625	0.00833333333333333	0	-30	-11.65625	2	0.5673828125
2849.234375	0.00833333333333333	0	30	4.20625	2	0.5703125
2851.92578125	0.00833333333333333	0	-30	-11.65625	2	0.958984375
2854.966796875	0.00833333333333333	0	-30	-11.65625	2	0.6708984375
2858.1923828125	0.00833333333333333	0	30	4.20625	2	0.9248046875
2861.5419921875	0.00833333333333333	0	-30	-11.65625	2	0.615234375
2864.55078125	0.00833333333333333	0	30	4.20625	1	0.5263671875
2867.150390625	0.00833333333333333	0	30	4.20625	1	0.4072265625
2869.80859375	0.00833333333333333	0	30	4.20625	1	0.4052734375
2872.5166015625	0.00833333333333333	0	-30	-11.78125	1	0.384765625
2875.44140625	0.00833333333333333	0	30	4.20625	1	0.404296875
2878.3505859375	0.00833333333333333	0	30	4.20625	1	0.4150390625
2881.2421875	0.00833333333333333	0	30	4.33125	1	0.435546875
2883.841796875	0.00833333333333333	0	30	4.33125	1	0.412109375
2886.625	0.00833333333333333	0	30	4.33125	1	0.501953125
2889.5	0.00833333333333333	0	-30	-11.78125	1	0.5703125
2892.2080078125	0.00833333333333333	0	-30	-11.78125	1	0.5185546875
2894.916015625	0.00833333333333333	0	-30	-11.78125	1	0.39453125
2897.716796875	0.00833333333333333	0	-30	-11.78125	1	0.43359375
2900.3330078125	0.00833333333333333	0	-30	-11.65625	1	0.39453125
2903.1416015625	0.00833333333333333	0	-30	-11.65625	1	0.376953125
2905.95703125	0.00833333333333333	0	-30	-11.65625	1	0.74609375
2908.9736328125	0.00833333333333333	0	-30	-11.65625	1	0.9375
2912.20703125	0.00833333333333333	0	30	4.33125	2	0.759765625
2915.5078125	0.00833333333333333	0	30	4.33125	2	0.53125
2918.423828125	0.00833333333333333	0	30	4.33125	2	0.8076171875
2921.5078125	0.00833333333333333	0	30	4.33125	2	0.8515625
2924.58984375	0.00833333333333333	0	30	4.33125	2	0.578125
2927.408203125	0.00833333333333333	0	-30	-11.65625	2	0.5673828125
2930.107421875	0.00833333333333333	0	30	4.20625	1	0.6279296875
2932.8330078125	0.00833333333333333	0	30	4.20625	2	1.126953125
2936.3828125	0.00833333333333333	0	30	4.20625	1	0.552734375
2939.390625	0.00833333333333333	0	-30	-11.65625	2	1.009765625
2942.873046875	0.00833333333333333	0	-30	-11.65625	2	0.5673828125
2945.6826171875	0.00833333333333333	0	-30	-11.65625	2	0.5498046875
2948.515625	0.00833333333333333	0	30	4.20625	2	0.541015625
2951.482421875	0.00833333333333333	0	-30	-11.65625	1	0.5263671875
2954.07421875	0.00833333333333333	0	30	4.20625	2	0.4619140625
2956.916015625	0.00833333333333333	0	30	4.20625	2	0.5244140625
2959.6484375	0.00833333333333333	0	30	4.20625	2	0.416015625
2962.298828125	0.00833333333333333	0	-30	-11.65625	2	0.4853515625
2965.3232421875	0.00833333333333333	0	-30	-11.65625	2	0.3974609375
2967.9658203125	0.00833333333333333	0	-30	-11.65625	1	0.9794921875
2971.2236328125	0.00833333333333333	0	30	4.20625	2	0.5048828125
2974.0322265625	0.00833333333333333	0	30	4.08125	2	0.4814453125
2976.83203125	0.00833333333333333	0	-30	-11.65625	1	0.697265625
2979.607421875	0.00833333333333333	0	30	4.08125	2	0.75390625
2982.5908203125	0.00833333333333333	0	-30	-11.65625	2	0.5234375
2985.6318359375	0.00833333333333333	0	30	4.08125	2	0.5615234375
2988.5654296875	0.00833333333333333	0	30	4.08125	1	0.5
2991.3232421875	0.00833333333333333	0	30	4.08125	2	0.5419921875
2994.0234375	0.00833333333333333	0	30	4.08125	2	0.4501953125
2996.6650390625	0.00833333333333333	0	30	4.08125	2	0.4248046875
2999.2314453125	0.00833333333333333	0	-30	-11.65625	2	0.41796875
3001.7392578125	0.00833333333333333	0	-30	-11.65625	2	0.478515625
3004.3154296875	0.00833333333333333	0	-30	-11.65625	2	0.6142578125
3007.4228515625	0.00833333333333333	0	-30	-11.65625	2	0.611328125
3010.365234375	0.00833333333333333	0	30	4.08125	2	0.724609375
3013.3232421875	0.00833333333333333	0	30	4.08125	2	0.455078125
3016.2314453125	0.00833333333333333	0	30	3.95625	2	0.36328125
3018.7890625	0.00833333333333333	0	-30	-11.78125	2	0.525390625
3021.7060546875	0.00833333333333333	0	-30	-11.78125	1	0.80078125
3024.84765625	0.00833333333333333	0	30	3.95625	2	0.4833984375
3027.880859375	0.00833333333333333	0	30	3.95625	2	0.4814453125
3030.689453125	0.00833333333333333	0	-30	-11.78125	2	0.521484375
3033.4814453125	0.00833333333333333	0	30	3.95625	2	0.6171875
3036.28125	0.00833333333333333	0	-30	-11.78125	2	0.6259765625
3039.0146484375	0.00833333333333333	0	30	3.95625	1	2.236328125
3043.498046875	0.00833333333333333	0	30	3.95625	2	0.9296875
3046.939453125	0.00833333333333333	0	-30	-11.78125	1	0.6083984375
3049.630859375	0.00833333333333333	0	30	3.95625	2	0.6845703125
3052.3564453125	0.00833333333333333	0	-30	-11.78125	1	0.5517578125
3120.61328125	0.00833333333333333	0	30	3.95625	2	0.7841796875
3123.546875	0.00833333333333333	0	-30	-11.78125	2	0.6591796875
3126.37109375	0.00833333333333333	0	30	3.95625	2	0.4990234375
3129.4130859375	0.00833333333333333	0	-30	-11.78125	2	0.5048828125
3132.3544921875	0.00833333333333333	0	-30	-11.78125	2	0.6357421875
3135.3544921875	0.00833333333333333	0	-30	-11.78125	2	0.587890625
3138.4462890625	0.00833333333333333	0	30	3.95625	2	0.5595703125
3141.49609375	0.00833333333333333	0	30	3.83125	2	0.5498046875
3144.279296875	0.00833333333333333	0	30	3.83125	2	0.54296875
3146.9130859375	0.00833333333333333	0	-30	-11.78125	2	0.58203125
3149.61328125	0.00833333333333333	0	30	3.83125	2	0.4736328125
3152.48828125	0.00833333333333333	0	-30	-11.90625	2	0.5830078125
3155.4541015625	0.00833333333333333	0	30	3.83125	2	0.560546875
3158.078125	0.00833333333333333	0	30	3.83125	2	0.5205078125
3161.029296875	0.00833333333333333	0	-30	-11.90625	2	0.490234375
3163.74609375	0.00833333333333333	0	30	3.70625	2	0.5810546875
3166.8623046875	0.00833333333333333	0	-30	-11.90625	2	0.609375
3169.6123046875	0.00833333333333333	0	30	3.70625	1	1.68359375
3173.62109375	0.00833333333333333	0	30	3.70625	2	0.6103515625
3176.6279296875	0.00833333333333333	0	-30	-11.90625	2	0.7314453125
3179.779296875	0.00833333333333333	0	-30	-11.90625	1	0.7080078125
3182.962890625	0.00833333333333333	0	-30	-11.90625	1	0.708984375
3186.0458984375	0.00833333333333333	0	-30	-11.90625	1	0.642578125
3188.9453125	0.00833333333333333	0	-30	-11.90625	1	0.55078125
3191.654296875	0.00833333333333333	0	-30	-11.90625	1	0.6181640625
3194.6708984375	0.00833333333333333	0	30	3.70625	2	0.5849609375
3197.787109375	0.00833333333333333	0	30	3.70625	2	0.525390625
3200.87890625	0.00833333333333333	0	-30	-11.78125	2	0.4814453125
3203.603515625	0.00833333333333333	0	-30	-11.78125	2	0.62109375
3206.4619140625	0.00833333333333333	0	30	3.70625	2	0.6748046875
3209.228515625	0.00833333333333333	0	30	3.70625	2	0.572265625
3212.0791015625	0.00833333333333333	0	30	3.58125	2	0.8818359375
3215.3525390625	0.00833333333333333	0	30	3.58125	1	0.576171875
3218.1455078125	0.00833333333333333	0	-30	-11.78125	1	0.7275390625
3221.01953125	0.00833333333333333	0	30	3.58125	1	0.693359375
3224.095703125	0.00833333333333333	0	-30	-11.78125	1	0.4970703125
3226.677734375	0.00833333333333333	0	30	3.58125	1	0.435546875
3229.236328125	0.00833333333333333	0	30	3.58125	1	0.4453125
3232.0703125	0.00833333333333333	0	30	3.58125	1	0.37109375
3234.7783203125	0.00833333333333333	0	30	3.70625	1	0.470703125
3237.794921875	0.00833333333333333	0	-30	-11.78125	1	0.7822265625
3240.953125	0.00833333333333333	0	-30	-11.78125	1	0.65625
3243.9453125	0.00833333333333333	0	-30	-11.78125	1	0.4404296875
3246.7119140625	0.00833333333333333	0	30	3.70625	1	0.6494140625
3249.8271484375	0.00833333333333333	0	30	3.70625	1	0.6787109375
3252.935546875	0.00833333333333333	0	-30	-11.65625	1	0.6181640625
3255.919921875	0.00833333333333333	0	30	3.70625	1	0.7060546875
3258.9365234375	0.00833333333333333	0	-30	-11.65625	1	0.6572265625
3262.068359375	0.00833333333333333	0	30	3.70625	2	0.58203125
3264.828125	0.00833333333333333	0	-30	-11.65625	2	0.5341796875
3267.818359375	0.00833333333333333	0	30	3.70625	2	0.5771484375
3270.5947265625	0.00833333333333333	0	30	3.70625	2	0.576171875
3273.4365234375	0.00833333333333333	0	30	3.70625	2	0.5263671875
3276.1611328125	0.00833333333333333	0	30	3.70625	2	0.865234375
3279.1943359375	0.00833333333333333	0	-30	-11.65625	1	0.6962890625
3282.1689453125	0.00833333333333333	0	30	3.58125	2	0.5302734375
3284.802734375	0.00833333333333333	0	30	3.58125	2	0.6005859375
3287.8857421875	0.00833333333333333	0	-30	-11.65625	2	0.58203125
3290.5947265625	0.00833333333333333	0	-30	-11.65625	2	0.552734375
3293.4443359375	0.00833333333333333	0	30	3.58125	1	0.638671875
3296.244140625	0.00833333333333333	0	-30	-11.65625	1	0.4072265625
3298.7763671875	0.00833333333333333	0	30	3.58125	1	0.5390625
3301.3603515625	0.00833333333333333	0	-30	-11.65625	1	0.603515625
3304.4189453125	0.00833333333333333	0	-30	-11.65625	1	0.5126953125
3307.3271484375	0.00833333333333333	0	30	3.58125	2	0.4443359375
3309.91015625	0.00833333333333333	0	30	3.58125	2	0.5419921875
3312.5439453125	0.00833333333333333	0	-30	-11.65625	1	0.5478515625
3315.1015625	0.00833333333333333	0	30	3.58125	2	0.5185546875
3317.8349609375	0.00833333333333333	0	-30	-11.65625	2	1.0888671875
3321.3359375	0.00833333333333333	0	-30	-11.65625	2	0.716796875
3324.2099609375	0.00833333333333333	0	30	3.58125	2	0.5302734375
3326.8515625	0.00833333333333333	0	-30	-11.65625	2	0.47265625
3329.818359375	0.00833333333333333	0	30	3.58125	1	0.642578125
3332.5341796875	0.00833333333333333	0	30	3.58125	2	0.501953125
3335.2939453125	0.00833333333333333	0	-30	-11.65625	1	0.462890625
3337.9189453125	0.00833333333333333	0	-30	-11.65625	1	0.7822265625
3340.8173828125	0.00833333333333333	0	30	3.58125	1	1.1396484375
3344.318359375	0.00833333333333333	0	-30	-11.65625	1	0.54296875
3347.3935546875	0.00833333333333333	0	30	3.58125	2	0.515625
3350.03515625	0.00833333333333333	0	30	3.58125	2	0.521484375
3406.076171875	0.00833333333333333	0	30	3.58125	2	0.70703125
3409.1337890625	0.00833333333333333	0	-30	-11.65625	1	0.625
3411.9169921875	0.00833333333333333	0	-30	-11.65625	1	0.6591796875
3414.8505859375	0.00833333333333333	0	-30	-11.53125	1	0.5009765625
3417.6171875	0.00833333333333333	0	30	3.58125	2	0.501953125
3420.3505859375	0.00833333333333333	0	-30	-11.53125	2	0.47265625
3423.1005859375	0.00833333333333333	0	30	3.58125	2	0.4267578125
3425.8837890625	0.00833333333333333	0	-30	-11.53125	2	0.5478515625
3428.93359375	0.00833333333333333	0	-30	-11.53125	2	0.578125
3431.642578125	0.00833333333333333	0	-30	-11.53125	2	0.62109375
3434.7001953125	0.00833333333333333	0	30	3.45625	2	0.69921875
3437.5751953125	0.00833333333333333	0	30	3.45625	2	0.45703125
3440.55859375	0.00833333333333333	0	-30	-11.53125	2	0.5849609375
3443.591796875	0.00833333333333333	0	-30	-11.65625	2	0.5361328125
3446.2333984375	0.00833333333333333	0	30	3.45625	2	0.8876953125
3449.3173828125	0.00833333333333333	0	-30	-11.65625	2	0.53125
3452.3251953125	0.00833333333333333	0	30	3.45625	1	0.4755859375
3455.2001953125	0.00833333333333333	0	30	3.45625	2	0.6484375
3458.0498046875	0.00833333333333333	0	-30	-11.65625	2	0.4384765625
3460.6416015625	0.00833333333333333	0	30	3.45625	2	0.6953125
3463.8837890625	0.00833333333333333	0	30	3.45625	1	0.5087890625
3466.4833984375	0.00833333333333333	0	30	3.45625	1	0.669921875
3469.265625	0.00833333333333333	0	30	3.45625	2	0.7431640625
3472.115234375	0.00833333333333333	0	-30	-11.65625	2	0.4541015625
3474.81640625	0.00833333333333333	0	30	3.45625	2	0.6884765625
3477.9580078125	0.00833333333333333	0	30	3.45625	2	0.71484375
3481.232421875	0.00833333333333333	0	30	3.45625	2	1.208984375
3484.974609375	0.00833333333333333	0	30	3.45625	2	0.5234375
3487.783203125	0.00833333333333333	0	-30	-11.65625	2	0.5947265625
3490.908203125	0.00833333333333333	0	30	3.33125	2	0.5498046875
3493.607421875	0.00833333333333333	0	30	3.33125	2	0.73828125
3496.5244140625	0.00833333333333333	0	-30	-11.78125	2	0.5009765625
3499.5068359375	0.00833333333333333	0	-30	-11.78125	2	0.55078125
3502.2490234375	0.00833333333333333	0	-30	-11.78125	2	0.537109375
3504.9814453125	0.00833333333333333	0	30	3.33125	2	0.4921875
3507.58984375	0.00833333333333333	0	-30	-11.78125	2	0.5966796875
3510.4580078125	0.00833333333333333	0	-30	-11.78125	2	0.6005859375
3513.33984375	0.00833333333333333	0	30	3.33125	2	0.5185546875
3516.1162109375	0.00833333333333333	0	30	3.33125	2	0.478515625
3518.8828125	0.00833333333333333	0	30	3.20625	2	0.4560546875
3521.6240234375	0.00833333333333333	0	-30	-11.90625	2	0.4267578125
3524.5244140625	0.00833333333333333	0	-30	-11.90625	2	0.3828125
3527.2412109375	0.00833333333333333	0	-30	-11.90625	2	0.4814453125
3530.1826171875	0.00833333333333333	0	30	3.20625	2	0.4365234375
3533.173828125	0.00833333333333333	0	30	3.20625	2	0.46875
3535.8994140625	0.00833333333333333	0	-30	-11.90625	2	0.4873046875
3538.4990234375	0.00833333333333333	0	-30	-11.90625	2	0.5205078125
3541.3818359375	0.00833333333333333	0	30	3.20625	2	0.4697265625
3544.07421875	0.00833333333333333	0	30	3.20625	2	0.4169921875
3546.890625	0.00833333333333333	0	30	3.08125	2	0.46484375
3549.865234375	0.00833333333333333	0	30	3.08125	2	0.4267578125
3552.865234375	0.00833333333333333	0	30	3.08125	2	0.4423828125
3555.45703125	0.00833333333333333	0	30	3.08125	2	0.6513671875
3558.45703125	0.00833333333333333	0	-30	-12.03125	2	0.642578125
3561.3740234375	0.00833333333333333	0	-30	-12.03125	2	0.7177734375
3564.2822265625	0.00833333333333333	0	30	3.08125	2	0.6416015625
3567.255859375	0.00833333333333333	0	30	2.95625	2	0.556640625
3570.08203125	0.00833333333333333	0	30	2.95625	2	0.4580078125
3572.78125	0.00833333333333333	0	-30	-12.03125	2	0.50390625
3575.431640625	0.00833333333333333	0	30	2.95625	2	0.4609375
3578.3486328125	0.00833333333333333	0	30	2.95625	1	0.4560546875
3581.240234375	0.00833333333333333	0	-30	-12.03125	1	0.755859375
3584.0478515625	0.00833333333333333	0	-30	-12.03125	1	0.388671875
3586.7646484375	0.00833333333333333	0	30	2.95625	1	0.6640625
3589.78125	0.00833333333333333	0	30	2.95625	1	0.5830078125
3592.4814453125	0.00833333333333333	0	30	2.95625	1	0.4912109375
3595.056640625	0.00833333333333333	0	-30	-12.03125	1	0.7646484375
3597.97265625	0.00833333333333333	0	-30	-12.03125	1	0.720703125
3600.8232421875	0.00833333333333333	0	-30	-12.03125	2	0.486328125
3603.4482421875	0.00833333333333333	0	30	2.95625	2	0.4765625
3606.0888671875	0.00833333333333333	0	30	2.95625	1	0.453125
3608.7978515625	0.00833333333333333	0	-30	-12.03125	1	0.4560546875
3611.5732421875	0.00833333333333333	0	30	2.95625	1	0.408203125
3614.0634765625	0.00833333333333333	0	-30	-12.03125	1	0.6142578125
3616.7392578125	0.00833333333333333	0	-30	-12.03125	1	0.3388671875
3619.15625	0.00833333333333333	0	30	2.95625	1	0.513671875
3621.822265625	0.00833333333333333	0	-30	-12.03125	1	0.431640625
3624.388671875	0.00833333333333333	0	30	2.95625	1	0.43359375
3627.0556640625	0.00833333333333333	0	-30	-12.03125	1	0.55078125
3630.087890625	0.00833333333333333	0	-30	-11.90625	1	0.5263671875
3678.5966796875	0.00833333333333333	0	30	2.95625	2	0.6669921875
3681.3466796875	0.00833333333333333	0	-30	-11.90625	1	0.62109375
3683.98828125	0.00833333333333333	0	-30	-11.90625	1	0.5556640625
3686.8623046875	0.00833333333333333	0	30	2.95625	2	0.7861328125
3689.8466796875	0.00833333333333333	0	-30	-11.90625	2	0.7294921875
3692.712890625	0.00833333333333333	0	30	2.95625	2	1.0234375
3695.8212890625	0.00833333333333333	0	30	2.95625	1	0.642578125
3698.830078125	0.00833333333333333	0	30	2.95625	1	0.4501953125
3701.4794921875	0.00833333333333333	0	-30	-11.90625	2	0.5771484375
3704.5048828125	0.00833333333333333	0	30	2.95625	2	0.4794921875
3707.0380859375	0.00833333333333333	0	30	2.95625	2	0.458984375
3709.99609375	0.00833333333333333	0	30	2.95625	2	0.4443359375
3712.771484375	0.00833333333333333	0	-30	-11.90625	2	0.4931640625
3715.5380859375	0.00833333333333333	0	30	2.95625	2	0.4150390625
3718.0791015625	0.00833333333333333	0	30	2.95625	2	0.3857421875
3720.904296875	0.00833333333333333	0	30	2.83125	2	0.384765625
3723.5205078125	0.00833333333333333	0	30	2.83125	2	0.6962890625
3726.6962890625	0.00833333333333333	0	-30	-11.90625	2	0.44140625
3729.3115234375	0.00833333333333333	0	-30	-11.90625	2	0.3779296875
3731.845703125	0.00833333333333333	0	-30	-12.03125	1	0.8115234375
3734.970703125	0.00833333333333333	0	30	2.83125	1	0.52734375
3737.9541015625	0.00833333333333333	0	-30	-12.03125	1	0.52734375
3740.970703125	0.00833333333333333	0	30	2.83125	1	0.3671875
3743.6455078125	0.00833333333333333	0	30	2.83125	1	0.388671875
3746.1953125	0.00833333333333333	0	30	2.83125	1	0.3271484375
3749.037109375	0.00833333333333333	0	30	2.83125	1	0.349609375
3751.720703125	0.00833333333333333	0	-30	-12.03125	1	0.3369140625
3754.1376953125	0.00833333333333333	0	30	2.95625	1	0.3681640625
3756.912109375	0.00833333333333333	0	30	2.95625	1	0.337890625
3759.3125	0.00833333333333333	0	30	2.95625	1	0.3701171875
3762.1201171875	0.00833333333333333	0	-30	-12.03125	1	0.3466796875
3764.87890625	0.00833333333333333	0	-30	-12.03125	1	0.36328125
3767.7705078125	0.00833333333333333	0	-30	-11.90625	1	0.328125
3770.5205078125	0.00833333333333333	0	30	2.95625	1	0.2978515625
3773.13671875	0.00833333333333333	0	30	2.95625	1	0.314453125
3775.5703125	0.00833333333333333	0	30	3.08125	1	0.3125
3777.919921875	0.00833333333333333	0	30	3.08125	1	0.3798828125
3780.5869140625	0.00833333333333333	0	-30	-11.90625	1	0.328125
3782.986328125	0.00833333333333333	0	-30	-11.90625	1	0.3203125
3785.787109375	0.00833333333333333	0	30	3.08125	2	0.84765625
3788.9287109375	0.00833333333333333	0	-30	-11.90625	2	0.5869140625
3791.611328125	0.00833333333333333	0	-30	-11.90625	1	0.423828125
3794.162109375	0.00833333333333333	0	30	3.08125	2	0.5615234375
3796.919921875	0.00833333333333333	0	-30	-11.90625	2	0.515625
3799.62890625	0.00833333333333333	0	30	3.08125	2	0.6865234375
3802.603515625	0.00833333333333333	0	-30	-11.90625	1	0.9443359375
3805.9951171875	0.00833333333333333	0	-30	-11.90625	1	0.5283203125
3808.6611328125	0.00833333333333333	0	30	3.08125	2	0.7744140625
3811.9619140625	0.00833333333333333	0	-30	-11.90625	2	0.505859375
3814.9287109375	0.00833333333333333	0	-30	-11.90625	2	0.515625
3817.88671875	0.00833333333333333	0	-30	-11.90625	1	0.533203125
3820.7021484375	0.00833333333333333	0	30	3.08125	2	0.4697265625
3823.3447265625	0.00833333333333333	0	30	2.95625	2	0.580078125
3826.3525390625	0.00833333333333333	0	30	2.95625	2	0.4599609375
3829.14453125	0.00833333333333333	0	-30	-11.90625	2	0.572265625
3831.7861328125	0.00833333333333333	0	30	2.95625	2	0.466796875
3834.5947265625	0.00833333333333333	0	30	2.95625	2	0.7138671875
3837.71875	0.00833333333333333	0	30	2.95625	2	0.845703125
3840.861328125	0.00833333333333333	0	30	2.83125	2	0.6240234375
3843.6357421875	0.00833333333333333	0	30	2.83125	2	0.78515625
3846.7607421875	0.00833333333333333	0	-30	-11.90625	1	1.052734375
3850.3857421875	0.00833333333333333	0	30	2.83125	2	0.6591796875
3853.6357421875	0.00833333333333333	0	-30	-11.90625	2	0.625
3856.52734375	0.00833333333333333	0	-30	-11.90625	2	0.57421875
3859.486328125	0.00833333333333333	0	30	2.83125	1	0.54296875
3862.3779296875	0.00833333333333333	0	30	2.83125	1	0.5400390625
3865.2861328125	0.00833333333333333	0	-30	-11.90625	1	0.6552734375
3868.4111328125	0.00833333333333333	0	-30	-11.90625	1	0.611328125
3871.177734375	0.00833333333333333	0	-30	-11.90625	1	0.5166015625
3874.185546875	0.00833333333333333	0	-30	-11.90625	1	0.548828125
3877.0107421875	0.00833333333333333	0	-30	-11.90625	1	0.5791015625
3879.884765625	0.00833333333333333	0	30	2.83125	2	1.0732421875
3883.234375	0.00833333333333333	0	30	2.83125	2	0.595703125
3886.03515625	0.00833333333333333	0	-30	-11.78125	1	0.859375
3889.310546875	0.00833333333333333	0	30	2.83125	2	0.49609375
3891.9775390625	0.00833333333333333	0	-30	-11.78125	2	0.8291015625
3895.3515625	0.00833333333333333	0	-30	-11.78125	2	0.52734375
3898.1767578125	0.00833333333333333	0	-30	-11.78125	2	0.4775390625
3900.9853515625	0.00833333333333333	0	-30	-11.78125	2	0.59765625
3904.0517578125	0.00833333333333333	0	-30	-11.78125	2	0.611328125
3934.1435546875	0.00833333333333333	0	30	2.83125	1	1.193359375
3937.66796875	0.00833333333333333	0	-30	-11.90625	1	0.5322265625
3940.509765625	0.00833333333333333	0	-30	-11.90625	1	0.6025390625
3943.451171875	0.00833333333333333	0	-30	-11.90625	1	0.541015625
3946.3251953125	0.00833333333333333	0	30	2.83125	2	0.962890625
3949.634765625	0.00833333333333333	0	-30	-11.90625	1	0.6298828125
3952.326171875	0.00833333333333333	0	-30	-11.90625	1	0.505859375
3954.9931640625	0.00833333333333333	0	30	2.83125	1	0.51171875
3958.017578125	0.00833333333333333	0	-30	-11.78125	1	0.9033203125
3961.2431640625	0.00833333333333333	0	-30	-11.78125	1	0.62109375
3964.384765625	0.00833333333333333	0	-30	-11.78125	2	1.1123046875
3967.5927734375	0.00833333333333333	0	-30	-11.78125	1	0.6162109375
3970.5263671875	0.00833333333333333	0	-30	-11.78125	1	0.5068359375
3973.3095703125	0.00833333333333333	0	30	2.83125	2	0.771484375
3976.333984375	0.00833333333333333	0	-30	-11.78125	2	0.53125
3979.267578125	0.00833333333333333	0	-30	-11.78125	2	0.853515625
3982.576171875	0.00833333333333333	0	-30	-11.78125	2	0.5927734375
3985.3828125	0.00833333333333333	0	-30	-11.78125	2	0.5146484375
3988.2841796875	0.00833333333333333	0	-30	-11.78125	2	0.541015625
3991.2919921875	0.00833333333333333	0	30	2.83125	2	0.501953125
3994.0087890625	0.00833333333333333	0	-30	-11.90625	2	0.5205078125
3996.8837890625	0.00833333333333333	0	-30	-11.90625	2	0.5498046875
3999.5087890625	0.00833333333333333	0	-30	-11.90625	2	0.517578125
4002.4912109375	0.00833333333333333	0	-30	-11.90625	2	0.3916015625
4005.4423828125	0.00833333333333333	0	30	2.83125	2	0.4560546875
4008.125	0.00833333333333333	0	-30	-11.90625	2	0.59765625
4011.083984375	0.00833333333333333	0	30	2.83125	2	0.5341796875
4013.7666015625	0.00833333333333333	0	-30	-12.03125	2	0.4755859375
4016.6005859375	0.00833333333333333	0	-30	-12.03125	1	0.6337890625
4019.400390625	0.00833333333333333	0	30	2.83125	1	0.5625
4022.44140625	0.00833333333333333	0	30	2.83125	2	0.5615234375
4025.1171875	0.00833333333333333	0	-30	-12.03125	2	0.61328125
4028.2421875	0.00833333333333333	0	30	2.83125	2	0.65625
4031.4580078125	0.00833333333333333	0	30	2.83125	2	0.560546875
4034.4248046875	0.00833333333333333	0	30	2.83125	2	0.59375
4037.3662109375	0.00833333333333333	0	-30	-12.03125	2	0.5009765625
4039.9833984375	0.00833333333333333	0	30	2.83125	2	0.4599609375
4042.5751953125	0.00833333333333333	0	30	2.70625	2	0.5
4045.6328125	0.00833333333333333	0	30	2.70625	2	0.3701171875
4048.2236328125	0.00833333333333333	0	30	2.70625	2	0.4755859375
4051.158203125	0.00833333333333333	0	-30	-12.03125	2	0.4931640625
4053.69921875	0.00833333333333333	0	-30	-12.03125	2	0.3603515625
4056.599609375	0.00833333333333333	0	30	2.70625	2	0.31640625
4059.0244140625	0.00833333333333333	0	30	2.70625	2	0.3955078125
4061.533203125	0.00833333333333333	0	30	2.58125	2	0.4384765625
4064.4658203125	0.00833333333333333	0	30	2.58125	2	0.2900390625
4066.875	0.00833333333333333	0	-30	-12.03125	2	0.4248046875
4069.5	0.00833333333333333	0	-30	-12.15625	2	0.6328125
4072.4658203125	0.00833333333333333	0	-30	-12.15625	1	0.6982421875
4075.3408203125	0.00833333333333333	0	30	2.58125	2	0.4072265625
4077.857421875	0.00833333333333333	0	30	2.58125	1	0.53125
4080.4580078125	0.00833333333333333	0	-30	-12.15625	1	0.5146484375
4083.3740234375	0.00833333333333333	0	-30	-12.15625	1	0.478515625
4085.9658203125	0.00833333333333333	0	-30	-12.15625	1	1.302734375
4089.798828125	0.00833333333333333	0	-30	-12.15625	1	0.5419921875
4092.7822265625	0.00833333333333333	0	30	2.58125	1	0.654296875
4095.798828125	0.00833333333333333	0	30	2.58125	2	0.4384765625
4098.3740234375	0.00833333333333333	0	-30	-12.03125	1	0.439453125
4100.9482421875	0.00833333333333333	0	30	2.58125	1	0.9287109375
4103.9736328125	0.00833333333333333	0	-30	-12.03125	1	0.4638671875
4106.5654296875	0.00833333333333333	0	30	2.58125	2	1.79296875
4110.548828125	0.00833333333333333	0	-30	-12.03125	1	0.6728515625
4113.732421875	0.00833333333333333	0	-30	-12.03125	1	0.5693359375
4116.615234375	0.00833333333333333	0	30	2.58125	1	0.5908203125
4119.640625	0.00833333333333333	0	-30	-12.03125	1	0.541015625
4122.431640625	0.00833333333333333	0	30	2.58125	1	0.5263671875
4125.1064453125	0.00833333333333333	0	-30	-11.90625	1	0.4677734375
4127.6318359375	0.00833333333333333	0	30	2.58125	1	0.390625
4130.2314453125	0.00833333333333333	0	30	2.58125	1	0.455078125
4133.08984375	0.00833333333333333	0	-30	-11.90625	1	0.4609375
4135.748046875	0.00833333333333333	0	-30	-11.90625	1	0.451171875
4138.7314453125	0.00833333333333333	0	-30	-11.90625	1	0.451171875
4141.4736328125	0.00833333333333333	0	30	2.58125	1	0.525390625
4144.2646484375	0.00833333333333333	0	-30	-11.90625	1	0.509765625
4147.1220703125	0.00833333333333333	0	-30	-11.78125	1	0.4365234375
4149.7646484375	0.00833333333333333	0	-30	-11.78125	1	0.3779296875
4152.505859375	0.00833333333333333	0	-30	-11.78125	1	0.4130859375
4155.33203125	0.00833333333333333	0	-30	-11.78125	1	0.3310546875
4157.7978515625	0.00833333333333333	0	-30	-11.78125	1	0.46484375
4160.615234375	0.00833333333333333	0	-30	-11.65625	1	0.767578125
4199.65625	0.00833333333333333	0	-30	-11.65625	1	0.8876953125
4202.9892578125	0.00833333333333333	0	30	2.70625	2	0.5869140625
4206.0390625	0.00833333333333333	0	-30	-11.65625	2	0.6572265625
4208.97265625	0.00833333333333333	0	-30	-11.65625	1	0.763671875
4211.9970703125	0.00833333333333333	0	-30	-11.65625	1	0.580078125
4214.73046875	0.00833333333333333	0	30	2.70625	2	0.630859375
4217.513671875	0.00833333333333333	0	-30	-11.65625	1	0.54296875
4220.3056640625	0.00833333333333333	0	30	2.70625	2	0.7998046875
4223.296875	0.00833333333333333	0	30	2.70625	2	1.16015625
4226.5556640625	0.00833333333333333	0	-30	-11.65625	2	0.61328125
4229.421875	0.00833333333333333	0	-30	-11.65625	2	0.8037109375
4232.712890625	0.00833333333333333	0	30	2.70625	2	0.7685546875
4236.0224609375	0.00833333333333333	0	-30	-11.65625	2	0.787109375
4239.2548828125	0.00833333333333333	0	30	2.58125	2	0.5546875
4242.1552734375	0.00833333333333333	0	30	2.58125	2	0.734375
4245.404296875	0.00833333333333333	0	30	2.58125	2	0.5498046875
4248.0302734375	0.00833333333333333	0	-30	-11.65625	2	0.5234375
4250.73828125	0.00833333333333333	0	30	2.58125	2	0.7998046875
4253.9296875	0.00833333333333333	0	-30	-11.65625	2	0.583984375
4256.8544921875	0.00833333333333333	0	-30	-11.78125	2	0.587890625
4259.8134765625	0.00833333333333333	0	30	2.58125	2	1.30078125
4263.4052734375	0.00833333333333333	0	-30	-11.78125	1	0.388671875
4266.12109375	0.00833333333333333	0	30	2.45625	2	0.7216796875
4268.99609375	0.00833333333333333	0	30	2.45625	2	0.6943359375
4272.0634765625	0.00833333333333333	0	30	2.45625	2	0.603515625
4275.103515625	0.00833333333333333	0	-30	-11.78125	1	0.6591796875
4277.87109375	0.00833333333333333	0	-30	-11.78125	1	0.8125
4281.044921875	0.00833333333333333	0	30	2.45625	2	0.7021484375
4284.1376953125	0.00833333333333333	0	-30	-11.78125	1	0.537109375
4286.7958984375	0.00833333333333333	0	30	2.45625	1	0.935546875
4289.9287109375	0.00833333333333333	0	30	2.45625	2	0.626953125
4293.1376953125	0.00833333333333333	0	-30	-11.78125	1	0.609375
4296.0458984375	0.00833333333333333	0	-30	-11.65625	1	0.5009765625
4299.0126953125	0.00833333333333333	0	30	2.45625	1	1.53515625
4302.771484375	0.00833333333333333	0	-30	-11.65625	1	0.5439453125
4305.5126953125	0.00833333333333333	0	-30	-11.65625	1	0.5791015625
4308.12890625	0.00833333333333333	0	-30	-11.65625	1	0.466796875
4310.87109375	0.00833333333333333	0	30	2.45625	1	0.4765625
4313.6962890625	0.00833333333333333	0	30	2.45625	1	0.5712890625
4316.5458984375	0.00833333333333333	0	30	2.45625	1	0.505859375
4319.1875	0.00833333333333333	0	-30	-11.65625	1	0.4892578125
4321.8037109375	0.00833333333333333	0	-30	-11.53125	1	0.4248046875
4324.294921875	0.00833333333333333	0	30	2.45625	1	0.3818359375
4327.1123046875	0.00833333333333333	0	30	2.58125	1	0.4208984375
4330.0693359375	0.00833333333333333	0	30	2.58125	1	0.3271484375
4332.662109375	0.00833333333333333	0	-30	-11.53125	1	0.310546875
4335.1123046875	0.00833333333333333	0	-30	-11.53125	1	0.396484375
4338.0458984375	0.00833333333333333	0	30	2.58125	1	0.294921875
4340.5458984375	0.00833333333333333	0	30	2.58125	1	0.3466796875
4343.419921875	0.00833333333333333	0	-30	-11.53125	1	0.4013671875
4346.0615234375	0.00833333333333333	0	-30	-11.53125	1	0.34375
4348.88671875	0.00833333333333333	0	-30	-11.40625	1	0.3427734375
4351.6787109375	0.00833333333333333	0	-30	-11.40625	1	0.302734375
4354.0869140625	0.00833333333333333	0	30	2.58125	1	0.3505859375
4356.6865234375	0.00833333333333333	0	30	2.70625	1	0.3505859375
4359.13671875	0.00833333333333333	0	30	2.70625	1	0.30078125
4361.544921875	0.00833333333333333	0	30	2.70625	1	0.3408203125
4364.2451171875	0.00833333333333333	0	-30	-11.40625	1	0.3046875
4366.6787109375	0.00833333333333333	0	-30	-11.40625	1	0.375
4369.369140625	0.00833333333333333	0	-30	-11.40625	1	0.29296875
4372.1201171875	0.00833333333333333	0	30	2.70625	1	0.3017578125
4374.978515625	0.00833333333333333	0	-30	-11.28125	1	0.291015625
4377.703125	0.00833333333333333	0	-30	-11.28125	1	0.287109375
4380.044921875	0.00833333333333333	0	30	2.70625	1	0.3935546875
4382.6201171875	0.00833333333333333	0	30	2.83125	1	0.345703125
4385.3115234375	0.00833333333333333	0	-30	-11.28125	1	0.3828125
4388.228515625	0.00833333333333333	0	-30	-11.28125	1	0.43359375
4391.0703125	0.00833333333333333	0	30	2.83125	1	1.056640625
4394.5703125	0.00833333333333333	0	30	2.83125	1	0.828125
4397.4775390625	0.00833333333333333	0	-30	-11.28125	1	0.7294921875
4400.26953125	0.00833333333333333	0	30	2.83125	1	0.9208984375
4403.5615234375	0.00833333333333333	0	-30	-11.15625	1	0.5732421875
4406.203125	0.00833333333333333	0	-30	-11.15625	2	1.34765625
4410.14453125	0.00833333333333333	0	30	2.83125	2	0.662109375
4413.15234375	0.00833333333333333	0	30	2.83125	1	1.4072265625
4417.0029296875	0.00833333333333333	0	30	2.83125	1	0.572265625
4419.7529296875	0.00833333333333333	0	30	2.83125	1	0.5185546875
4422.4609375	0.00833333333333333	0	-30	-11.15625	1	0.626953125
4425.486328125	0.00833333333333333	0	30	2.83125	2	1.185546875
4429.052734375	0.00833333333333333	0	-30	-11.15625	1	0.7314453125
