onset	duration	titr	surround	centre	response	rt
277.0009765625	0.00833333333333333	1	-30	-15	1	1.1455078125
280.1845703125	0.00833333333333333	1	-30	-14	1	0.75390625
283.3515625	0.00833333333333333	1	30	-15	1	1.2021484375
286.708984375	0.00833333333333333	1	NaN	15	2	0.4375
289.2021484375	0.00833333333333333	1	30	-14	1	0.48046875
291.7177734375	0.00833333333333333	1	30	-13	1	0.380859375
294.30078125	0.00833333333333333	1	-30	-13	2	0.7578125
297.216796875	0.00833333333333333	1	NaN	14	2	0.41015625
299.875	0.00833333333333333	1	-30	15	2	0.5283203125
302.775390625	0.00833333333333333	1	-30	-14	1	0.6513671875
305.5751953125	0.00833333333333333	1	30	-12	1	0.4111328125
308.091796875	0.00833333333333333	1	-30	-13	2	0.6474609375
310.8916015625	0.00833333333333333	1	NaN	-15	1	0.375
313.591796875	0.00833333333333333	1	-30	-14	1	0.626953125
316.466796875	0.00833333333333333	1	NaN	13	2	0.46484375
319.0419921875	0.00833333333333333	1	NaN	12	2	0.44921875
321.9580078125	0.00833333333333333	1	30	-11	1	0.3251953125
324.7578125	0.00833333333333333	1	NaN	-14	1	0.4296875
327.2744140625	0.00833333333333333	1	30	-10	1	0.4013671875
329.9501953125	0.00833333333333333	1	NaN	11	2	0.40625
332.4501953125	0.00833333333333333	1	NaN	-13	1	0.3857421875
335.1083984375	0.00833333333333333	1	-30	-13	2	0.455078125
337.69921875	0.00833333333333333	1	-30	14	2	0.384765625
340.375	0.00833333333333333	1	NaN	-12	1	0.365234375
343.158203125	0.00833333333333333	1	NaN	-11	1	0.4453125
345.8828125	0.00833333333333333	1	NaN	-10	1	0.4091796875
348.58203125	0.00833333333333333	1	-30	-14	2	0.3818359375
351.32421875	0.00833333333333333	1	-30	13	2	0.3603515625
353.724609375	0.00833333333333333	1	-30	-15	1	0.744140625
356.9326171875	0.00833333333333333	1	-30	12	2	0.5439453125
359.8896484375	0.00833333333333333	1	NaN	-9	1	0.3955078125
362.4326171875	0.00833333333333333	1	-30	11	2	0.419921875
365.3662109375	0.00833333333333333	1	NaN	10	2	0.4228515625
368.306640625	0.00833333333333333	1	NaN	-8	1	0.41796875
371.1572265625	0.00833333333333333	1	-30	-14	1	0.4482421875
373.673828125	0.00833333333333333	1	NaN	-7	2	0.4833984375
376.45703125	0.00833333333333333	1	-30	-13	2	0.67578125
379.2314453125	0.00833333333333333	1	30	-9	1	0.4853515625
381.982421875	0.00833333333333333	1	NaN	9	2	0.5908203125
384.8486328125	0.00833333333333333	1	NaN	-8	1	0.5166015625
387.6826171875	0.00833333333333333	1	NaN	-7	1	0.4267578125
390.57421875	0.00833333333333333	1	-30	-14	1	0.6630859375
393.3154296875	0.00833333333333333	1	30	15	2	0.4658203125
395.9326171875	0.00833333333333333	1	-30	-13	1	0.5126953125
398.7490234375	0.00833333333333333	1	30	-8	1	0.5048828125
401.6572265625	0.00833333333333333	1	NaN	8	2	0.3642578125
404.056640625	0.00833333333333333	1	NaN	-6	1	0.4775390625
407.08203125	0.00833333333333333	1	30	14	2	0.3876953125
409.923828125	0.00833333333333333	1	30	-7	1	0.474609375
412.6240234375	0.00833333333333333	1	NaN	7	2	0.390625
415.1318359375	0.00833333333333333	1	-30	-12	1	0.39453125
417.58203125	0.00833333333333333	1	-30	-11	1	0.5126953125
420.4072265625	0.00833333333333333	1	NaN	-5	2	0.3671875
423.197265625	0.00833333333333333	1	30	-6	1	0.4970703125
426.0732421875	0.00833333333333333	1	30	13	2	0.453125
428.615234375	0.00833333333333333	1	NaN	6	2	0.4638671875
431.5234375	0.00833333333333333	1	30	12	2	0.7314453125
434.3818359375	0.00833333333333333	1	NaN	-6	1	0.75390625
437.53125	0.00833333333333333	1	-30	-10	2	0.6279296875
440.2802734375	0.00833333333333333	1	30	11	2	0.4072265625
442.990234375	0.00833333333333333	1	30	-5	1	0.392578125
445.5400390625	0.00833333333333333	1	30	-4	1	0.5390625
448.6142578125	0.00833333333333333	1	30	10	2	0.544921875
451.306640625	0.00833333333333333	1	NaN	-5	1	0.4208984375
453.9638671875	0.00833333333333333	1	NaN	5	2	0.3154296875
456.7890625	0.00833333333333333	1	NaN	4	2	0.474609375
459.7724609375	0.00833333333333333	1	-30	10	2	0.458984375
462.3232421875	0.00833333333333333	1	30	9	2	0.5009765625
464.90625	0.00833333333333333	1	-30	-11	1	0.7021484375
467.78125	0.00833333333333333	1	30	8	2	0.466796875
470.630859375	0.00833333333333333	1	30	-3	1	0.544921875
473.4814453125	0.00833333333333333	1	30	-2	1	0.798828125
476.6142578125	0.00833333333333333	1	30	7	2	1.1376953125
480.0888671875	0.00833333333333333	1	NaN	-4	1	0.6552734375
483.22265625	0.00833333333333333	1	NaN	-3	2	33.115234375
518.462890625	0.00833333333333333	1	NaN	3	2	0.4990234375
521.0302734375	0.00833333333333333	1	NaN	2	2	0.4111328125
523.6708984375	0.00833333333333333	1	NaN	-4	1	0.6513671875
526.638671875	0.00833333333333333	1	-30	9	2	0.4990234375
529.4970703125	0.00833333333333333	1	30	-1	1	0.5693359375
532.3212890625	0.00833333333333333	1	NaN	-3	1	0.6806640625
535.23046875	0.00833333333333333	1	30	6	2	0.6201171875
538.0302734375	0.00833333333333333	1	-30	8	2	0.484375
540.8955078125	0.00833333333333333	1	30	0	1	0.634765625
543.779296875	0.00833333333333333	1	30	5	2	0.455078125
546.396484375	0.00833333333333333	1	-30	7	2	0.4697265625
549.080078125	0.00833333333333333	1	NaN	1	2	0.474609375
551.8798828125	0.00833333333333333	1	-30	6	2	0.4423828125
554.37109375	0.00833333333333333	1	30	4	2	0.6796875
557.0966796875	0.00833333333333333	1	30	1	2	0.6826171875
560.212890625	0.00833333333333333	1	30	3	1	1.142578125
563.4794921875	0.00833333333333333	1	NaN	0	2	0.4833984375
566.462890625	0.00833333333333333	1	NaN	-1	1	0.6044921875
569.521484375	0.00833333333333333	1	NaN	0	2	0.4658203125
572.2216796875	0.00833333333333333	1	NaN	-2	1	3.5732421875
613.3779296875	0.00833333333333333	1	-30	5	2	0.6103515625
616.12890625	0.00833333333333333	1	NaN	-1	1	0.595703125
618.75390625	0.00833333333333333	1	NaN	0	2	0.6025390625
621.5615234375	0.00833333333333333	1	NaN	-1	2	0.755859375
624.662109375	0.00833333333333333	1	NaN	-1	2	0.630859375
627.26171875	0.00833333333333333	1	NaN	-2	1	0.5595703125
630.15234375	0.00833333333333333	1	30	4	1	0.701171875
633.0537109375	0.00833333333333333	1	NaN	-2	1	1.52734375
636.5869140625	0.00833333333333333	1	NaN	-1	2	0.73046875
639.328125	0.00833333333333333	1	-30	4	2	0.4775390625
642.15234375	0.00833333333333333	1	NaN	-1	2	0.4296875
644.861328125	0.00833333333333333	1	-30	3	2	0.416015625
647.7607421875	0.00833333333333333	1	30	0	1	0.4775390625
650.64453125	0.00833333333333333	1	30	5	2	1.0654296875
653.8193359375	0.00833333333333333	1	-30	2	2	0.5703125
656.4609375	0.00833333333333333	1	-30	1	2	0.45703125
658.9443359375	0.00833333333333333	1	30	1	1	0.5419921875
661.869140625	0.00833333333333333	1	-30	0	2	0.43359375
664.501953125	0.00833333333333333	1	-30	-1	2	0.48828125
667.16015625	0.00833333333333333	1	30	4	1	0.55078125
669.84375	0.00833333333333333	1	30	5	2	0.5546875
672.4951171875	0.00833333333333333	1	NaN	-2	2	0.3994140625
675.1611328125	0.00833333333333333	1	NaN	-2	1	0.4296875
677.876953125	0.00833333333333333	1	30	4	1	0.689453125
680.59375	0.00833333333333333	1	30	2	2	0.716796875
683.6611328125	0.00833333333333333	1	-30	-2	2	0.578125
686.39453125	0.00833333333333333	1	-30	-3	2	0.5244140625
688.96875	0.00833333333333333	1	30	1	1	0.654296875
691.6767578125	0.00833333333333333	1	30	5	1	0.658203125
694.7685546875	0.00833333333333333	1	NaN	-3	1	0.6630859375
697.8017578125	0.00833333333333333	1	-30	-4	2	0.4697265625
700.494140625	0.00833333333333333	1	-30	-5	2	0.537109375
703.5517578125	0.00833333333333333	1	30	6	1	0.5673828125
706.3193359375	0.00833333333333333	1	30	7	1	1.1767578125
709.66796875	0.00833333333333333	1	30	8	2	0.412109375
712.1513671875	0.00833333333333333	1	30	2	1	0.4560546875
715.09375	0.00833333333333333	1	NaN	-2	1	0.72265625
718.193359375	0.00833333333333333	1	-30	-6	2	0.55078125
721.0009765625	0.00833333333333333	1	NaN	-1	1	0.951171875
724.1767578125	0.00833333333333333	1	30	3	1	0.599609375
727.1845703125	0.00833333333333333	1	30	4	1	0.52734375
729.826171875	0.00833333333333333	1	30	7	2	0.87109375
733.0771484375	0.00833333333333333	1	30	5	1	1.2109375
736.634765625	0.00833333333333333	1	-30	-7	2	0.677734375
739.392578125	0.00833333333333333	1	-30	-8	2	0.5361328125
742.2607421875	0.00833333333333333	1	30	6	1	1.3720703125
746.076171875	0.00833333333333333	1	30	6	2	0.6845703125
749.0263671875	0.00833333333333333	1	NaN	0	1	0.57421875
751.759765625	0.00833333333333333	1	30	5	2	1.169921875
755.1259765625	0.00833333333333333	1	30	7	2	0.9072265625
758.150390625	0.00833333333333333	1	NaN	1	2	1.123046875
761.42578125	0.00833333333333333	1	-30	-9	2	1.3515625
765.1923828125	0.00833333333333333	1	30	6	2	0.529296875
767.8173828125	0.00833333333333333	1	NaN	0	2	0.7041015625
770.759765625	0.00833333333333333	1	NaN	-1	2	0.9619140625
773.9423828125	0.00833333333333333	1	30	5	2	0.443359375
776.775390625	0.00833333333333333	1	30	4	1	0.7705078125
779.8837890625	0.00833333333333333	1	30	4	2	0.669921875
782.826171875	0.00833333333333333	1	30	5	2	0.591796875
785.5	0.00833333333333333	1	NaN	-2	2	0.5419921875
788.333984375	0.00833333333333333	1	30	3	1	0.908203125
791.525390625	0.00833333333333333	1	30	4	1	0.876953125
794.4921875	0.00833333333333333	1	30	5	2	0.6298828125
797.5419921875	0.00833333333333333	1	30	4	2	0.6689453125
800.18359375	0.00833333333333333	1	-30	-10	2	0.6513671875
803.1083984375	0.00833333333333333	1	30	3	1	0.7587890625
806.1416015625	0.00833333333333333	1	30	4	2	0.6611328125
809.216796875	0.00833333333333333	1	-30	-11	1	0.642578125
811.8505859375	0.00833333333333333	1	30	4	2	0.6806640625
814.94140625	0.00833333333333333	1	30	3	2	0.8212890625
817.7421875	0.00833333333333333	1	-30	-10	1	0.7412109375
820.650390625	0.00833333333333333	1	-30	-9	2	1.28125
824.3583984375	0.00833333333333333	1	-30	-10	1	0.685546875
827.275390625	0.00833333333333333	1	-30	-9	2	0.6640625
830.31640625	0.00833333333333333	1	30	2	2	0.775390625
833.5751953125	0.00833333333333333	1	NaN	-3	2	0.7001953125
836.5078125	0.00833333333333333	1	30	1	1	0.751953125
839.7333984375	0.00833333333333333	1	-30	-10	2	0.7587890625
842.908203125	0.00833333333333333	1	-30	-11	1	0.6640625
845.849609375	0.00833333333333333	1	NaN	-4	1	0.5302734375
848.541015625	0.00833333333333333	1	NaN	-3	1	1.0869140625
851.724609375	0.00833333333333333	1	NaN	-2	2	0.576171875
854.408203125	0.00833333333333333	1	-30	-10	1	0.5
857.107421875	0.00833333333333333	1	-30	-9	2	0.7373046875
860.0908203125	0.00833333333333333	1	-30	-10	1	1.43359375
863.8076171875	0.00833333333333333	1	NaN	-3	2	0.5810546875
866.7822265625	0.00833333333333333	1	-30	-9	1	0.623046875
869.849609375	0.00833333333333333	1	NaN	-4	1	0.8349609375
872.982421875	0.00833333333333333	1	-30	-8	2	0.654296875
876.1328125	0.00833333333333333	1	-30	-9	1	0.5517578125
878.724609375	0.00833333333333333	1	NaN	-3	2	0.7529296875
881.732421875	0.00833333333333333	1	-30	-8	1	0.6572265625
884.8486328125	0.00833333333333333	1	-30	-7	1	0.5966796875
887.7236328125	0.00833333333333333	1	-30	-6	2	0.650390625
890.7744140625	0.00833333333333333	1	NaN	-1.75	2	0.6318359375
893.6240234375	0.00833333333333333	1	30	4.83333333333333	2	0.5498046875
896.44921875	0.00833333333333333	1	30	4.70833333333333	1	0.484375
899.107421875	0.00833333333333333	1	-30	-10.25	1	0.9541015625
902.2412109375	0.00833333333333333	1	NaN	-1.875	2	0.556640625
904.9990234375	0.00833333333333333	1	30	4.83333333333333	2	0.966796875
908.1982421875	0.00833333333333333	1	-30	-10.125	2	1.392578125
911.6982421875	0.00833333333333333	1	30	3.83333333333333	1	0.66015625
923.45703125	0.00833333333333333	1	NaN	-2	1	0.8212890625
926.71484375	0.00833333333333333	1	-30	-10.25	1	0.724609375
929.798828125	0.00833333333333333	1	30	3.95833333333333	1	0.6240234375
932.6650390625	0.00833333333333333	1	30	4.08333333333333	2	1.494140625
936.2900390625	0.00833333333333333	1	30	4.70833333333333	2	0.95703125
939.498046875	0.00833333333333333	1	30	3.95833333333333	1	1.2529296875
943.0908203125	0.00833333333333333	1	-30	-10.125	1	0.8046875
945.998046875	0.00833333333333333	1	-30	-11.25	1	0.705078125
948.71484375	0.00833333333333333	1	-30	-10	1	0.66015625
951.439453125	0.00833333333333333	1	30	4.08333333333333	1	0.759765625
954.2822265625	0.00833333333333333	1	NaN	-1.875	2	1.0849609375
957.7900390625	0.00833333333333333	1	NaN	-2	2	0.5703125
960.6240234375	0.00833333333333333	1	-30	-9.875	1	0.8798828125
963.607421875	0.00833333333333333	1	NaN	-2.125	2	0.82421875
966.4814453125	0.00833333333333333	1	30	4.20833333333333	2	0.7822265625
969.4814453125	0.00833333333333333	1	30	4.08333333333333	2	0.814453125
972.4306640625	0.00833333333333333	1	NaN	-2.75	1	0.6416015625
975.47265625	0.00833333333333333	1	30	4.58333333333333	2	1.0078125
978.7890625	0.00833333333333333	1	NaN	-2.625	2	0.515625
981.447265625	0.00833333333333333	1	NaN	-2.25	2	0.5615234375
984.48046875	0.00833333333333333	1	NaN	-2.75	1	0.5927734375
987.3896484375	0.00833333333333333	1	-30	-9.75	1	1.0908203125
990.72265625	0.00833333333333333	1	-30	-11.125	1	0.6220703125
993.447265625	0.00833333333333333	1	30	4.45833333333333	2	2.0498046875
997.7392578125	0.00833333333333333	1	NaN	-2.625	1	0.693359375
1000.513671875	0.00833333333333333	1	-30	-9.625	2	0.9912109375
1003.697265625	0.00833333333333333	1	30	3.95833333333333	1	1.2802734375
1007.388671875	0.00833333333333333	1	-30	-9.75	1	1.220703125
1011.0302734375	0.00833333333333333	1	30	4.33333333333333	2	0.859375
1014.189453125	0.00833333333333333	1	NaN	-2.5	1	2.0283203125
1018.2724609375	0.00833333333333333	1	30	4.08333333333333	2	0.9375
1021.3720703125	0.00833333333333333	1	-30	-9.625	1	0.5498046875
1024.421875	0.00833333333333333	1	NaN	-2.375	2	0.46875
1027.2548828125	0.00833333333333333	1	30	4.20833333333333	2	0.69921875
1030.1640625	0.00833333333333333	1	NaN	-2.375	1	0.6298828125
1032.9638671875	0.00833333333333333	1	-30	-11	1	1.0546875
1036.138671875	0.00833333333333333	1	NaN	-2.25	2	0.54296875
1039.10546875	0.00833333333333333	1	30	3.95833333333333	2	0.5205078125
1041.85546875	0.00833333333333333	1	NaN	-2.5	2	0.6591796875
1044.8134765625	0.00833333333333333	1	NaN	-2.375	1	0.60546875
1047.7802734375	0.00833333333333333	1	-30	-9.5	1	1.0458984375
1051.1796875	0.00833333333333333	1	-30	-9.375	2	0.951171875
1054.6220703125	0.00833333333333333	1	NaN	-2.625	2	0.5732421875
1057.580078125	0.00833333333333333	1	NaN	-2.25	2	0.5263671875
1060.462890625	0.00833333333333333	1	-30	-10.875	1	0.5888671875
1063.4462890625	0.00833333333333333	1	-30	-9.5	1	0.564453125
1066.462890625	0.00833333333333333	1	NaN	-2.375	2	0.8681640625
1069.4638671875	0.00833333333333333	1	NaN	-2.75	2	0.5556640625
1072.212890625	0.00833333333333333	1	NaN	-2.875	2	0.822265625
1075.1220703125	0.00833333333333333	1	NaN	-2.5	1	1.177734375
1078.35546875	0.00833333333333333	1	30	4.08333333333333	2	0.81640625
1081.470703125	0.00833333333333333	1	-30	-10.75	1	0.7890625
1084.23828125	0.00833333333333333	1	30	3.95833333333333	2	1.26171875
1087.546875	0.00833333333333333	1	-30	-10.625	1	0.720703125
1090.5634765625	0.00833333333333333	1	30	3.83333333333333	2	0.640625
1093.37109375	0.00833333333333333	1	NaN	-3	1	0.7373046875
1096.5458984375	0.00833333333333333	1	-30	-10.5	1	0.6025390625
1099.5625	0.00833333333333333	1	30	3.70833333333333	2	0.8017578125
1102.4541015625	0.00833333333333333	1	-30	-9.375	1	1.333984375
1106.095703125	0.00833333333333333	1	-30	-10.375	1	0.98828125
1109.0546875	0.00833333333333333	1	NaN	-2.375	2	0.6376953125
1111.720703125	0.00833333333333333	1	30	3.83333333333333	2	1.0126953125
1115.12890625	0.00833333333333333	1	NaN	-2.5	1	0.763671875
1118.3876953125	0.00833333333333333	1	NaN	-2.375	1	1.0087890625
1121.5869140625	0.00833333333333333	1	30	3.58333333333333	2	0.578125
1124.6953125	0.00833333333333333	1	NaN	-2.25	1	1.5419921875
1128.6787109375	0.00833333333333333	1	30	3.45833333333333	2	0.5986328125
1131.5205078125	0.00833333333333333	1	NaN	-2.125	2	1.5166015625
1135.2041015625	0.00833333333333333	1	NaN	-2.25	1	0.7529296875
1138.228515625	0.00833333333333333	1	30	3.33333333333333	2	0.5537109375
1140.9287109375	0.00833333333333333	1	-30	-10.25	1	0.6767578125
1143.970703125	0.00833333333333333	1	NaN	-2.875	2	0.5546875
1146.63671875	0.00833333333333333	1	-30	-9.25	1	0.6572265625
1149.662109375	0.00833333333333333	1	-30	-9.125	1	0.5517578125
1152.294921875	0.00833333333333333	1	-30	-9	2	0.703125
1155.3955078125	0.00833333333333333	1	NaN	-3	1	1.04296875
1158.8369140625	0.00833333333333333	1	30	3.70833333333333	2	0.5771484375
1161.5283203125	0.00833333333333333	1	NaN	-2.875	1	1.0615234375
1164.88671875	0.00833333333333333	1	NaN	-2.125	2	0.759765625
1167.76171875	0.00833333333333333	1	-30	-10.125	1	0.78125
1170.8203125	0.00833333333333333	1	30	3.20833333333333	1	4.04296875
1177.1611328125	0.00833333333333333	1	NaN	-2.75	1	0.701171875
1179.89453125	0.00833333333333333	1	NaN	-2.25	1	1.16796875
1183.419921875	0.00833333333333333	1	30	3.33333333333333	1	1.1630859375
1186.6875	0.00833333333333333	1	-30	-9.125	1	1.591796875
1190.494140625	0.00833333333333333	1	-30	-9	1	0.7294921875
1193.3525390625	0.00833333333333333	1	-30	-8.875	1	0.7421875
1196.1953125	0.00833333333333333	1	30	3.58333333333333	2	0.67578125
1199.361328125	0.00833333333333333	1	NaN	-2.125	1	0.654296875
1202.1708984375	0.00833333333333333	1	-30	-10	2	1.5888671875
1206.0693359375	0.00833333333333333	1	-30	-10.125	1	0.619140625
1208.7109375	0.00833333333333333	1	-30	-10	1	0.705078125
1211.5947265625	0.00833333333333333	1	-30	-8.75	2	0.861328125
1214.6611328125	0.00833333333333333	1	30	3.45833333333333	2	0.6748046875
1217.76953125	0.00833333333333333	1	30	3.45833333333333	1	0.6943359375
1220.8115234375	0.00833333333333333	1	NaN	-2.625	1	1.1806640625
1237.3603515625	0.00833333333333333	1	NaN	-2	2	0.6806640625
1240.39453125	0.00833333333333333	1	-30	-8.875	1	0.7578125
1243.5439453125	0.00833333333333333	1	30	3.58333333333333	1	0.9365234375
1246.935546875	0.00833333333333333	1	30	3.70833333333333	1	0.9853515625
1249.8857421875	0.00833333333333333	1	NaN	-2.125	2	0.771484375
1252.6357421875	0.00833333333333333	1	-30	-9.875	1	0.4619140625
1255.4853515625	0.00833333333333333	1	30	3.83333333333333	2	0.4833984375
1258.2265625	0.00833333333333333	1	-30	-9.75	2	0.56640625
1261.068359375	0.00833333333333333	1	NaN	-2.25	1	0.4853515625
1263.65234375	0.00833333333333333	1	-30	-9.875	1	0.4853515625
1266.2275390625	0.00833333333333333	1	30	3.33333333333333	1	0.5185546875
1268.9609375	0.00833333333333333	1	-30	-9.75	1	0.45703125
1271.7431640625	0.00833333333333333	1	-30	-9.625	1	0.474609375
1274.361328125	0.00833333333333333	1	NaN	-2.125	2	0.537109375
1277.376953125	0.00833333333333333	1	30	3.45833333333333	2	0.5126953125
1280.2939453125	0.00833333333333333	1	NaN	-2.5	1	0.4443359375
1283.1513671875	0.00833333333333333	1	30	3.70833333333333	2	0.5869140625
1285.734375	0.00833333333333333	1	-30	-9.5	1	0.4921875
1288.634765625	0.00833333333333333	1	30	3.58333333333333	2	0.5830078125
1291.59375	0.00833333333333333	1	-30	-8.75	1	0.6572265625
1294.3017578125	0.00833333333333333	1	30	3.45833333333333	2	0.6689453125
1297.2509765625	0.00833333333333333	1	-30	-9.375	1	0.927734375
1300.201171875	0.00833333333333333	1	30	3.33333333333333	2	0.529296875
1302.7685546875	0.00833333333333333	1	30	3.20833333333333	1	0.8583984375
1305.892578125	0.00833333333333333	1	-30	-8.625	1	0.9423828125
1309.28515625	0.00833333333333333	1	30	3.33333333333333	2	0.974609375
1312.3515625	0.00833333333333333	1	-30	-8.5	1	1.5234375
1316.3505859375	0.00833333333333333	1	-30	-8.375	1	0.6923828125
1319.3681640625	0.00833333333333333	1	NaN	-2.375	1	0.6669921875
1322.05078125	0.00833333333333333	1	NaN	-2.25	2	0.728515625
1324.826171875	0.00833333333333333	1	30	3.20833333333333	2	0.77734375
1328.0009765625	0.00833333333333333	1	30	3.33333333333333	1	1.4189453125
1331.5087890625	0.00833333333333333	1	NaN	-2.375	1	0.958984375
1334.642578125	0.00833333333333333	1	-30	-9.25	1	0.6328125
1337.3837890625	0.00833333333333333	1	-30	-9.125	1	0.7958984375
1340.17578125	0.00833333333333333	1	30	3.08333333333333	1	0.587890625
1343.18359375	0.00833333333333333	1	-30	-8.25	1	0.7001953125
1346.150390625	0.00833333333333333	1	-30	-9	2	1.1181640625
1349.4423828125	0.00833333333333333	1	-30	-9.125	1	0.810546875
1352.67578125	0.00833333333333333	1	30	3.45833333333333	2	1.056640625
1355.9091796875	0.00833333333333333	1	30	3.33333333333333	1	0.6552734375
1358.716796875	0.00833333333333333	1	30	3.45833333333333	1	0.6162109375
1361.591796875	0.00833333333333333	1	30	3.58333333333333	1	0.62109375
1364.591796875	0.00833333333333333	1	-30	-9	1	0.693359375
1367.3095703125	0.00833333333333333	1	30	3.70833333333333	1	0.775390625
1370.3095703125	0.00833333333333333	1	NaN	-2.25	1	0.599609375
1373.083984375	0.00833333333333333	1	-30	-8.125	1	0.6494140625
1375.900390625	0.00833333333333333	1	30	3.83333333333333	1	0.9130859375
1378.900390625	0.00833333333333333	1	-30	-8.875	1	1.13671875
1382.2333984375	0.00833333333333333	1	NaN	-2.125	1	0.5322265625
1385.1171875	0.00833333333333333	1	30	3.20833333333333	1	0.6083984375
1388.091796875	0.00833333333333333	1	-30	-8	1	0.9375
1391.392578125	0.00833333333333333	1	NaN	-2	2	0.4453125
1394.2666015625	0.00833333333333333	1	-30	-7.875	1	0.7314453125
1397.158203125	0.00833333333333333	1	NaN	-2.125	1	0.7919921875
1400.3994140625	0.00833333333333333	1	NaN	-2	1	0.6865234375
1403.56640625	0.00833333333333333	1	-30	-8.75	2	1.83984375
1407.5595703125	0.00833333333333333	1	30	3.95833333333333	1	0.7666015625
1410.30859375	0.00833333333333333	1	30	4.08333333333333	1	0.7138671875
1413.1171875	0.00833333333333333	1	30	3.33333333333333	1	0.705078125
1416.19140625	0.00833333333333333	1	-30	-7.75	1	0.7509765625
1418.9248046875	0.00833333333333333	1	-30	-7.625	2	0.658203125
1421.892578125	0.00833333333333333	1	NaN	-1.875	2	0.5302734375
1424.5576171875	0.00833333333333333	1	30	3.45833333333333	1	1.1689453125
1428.015625	0.00833333333333333	1	NaN	-2	2	0.9990234375
1431.3583984375	0.00833333333333333	1	30	3.58333333333333	1	1.0888671875
1434.982421875	0.00833333333333333	1	30	3.70833333333333	1	0.7041015625
1437.9072265625	0.00833333333333333	1	-30	-8.875	1	0.6513671875
1440.857421875	0.00833333333333333	1	30	3.83333333333333	1	0.662109375
1443.541015625	0.00833333333333333	1	NaN	-2.125	1	1.330078125
1447.1240234375	0.00833333333333333	1	30	3.95833333333333	2	0.458984375
1449.7822265625	0.00833333333333333	1	-30	-7.75	1	0.529296875
1452.6240234375	0.00833333333333333	1	NaN	-2	1	0.671875
1455.4990234375	0.00833333333333333	1	30	3.83333333333333	1	1.125
1458.83203125	0.00833333333333333	1	30	4.20833333333333	1	0.607421875
1461.8076171875	0.00833333333333333	1	30	4.33333333333333	1	0.568359375
1464.5078125	0.00833333333333333	1	30	3.95833333333333	1	1.7880859375
1468.3662109375	0.00833333333333333	1	-30	-7.625	1	1.185546875
1471.5908203125	0.00833333333333333	1	30	4.45833333333333	2	0.6650390625
1474.20703125	0.00833333333333333	1	-30	-7.5	1	0.5537109375
1477.0234375	0.00833333333333333	1	30	4.33333333333333	1	0.697265625
1479.70703125	0.00833333333333333	1	30	4.45833333333333	1	0.7333984375
1482.4482421875	0.00833333333333333	1	-30	-8.75	2	0.888671875
1485.541015625	0.00833333333333333	1	30	4.58333333333333	1	0.69921875
1488.4658203125	0.00833333333333333	1	30	4.70833333333333	1	0.7109375
1491.4150390625	0.00833333333333333	1	-30	-7.375	1	0.6259765625
1494.140625	0.00833333333333333	1	30	4.83333333333333	2	0.892578125
1497.20703125	0.00833333333333333	1	30	4.08333333333333	1	0.5224609375
1500.173828125	0.00833333333333333	1	30	4.20833333333333	1	0.546875
1503.0400390625	0.00833333333333333	1	-30	-8.875	1	0.544921875
1505.673828125	0.00833333333333333	1	30	4.70833333333333	2	0.8232421875
1508.681640625	0.00833333333333333	1	30	4.33333333333333	1	1.3203125
1512.1728515625	0.00833333333333333	1	-30	-7.25	1	0.876953125
1515.248046875	0.00833333333333333	1	30	4.58333333333333	2	0.537109375
1517.9228515625	0.00833333333333333	1	-30	-8.75	1	0.7431640625
1520.7060546875	0.00833333333333333	1	-30	-7.125	1	0.51171875
1523.3642578125	0.00833333333333333	1	NaN	-1.875	2	0.93359375
1526.8310546875	0.00833333333333333	1	30	4.45833333333333	1	0.619140625
1529.46484375	0.00833333333333333	1	-30	-7	1	0.7294921875
1532.3310546875	0.00833333333333333	1	30	4.58333333333333	1	0.6953125
1535.0732421875	0.00833333333333333	1	-30	-8.625	1	0.529296875
1554.35546875	0.00833333333333333	1	-30	-6.875	1	0.7197265625
1557.3974609375	0.00833333333333333	1	-30	-6.75	1	0.6298828125
1560.35546875	0.00833333333333333	1	30	4.70833333333333	1	0.6953125
1563.1142578125	0.00833333333333333	1	30	4.83333333333333	1	0.5849609375
1565.78125	0.00833333333333333	1	-30	-6.625	2	0.58984375
1568.388671875	0.00833333333333333	1	-30	-8.5	1	0.638671875
1571.0390625	0.00833333333333333	1	30	4.95833333333333	2	0.572265625
1574.0556640625	0.00833333333333333	1	NaN	-2	2	0.1875
1576.490234375	0.00833333333333333	1	NaN	-2.125	1	0.697265625
1579.671875	0.00833333333333333	1	30	4.45833333333333	2	0.8994140625
1582.697265625	0.00833333333333333	1	NaN	-2	1	0.73046875
1585.5224609375	0.00833333333333333	1	NaN	-1.875	1	0.537109375
1588.0966796875	0.00833333333333333	1	-30	-8.375	1	0.619140625
1590.84765625	0.00833333333333333	1	30	4.33333333333333	1	0.5966796875
1593.421875	0.00833333333333333	1	NaN	-1.75	2	0.88671875
1596.7724609375	0.00833333333333333	1	30	4.45833333333333	2	0.6796875
1599.697265625	0.00833333333333333	1	NaN	-1.875	1	0.7548828125
1602.85546875	0.00833333333333333	1	-30	-8.25	1	0.60546875
1605.6552734375	0.00833333333333333	1	30	4.33333333333333	1	0.7255859375
1608.5146484375	0.00833333333333333	1	-30	-6.75	2	1.0263671875
1611.921875	0.00833333333333333	1	-30	-6.875	1	0.5869140625
1614.8046875	0.00833333333333333	1	30	4.45833333333333	1	0.576171875
1617.380859375	0.00833333333333333	1	-30	-8.125	2	0.9443359375
1620.2978515625	0.00833333333333333	1	-30	-6.75	2	0.70703125
1623.3212890625	0.00833333333333333	1	30	4.58333333333333	1	0.7314453125
1626.4462890625	0.00833333333333333	1	-30	-8.25	1	2.5673828125
1631.3046875	0.00833333333333333	1	30	4.70833333333333	1	0.64453125
1634.1298828125	0.00833333333333333	1	-30	-8.125	2	0.763671875
1637.146484375	0.00833333333333333	1	-30	-8.25	1	0.5712890625
1639.830078125	0.00833333333333333	1	-30	-8.125	1	0.6240234375
1642.4716796875	0.00833333333333333	1	-30	-8	1	1.421875
1646.212890625	0.00833333333333333	1	30	4.83333333333333	1	0.7529296875
1649.271484375	0.00833333333333333	1	30	4.95833333333333	1	1.0546875
1652.396484375	0.00833333333333333	1	-30	-7.875	1	4.41015625
1658.87109375	0.00833333333333333	1	-30	-7.75	2	2.9189453125
1664.3125	0.00833333333333333	1	30	5.08333333333333	2	0.4462890625
1666.9130859375	0.00833333333333333	1	30	4.95833333333333	2	0.7890625
1669.8798828125	0.00833333333333333	1	30	4.83333333333333	2	0.55078125
1672.6962890625	0.00833333333333333	1	30	4.70833333333333	1	0.462890625
1675.25390625	0.00833333333333333	0	30	4.10208333333333	2	0.5849609375
1678.345703125	0.00833333333333333	0	-30	-8.2875	2	0.7333984375
1681.1875	0.00833333333333333	0	30	4.10208333333333	2	0.5791015625
1684.1044921875	0.00833333333333333	0	-30	-8.2875	1	0.56640625
1686.712890625	0.00833333333333333	0	30	4.10208333333333	1	0.6865234375
1689.75390625	0.00833333333333333	0	-30	-8.2875	1	0.669921875
1692.587890625	0.00833333333333333	0	30	4.10208333333333	1	0.5390625
1695.345703125	0.00833333333333333	0	30	4.10208333333333	1	0.486328125
1697.912109375	0.00833333333333333	0	30	4.10208333333333	2	0.7353515625
1701.00390625	0.00833333333333333	0	30	4.10208333333333	2	0.740234375
1704.1201171875	0.00833333333333333	0	30	4.10208333333333	2	0.775390625
1707.287109375	0.00833333333333333	0	-30	-8.2875	1	0.552734375
1710.0283203125	0.00833333333333333	0	-30	-8.2875	1	0.68359375
1713.1044921875	0.00833333333333333	0	-30	-8.2875	1	0.5830078125
1715.9453125	0.00833333333333333	0	-30	-8.1625	2	1.3349609375
1719.5703125	0.00833333333333333	0	30	4.10208333333333	1	1.181640625
1722.8447265625	0.00833333333333333	0	-30	-8.1625	1	1.0751953125
1726.412109375	0.00833333333333333	0	-30	-8.1625	2	0.5322265625
1729.0283203125	0.00833333333333333	0	-30	-8.1625	1	0.587890625
1731.7529296875	0.00833333333333333	0	-30	-8.1625	2	1.18359375
1735.0537109375	0.00833333333333333	0	30	4.10208333333333	2	1.0107421875
1738.2119140625	0.00833333333333333	0	-30	-8.1625	1	0.9326171875
1741.3037109375	0.00833333333333333	0	30	4.10208333333333	2	0.6337890625
1744.00390625	0.00833333333333333	0	30	4.10208333333333	2	0.6845703125
1746.7529296875	0.00833333333333333	0	30	4.10208333333333	2	0.4404296875
1749.228515625	0.00833333333333333	0	-30	-8.1625	1	0.5966796875
1751.8369140625	0.00833333333333333	0	30	4.10208333333333	1	0.8359375
1754.9033203125	0.00833333333333333	0	-30	-8.1625	2	1.7060546875
1758.828125	0.00833333333333333	0	30	4.10208333333333	2	0.7978515625
1761.5869140625	0.00833333333333333	0	-30	-8.1625	1	1.5908203125
1765.744140625	0.00833333333333333	0	30	4.10208333333333	2	0.44921875
1768.50390625	0.00833333333333333	0	30	4.10208333333333	2	0.6259765625
1771.3701171875	0.00833333333333333	0	30	4.10208333333333	2	0.8154296875
1774.2783203125	0.00833333333333333	0	-30	-8.1625	1	0.779296875
1777.1279296875	0.00833333333333333	0	30	4.10208333333333	1	0.59375
1779.8525390625	0.00833333333333333	0	30	4.10208333333333	1	0.830078125
1783.0361328125	0.00833333333333333	0	30	4.10208333333333	1	0.7744140625
1785.8857421875	0.00833333333333333	0	30	4.10208333333333	1	0.6767578125
1788.5693359375	0.00833333333333333	0	30	4.10208333333333	1	0.6171875
1791.4443359375	0.00833333333333333	0	30	4.22708333333333	1	0.6064453125
1794.2529296875	0.00833333333333333	0	30	4.22708333333333	2	0.8857421875
1797.64453125	0.00833333333333333	0	30	4.22708333333333	2	0.7978515625
1800.8359375	0.00833333333333333	0	-30	-8.1625	2	1.9267578125
1804.84375	0.00833333333333333	0	-30	-8.1625	1	0.615234375
1807.4951171875	0.00833333333333333	0	30	4.22708333333333	1	0.8837890625
1810.4111328125	0.00833333333333333	0	-30	-8.1625	1	0.6318359375
1813.3193359375	0.00833333333333333	0	30	4.22708333333333	1	0.7236328125
1816.2099609375	0.00833333333333333	0	-30	-8.1625	1	0.6416015625
1819.15234375	0.00833333333333333	0	30	4.22708333333333	2	0.5869140625
1821.7275390625	0.00833333333333333	0	-30	-8.1625	1	0.63671875
1824.703125	0.00833333333333333	0	30	4.22708333333333	2	0.63671875
1827.4853515625	0.00833333333333333	0	-30	-8.1625	1	1.7900390625
1831.328125	0.00833333333333333	0	-30	-8.0375	1	0.451171875
1833.828125	0.00833333333333333	0	-30	-8.0375	1	0.51171875
1836.626953125	0.00833333333333333	0	30	4.22708333333333	2	0.46484375
1839.068359375	0.00833333333333333	0	-30	-8.0375	1	0.51171875
1841.7099609375	0.00833333333333333	0	30	4.22708333333333	1	0.7578125
1844.5859375	0.00833333333333333	0	-30	-8.0375	1	0.4345703125
1847.126953125	0.00833333333333333	0	-30	-8.0375	1	0.4296875
1849.5439453125	0.00833333333333333	0	30	4.22708333333333	2	0.732421875
1852.4599609375	0.00833333333333333	0	30	4.22708333333333	1	0.7685546875
1855.251953125	0.00833333333333333	0	-30	-7.9125	1	0.80859375
1858.2763671875	0.00833333333333333	0	30	4.22708333333333	1	0.9765625
1861.4599609375	0.00833333333333333	0	-30	-7.9125	1	0.544921875
1864.4345703125	0.00833333333333333	0	30	4.22708333333333	1	1.330078125
1868.017578125	0.00833333333333333	0	30	4.22708333333333	1	1.3388671875
1871.5771484375	0.00833333333333333	0	30	4.22708333333333	1	1.5234375
1875.193359375	0.00833333333333333	0	-30	-7.9125	1	0.484375
1877.9091796875	0.00833333333333333	0	30	4.35208333333333	2	0.7041015625
1880.8271484375	0.00833333333333333	0	-30	-7.9125	1	0.4423828125
1883.4599609375	0.00833333333333333	0	30	4.35208333333333	2	0.44140625
1886.2509765625	0.00833333333333333	0	30	4.35208333333333	1	0.634765625
1888.9677734375	0.00833333333333333	0	-30	-7.9125	1	0.654296875
1891.609375	0.00833333333333333	0	30	4.35208333333333	1	1.6845703125
1895.8095703125	0.00833333333333333	0	30	4.35208333333333	1	0.796875
1898.9921875	0.00833333333333333	0	30	4.35208333333333	1	0.4296875
1901.833984375	0.00833333333333333	0	30	4.35208333333333	1	0.580078125
1904.8837890625	0.00833333333333333	0	-30	-7.7875	1	0.6181640625
1907.9853515625	0.00833333333333333	0	-30	-7.7875	1	0.533203125
1910.767578125	0.00833333333333333	0	-30	-7.7875	2	0.638671875
1965.93359375	0.00833333333333333	0	30	4.47708333333333	2	0.9541015625
1968.908203125	0.00833333333333333	0	30	4.47708333333333	1	0.5556640625
1971.7412109375	0.00833333333333333	0	-30	-7.7875	1	0.474609375
1974.4248046875	0.00833333333333333	0	30	4.47708333333333	2	0.439453125
1977.1494140625	0.00833333333333333	0	-30	-7.7875	1	0.435546875
1979.6826171875	0.00833333333333333	0	-30	-7.7875	1	0.4140625
1982.1669921875	0.00833333333333333	0	-30	-7.7875	2	0.5537109375
1984.892578125	0.00833333333333333	0	-30	-7.7875	1	0.484375
1987.3916015625	0.00833333333333333	0	-30	-7.7875	1	0.5615234375
1989.9912109375	0.00833333333333333	0	-30	-7.7875	2	0.578125
1992.5908203125	0.00833333333333333	0	30	4.47708333333333	1	0.5537109375
1995.3740234375	0.00833333333333333	0	30	4.47708333333333	1	0.474609375
1998.033203125	0.00833333333333333	0	-30	-7.7875	1	0.50390625
2000.8662109375	0.00833333333333333	0	-30	-7.7875	1	0.51953125
2003.7744140625	0.00833333333333333	0	-30	-7.7875	2	0.5068359375
2006.5576171875	0.00833333333333333	0	30	4.47708333333333	2	0.8671875
2009.6328125	0.00833333333333333	0	-30	-7.7875	2	0.640625
2012.7412109375	0.00833333333333333	0	-30	-7.7875	1	0.65234375
2015.3828125	0.00833333333333333	0	30	4.47708333333333	2	0.626953125
2018.0830078125	0.00833333333333333	0	-30	-7.7875	1	0.703125
2020.8662109375	0.00833333333333333	0	-30	-7.7875	1	0.607421875
2023.57421875	0.00833333333333333	0	30	4.47708333333333	1	0.5400390625
2026.275390625	0.00833333333333333	0	-30	-7.7875	2	0.6865234375
2029.0654296875	0.00833333333333333	0	30	4.47708333333333	1	1.537109375
2032.8408203125	0.00833333333333333	0	30	4.47708333333333	1	0.689453125
2035.923828125	0.00833333333333333	0	-30	-7.7875	1	0.89453125
2039.3408203125	0.00833333333333333	0	30	4.47708333333333	2	0.60546875
2042.2734375	0.00833333333333333	0	30	4.47708333333333	2	0.7294921875
2045.1904296875	0.00833333333333333	0	-30	-7.7875	1	1.33984375
2048.5654296875	0.00833333333333333	0	30	4.47708333333333	1	0.6455078125
2051.5078125	0.00833333333333333	0	30	4.47708333333333	1	0.7265625
2054.33203125	0.00833333333333333	0	-30	-7.7875	1	1.2392578125
2057.7900390625	0.00833333333333333	0	-30	-7.7875	2	0.6689453125
2061.0068359375	0.00833333333333333	0	30	4.47708333333333	2	0.6201171875
2063.9326171875	0.00833333333333333	0	30	4.47708333333333	2	0.814453125
2067.224609375	0.00833333333333333	0	-30	-7.7875	1	0.5546875
2069.9326171875	0.00833333333333333	0	30	4.47708333333333	1	1.126953125
2073.1484375	0.00833333333333333	0	-30	-7.7875	1	0.5830078125
2075.748046875	0.00833333333333333	0	30	4.47708333333333	1	0.85546875
2079.056640625	0.00833333333333333	0	-30	-7.7875	2	0.72265625
2081.8896484375	0.00833333333333333	0	30	4.47708333333333	2	1.8740234375
2086.0234375	0.00833333333333333	0	-30	-7.7875	1	0.541015625
2088.7236328125	0.00833333333333333	0	30	4.47708333333333	2	0.6005859375
2091.439453125	0.00833333333333333	0	30	4.47708333333333	2	0.9169921875
2094.7646484375	0.00833333333333333	0	30	4.47708333333333	1	0.7197265625
2097.8984375	0.00833333333333333	0	-30	-7.7875	2	1.3857421875
2101.70703125	0.00833333333333333	0	-30	-7.7875	1	0.5048828125
2104.20703125	0.00833333333333333	0	-30	-7.7875	2	0.701171875
2107.298828125	0.00833333333333333	0	30	4.47708333333333	2	0.7861328125
2110.2060546875	0.00833333333333333	0	30	4.47708333333333	1	1.6142578125
2114.1064453125	0.00833333333333333	0	30	4.47708333333333	2	2.298828125
2118.689453125	0.00833333333333333	0	-30	-7.7875	1	0.69921875
2121.7392578125	0.00833333333333333	0	30	4.47708333333333	1	1.330078125
2125.2890625	0.00833333333333333	0	-30	-7.7875	2	0.7158203125
2128.3984375	0.00833333333333333	0	30	4.47708333333333	1	0.814453125
2131.515625	0.00833333333333333	0	30	4.47708333333333	2	0.59375
2134.3154296875	0.00833333333333333	0	-30	-7.7875	1	0.6025390625
2136.97265625	0.00833333333333333	0	-30	-7.7875	2	1.5205078125
2140.84765625	0.00833333333333333	0	-30	-7.7875	2	0.669921875
2143.8388671875	0.00833333333333333	0	-30	-7.7875	2	0.6630859375
2146.7890625	0.00833333333333333	0	30	4.47708333333333	1	0.625
2149.8642578125	0.00833333333333333	0	30	4.47708333333333	1	0.61328125
2152.6806640625	0.00833333333333333	0	-30	-7.7875	2	0.693359375
2155.615234375	0.00833333333333333	0	30	4.47708333333333	1	1.615234375
2159.2890625	0.00833333333333333	0	-30	-7.7875	2	0.5732421875
2162.10546875	0.00833333333333333	0	30	4.47708333333333	1	0.9169921875
2165.0390625	0.00833333333333333	0	30	4.47708333333333	1	5.2158203125
2172.4560546875	0.00833333333333333	0	30	4.60208333333333	1	0.7431640625
2175.271484375	0.00833333333333333	0	-30	-7.9125	2	1.0234375
2178.814453125	0.00833333333333333	0	-30	-7.9125	1	0.560546875
2181.6474609375	0.00833333333333333	0	30	4.60208333333333	2	0.6240234375
2184.9052734375	0.00833333333333333	0	30	4.60208333333333	1	0.525390625
2187.4970703125	0.00833333333333333	0	30	4.60208333333333	2	0.5341796875
2190.4892578125	0.00833333333333333	0	-30	-7.9125	1	0.59765625
2193.4716796875	0.00833333333333333	0	30	4.60208333333333	1	0.783203125
2196.3798828125	0.00833333333333333	0	-30	-7.9125	1	1.0595703125
2199.4794921875	0.00833333333333333	0	30	4.60208333333333	1	0.904296875
2202.73046875	0.00833333333333333	0	30	4.60208333333333	1	0.0927734375
2204.888671875	0.00833333333333333	0	30	4.60208333333333	1	0.6875
2207.87109375	0.00833333333333333	0	30	4.60208333333333	1	0.544921875
2218.0458984375	0.00833333333333333	0	-30	-7.9125	1	0.72265625
2220.8544921875	0.00833333333333333	0	-30	-7.9125	1	0.76171875
2223.7880859375	0.00833333333333333	0	30	4.72708333333333	2	0.66796875
2226.87109375	0.00833333333333333	0	-30	-7.7875	1	0.4091796875
2229.580078125	0.00833333333333333	0	-30	-7.7875	1	0.6044921875
2232.1962890625	0.00833333333333333	0	-30	-7.7875	2	0.7724609375
2235.10546875	0.00833333333333333	0	-30	-7.7875	2	0.630859375
2237.9873046875	0.00833333333333333	0	30	4.72708333333333	1	0.60546875
2240.9541015625	0.00833333333333333	0	30	4.72708333333333	2	0.462890625
2243.470703125	0.00833333333333333	0	-30	-7.7875	1	0.5224609375
2246.0712890625	0.00833333333333333	0	-30	-7.7875	2	0.74609375
2249.1708984375	0.00833333333333333	0	30	4.72708333333333	2	1.4150390625
2252.62890625	0.00833333333333333	0	30	4.72708333333333	1	1.060546875
2255.896484375	0.00833333333333333	0	30	4.72708333333333	1	0.568359375
2258.830078125	0.00833333333333333	0	30	4.72708333333333	1	0.71484375
2261.7626953125	0.00833333333333333	0	-30	-7.7875	2	0.6953125
2264.853515625	0.00833333333333333	0	30	4.72708333333333	2	0.84375
2268.0205078125	0.00833333333333333	0	30	4.72708333333333	2	0.7490234375
2270.9208984375	0.00833333333333333	0	30	4.72708333333333	1	1.1533203125
2274.5537109375	0.00833333333333333	0	-30	-7.7875	2	2.3759765625
2279.2705078125	0.00833333333333333	0	30	4.72708333333333	2	0.6513671875
2282.3125	0.00833333333333333	0	30	4.72708333333333	2	0.7939453125
2285.2373046875	0.00833333333333333	0	30	4.72708333333333	2	0.6767578125
2288.3046875	0.00833333333333333	0	30	4.72708333333333	2	0.841796875
2291.162109375	0.00833333333333333	0	30	4.72708333333333	2	2.640625
2296.037109375	0.00833333333333333	0	30	4.60208333333333	2	0.6533203125
2298.7041015625	0.00833333333333333	0	30	4.60208333333333	1	0.5712890625
2301.5625	0.00833333333333333	0	30	4.60208333333333	1	0.640625
2304.5546875	0.00833333333333333	0	-30	-7.7875	1	0.671875
2307.453125	0.00833333333333333	0	-30	-7.7875	2	2.837890625
2312.3779296875	0.00833333333333333	0	-30	-7.7875	1	0.6171875
2315.4365234375	0.00833333333333333	0	30	4.60208333333333	2	0.71875
2318.3623046875	0.00833333333333333	0	-30	-7.7875	1	0.5126953125
2320.919921875	0.00833333333333333	0	30	4.60208333333333	2	0.931640625
2323.9287109375	0.00833333333333333	0	-30	-7.7875	1	0.466796875
2326.4287109375	0.00833333333333333	0	-30	-7.7875	1	0.630859375
2329.486328125	0.00833333333333333	0	30	4.60208333333333	2	0.6376953125
2332.328125	0.00833333333333333	0	-30	-7.7875	1	0.5234375
2335.26953125	0.00833333333333333	0	30	4.60208333333333	2	0.56640625
2338.3037109375	0.00833333333333333	0	-30	-7.6625	2	0.013671875
2340.8779296875	0.00833333333333333	0	30	4.60208333333333	2	0.3984375
2343.4375	0.00833333333333333	0	-30	-7.6625	1	0.5185546875
2345.9951171875	0.00833333333333333	0	-30	-7.6625	2	0.552734375
2348.662109375	0.00833333333333333	0	30	4.47708333333333	1	0.7177734375
2351.828125	0.00833333333333333	0	-30	-7.6625	2	2.9521484375
2357.328125	0.00833333333333333	0	30	4.47708333333333	2	1.908203125
2361.76171875	0.00833333333333333	0	30	4.47708333333333	1	2.4111328125
2366.59375	0.00833333333333333	0	-30	-7.6625	1	0.587890625
2369.3701171875	0.00833333333333333	0	30	4.47708333333333	2	0.603515625
2372.3359375	0.00833333333333333	0	30	4.47708333333333	2	0.541015625
2375.2451171875	0.00833333333333333	0	-30	-7.6625	2	0.9765625
2378.3369140625	0.00833333333333333	0	-30	-7.6625	2	0.740234375
2381.51953125	0.00833333333333333	0	-30	-7.6625	2	2.2861328125
2386.078125	0.00833333333333333	0	-30	-7.6625	1	0.623046875
2389.044921875	0.00833333333333333	0	30	4.47708333333333	1	0.904296875
2392.39453125	0.00833333333333333	0	-30	-7.6625	2	0.7470703125
2395.5615234375	0.00833333333333333	0	30	4.47708333333333	2	0.65234375
2398.310546875	0.00833333333333333	0	-30	-7.6625	2	0.767578125
2401.3779296875	0.00833333333333333	0	30	4.47708333333333	2	1.076171875
2404.64453125	0.00833333333333333	0	-30	-7.6625	1	0.6982421875
2407.5439453125	0.00833333333333333	0	30	4.47708333333333	2	1.5419921875
2411.4697265625	0.00833333333333333	0	-30	-7.6625	1	1.6005859375
2415.6103515625	0.00833333333333333	0	30	4.47708333333333	2	0.4921875
2418.3271484375	0.00833333333333333	0	30	4.47708333333333	2	0.51171875
2421.1025390625	0.00833333333333333	0	30	4.35208333333333	2	0.927734375
2424.3779296875	0.00833333333333333	0	30	4.35208333333333	2	0.5166015625
2427.27734375	0.00833333333333333	0	30	4.35208333333333	2	0.490234375
2429.8359375	0.00833333333333333	0	-30	-7.6625	1	0.69140625
2433.001953125	0.00833333333333333	0	30	4.35208333333333	2	0.60546875
2435.77734375	0.00833333333333333	0	30	4.35208333333333	1	2.2861328125
2440.0849609375	0.00833333333333333	0	30	4.35208333333333	1	0.810546875
2443.2353515625	0.00833333333333333	0	30	4.35208333333333	2	1.0517578125
2446.3525390625	0.00833333333333333	0	-30	-7.6625	1	0.623046875
2449.0595703125	0.00833333333333333	0	-30	-7.6625	1	1.4765625
2453.119140625	0.00833333333333333	0	30	4.35208333333333	1	1.712890625
2457.1767578125	0.00833333333333333	0	30	4.35208333333333	1	0.7109375
2459.9521484375	0.00833333333333333	0	-30	-7.5375	2	0.7197265625
2462.8017578125	0.00833333333333333	0	30	4.35208333333333	2	0.669921875
2465.7763671875	0.00833333333333333	0	-30	-7.5375	2	0.83984375
2468.8349609375	0.00833333333333333	0	-30	-7.5375	1	0.63671875
2499.0849609375	0.00833333333333333	0	30	4.35208333333333	2	0.64453125
2501.9931640625	0.00833333333333333	0	30	4.35208333333333	1	1.14453125
2505.6259765625	0.00833333333333333	0	30	4.35208333333333	2	0.943359375
2508.8759765625	0.00833333333333333	0	-30	-7.5375	1	1.421875
2512.4931640625	0.00833333333333333	0	-30	-7.5375	1	0.5166015625
2515.3916015625	0.00833333333333333	0	30	4.35208333333333	1	1.2265625
2518.734375	0.00833333333333333	0	-30	-7.5375	2	1.1318359375
2521.8681640625	0.00833333333333333	0	-30	-7.5375	1	1.57421875
2525.8916015625	0.00833333333333333	0	-30	-7.5375	2	1.2060546875
2529.42578125	0.00833333333333333	0	-30	-7.5375	2	0.984375
2532.8505859375	0.00833333333333333	0	30	4.35208333333333	1	0.9912109375
2536.017578125	0.00833333333333333	0	30	4.35208333333333	1	1.640625
2539.708984375	0.00833333333333333	0	30	4.35208333333333	2	1.677734375
2543.826171875	0.00833333333333333	0	30	4.35208333333333	1	0.65625
2546.80859375	0.00833333333333333	0	-30	-7.5375	2	0.6416015625
2549.716796875	0.00833333333333333	0	-30	-7.5375	1	1.1337890625
2553.109375	0.00833333333333333	0	-30	-7.5375	2	1.509765625
2557.05859375	0.00833333333333333	0	-30	-7.5375	2	1.65625
2560.8330078125	0.00833333333333333	0	30	4.35208333333333	1	0.7060546875
2563.642578125	0.00833333333333333	0	30	4.35208333333333	1	0.5849609375
2566.533203125	0.00833333333333333	0	30	4.35208333333333	1	0.677734375
2569.7001953125	0.00833333333333333	0	30	4.35208333333333	1	0.798828125
2572.833984375	0.00833333333333333	0	-30	-7.5375	2	1.6015625
2576.7080078125	0.00833333333333333	0	-30	-7.5375	1	0.5595703125
2579.2919921875	0.00833333333333333	0	30	4.47708333333333	1	0.744140625
2582.3662109375	0.00833333333333333	0	-30	-7.5375	1	0.58203125
2585.05859375	0.00833333333333333	0	30	4.47708333333333	1	2.353515625
2589.7001953125	0.00833333333333333	0	30	4.47708333333333	2	0.7919921875
2592.5751953125	0.00833333333333333	0	-30	-7.5375	1	0.5888671875
2595.5166015625	0.00833333333333333	0	30	4.47708333333333	1	2.0078125
2599.7998046875	0.00833333333333333	0	30	4.47708333333333	2	2.0126953125
2604.1416015625	0.00833333333333333	0	-30	-7.5375	2	0.783203125
2607.25	0.00833333333333333	0	30	4.47708333333333	2	0.5703125
2610.1328125	0.00833333333333333	0	-30	-7.5375	1	0.423828125
2612.7578125	0.00833333333333333	0	30	4.47708333333333	1	0.5908203125
2615.5244140625	0.00833333333333333	0	-30	-7.5375	2	0.8564453125
2618.75	0.00833333333333333	0	30	4.47708333333333	2	0.6865234375
2621.783203125	0.00833333333333333	0	-30	-7.5375	1	0.3896484375
2624.2568359375	0.00833333333333333	0	-30	-7.5375	2	2.96484375
2629.4248046875	0.00833333333333333	0	-30	-7.5375	2	0.724609375
2632.2490234375	0.00833333333333333	0	-30	-7.5375	1	0.724609375
2635.357421875	0.00833333333333333	0	30	4.47708333333333	1	0.6318359375
2638.0068359375	0.00833333333333333	0	-30	-7.5375	2	0.703125
2640.9580078125	0.00833333333333333	0	-30	-7.5375	2	0.927734375
2643.8818359375	0.00833333333333333	0	-30	-7.5375	2	0.66796875
2646.599609375	0.00833333333333333	0	-30	-7.5375	2	0.6064453125
2649.19140625	0.00833333333333333	0	-30	-7.5375	2	0.5595703125
2651.748046875	0.00833333333333333	0	30	4.47708333333333	2	0.8740234375
2654.982421875	0.00833333333333333	0	-30	-7.6625	2	1.1513671875
2658.5810546875	0.00833333333333333	0	-30	-7.6625	2	1.12109375
2661.7822265625	0.00833333333333333	0	30	4.47708333333333	2	0.671875
2664.8486328125	0.00833333333333333	0	30	4.47708333333333	1	0.654296875
2667.9658203125	0.00833333333333333	0	30	4.47708333333333	1	0.80078125
2671.0400390625	0.00833333333333333	0	-30	-7.6625	2	0.009765625
2673.19921875	0.00833333333333333	0	-30	-7.6625	2	0.8798828125
2676.33203125	0.00833333333333333	0	-30	-7.6625	1	0.5546875
2678.9150390625	0.00833333333333333	0	30	4.47708333333333	1	0.65234375
2681.9072265625	0.00833333333333333	0	30	4.47708333333333	2	0.908203125
2684.806640625	0.00833333333333333	0	-30	-7.6625	1	1.888671875
2688.83203125	0.00833333333333333	0	-30	-7.6625	1	0.4951171875
2691.548828125	0.00833333333333333	0	30	4.47708333333333	1	0.5224609375
2694.1650390625	0.00833333333333333	0	-30	-7.6625	1	1.1220703125
2697.373046875	0.00833333333333333	0	-30	-7.6625	1	0.490234375
2700.2236328125	0.00833333333333333	0	30	4.47708333333333	2	1.087890625
2703.8232421875	0.00833333333333333	0	-30	-7.5375	2	0.8564453125
2706.931640625	0.00833333333333333	0	-30	-7.5375	1	0.564453125
2709.6806640625	0.00833333333333333	0	-30	-7.5375	1	1.111328125
2712.998046875	0.00833333333333333	0	-30	-7.5375	2	0.5859375
2715.814453125	0.00833333333333333	0	-30	-7.5375	1	0.8974609375
2718.8310546875	0.00833333333333333	0	-30	-7.5375	1	2.1455078125
2723.09765625	0.00833333333333333	0	30	4.47708333333333	2	0.638671875
2726.0068359375	0.00833333333333333	0	30	4.47708333333333	2	0.7294921875
2728.90625	0.00833333333333333	0	-30	-7.5375	1	0.6142578125
2731.97265625	0.00833333333333333	0	-30	-7.5375	1	0.5244140625
2734.498046875	0.00833333333333333	0	30	4.47708333333333	2	0.6064453125
2737.5478515625	0.00833333333333333	0	30	4.47708333333333	2	0.8046875
2740.5048828125	0.00833333333333333	0	30	4.35208333333333	2	0.4560546875
2743.03125	0.00833333333333333	0	-30	-7.5375	1	0.6015625
2745.8564453125	0.00833333333333333	0	-30	-7.4125	1	0.544921875
2748.697265625	0.00833333333333333	0	30	4.35208333333333	1	4.9677734375
2767.1552734375	0.00833333333333333	0	-30	-7.4125	1	0.638671875
2769.939453125	0.00833333333333333	0	-30	-7.4125	1	0.57421875
2772.6474609375	0.00833333333333333	0	30	4.35208333333333	2	0.578125
2775.47265625	0.00833333333333333	0	-30	-7.4125	2	0.625
2778.5302734375	0.00833333333333333	0	-30	-7.4125	1	0.6728515625
2781.5390625	0.00833333333333333	0	30	4.35208333333333	1	0.7509765625
2784.3134765625	0.00833333333333333	0	30	4.35208333333333	2	0.4248046875
2786.880859375	0.00833333333333333	0	30	4.35208333333333	1	0.5849609375
2789.5224609375	0.00833333333333333	0	30	4.35208333333333	2	1.4638671875
2792.9970703125	0.00833333333333333	0	-30	-7.4125	1	0.5009765625
2795.962890625	0.00833333333333333	0	-30	-7.4125	2	0.576171875
2798.9296875	0.00833333333333333	0	30	4.35208333333333	1	0.45703125
2801.6640625	0.00833333333333333	0	30	4.35208333333333	1	0.634765625
2804.73828125	0.00833333333333333	0	-30	-7.4125	2	0.8642578125
2808.1220703125	0.00833333333333333	0	-30	-7.4125	1	0.560546875
2810.9306640625	0.00833333333333333	0	30	4.35208333333333	2	0.625
2813.5302734375	0.00833333333333333	0	-30	-7.4125	1	0.609375
2816.4462890625	0.00833333333333333	0	30	4.35208333333333	2	0.62890625
2819.546875	0.00833333333333333	0	-30	-7.4125	2	1.1123046875
2822.9296875	0.00833333333333333	0	30	4.35208333333333	2	0.490234375
2825.396484375	0.00833333333333333	0	30	4.35208333333333	2	0.54296875
2827.9052734375	0.00833333333333333	0	-30	-7.4125	1	0.4267578125
2830.4716796875	0.00833333333333333	0	-30	-7.4125	1	0.5244140625
2833.1875	0.00833333333333333	0	30	4.35208333333333	2	0.7041015625
2836.396484375	0.00833333333333333	0	-30	-7.4125	2	0.7353515625
2839.521484375	0.00833333333333333	0	30	4.22708333333333	2	0.71484375
2842.837890625	0.00833333333333333	0	-30	-7.4125	2	0.55859375
2845.654296875	0.00833333333333333	0	-30	-7.4125	1	0.8134765625
2848.8291015625	0.00833333333333333	0	-30	-7.4125	1	0.87109375
2852.029296875	0.00833333333333333	0	30	4.22708333333333	2	0.5751953125
2854.9208984375	0.00833333333333333	0	-30	-7.4125	1	0.4755859375
2857.6796875	0.00833333333333333	0	30	4.22708333333333	2	0.5087890625
2860.279296875	0.00833333333333333	0	30	4.22708333333333	1	0.4931640625
2862.970703125	0.00833333333333333	0	-30	-7.4125	1	0.833984375
2865.9541015625	0.00833333333333333	0	-30	-7.4125	1	0.5869140625
2868.5712890625	0.00833333333333333	0	-30	-7.2875	2	0.681640625
2871.3212890625	0.00833333333333333	0	-30	-7.2875	1	0.6435546875
2873.9873046875	0.00833333333333333	0	30	4.22708333333333	2	0.5458984375
2876.64453125	0.00833333333333333	0	-30	-7.2875	1	0.5771484375
2879.4375	0.00833333333333333	0	30	4.22708333333333	2	1.0078125
2882.6787109375	0.00833333333333333	0	-30	-7.2875	2	0.6865234375
2885.404296875	0.00833333333333333	0	-30	-7.2875	2	0.5771484375
2888.0126953125	0.00833333333333333	0	30	4.22708333333333	1	0.8251953125
2890.9619140625	0.00833333333333333	0	-30	-7.2875	2	0.7080078125
2893.728515625	0.00833333333333333	0	-30	-7.2875	1	0.6298828125
2896.5625	0.00833333333333333	0	-30	-7.2875	2	0.595703125
2899.720703125	0.00833333333333333	0	30	4.22708333333333	2	0.59765625
2902.794921875	0.00833333333333333	0	30	4.22708333333333	1	1.611328125
2906.7705078125	0.00833333333333333	0	30	4.22708333333333	2	0.4755859375
2909.5859375	0.00833333333333333	0	-30	-7.2875	2	0.580078125
2912.2705078125	0.00833333333333333	0	-30	-7.2875	1	0.583984375
2915.078125	0.00833333333333333	0	30	4.22708333333333	1	0.7119140625
2918.2119140625	0.00833333333333333	0	30	4.22708333333333	1	0.7705078125
2921.052734375	0.00833333333333333	0	30	4.22708333333333	1	0.7294921875
2923.9951171875	0.00833333333333333	0	-30	-7.2875	1	0.5078125
2926.71875	0.00833333333333333	0	-30	-7.2875	1	0.3759765625
2929.4521484375	0.00833333333333333	0	30	4.22708333333333	2	2.650390625
2934.5703125	0.00833333333333333	0	-30	-7.2875	1	0.63671875
2937.6943359375	0.00833333333333333	0	-30	-7.2875	2	2.3447265625
2942.6025390625	0.00833333333333333	0	-30	-7.2875	1	0.4453125
2945.376953125	0.00833333333333333	0	-30	-7.2875	1	0.7744140625
2948.5859375	0.00833333333333333	0	-30	-7.2875	1	0.4453125
2951.193359375	0.00833333333333333	0	30	4.22708333333333	2	0.5419921875
2954.126953125	0.00833333333333333	0	-30	-7.2875	1	3.7763671875
2960.2685546875	0.00833333333333333	0	-30	-7.2875	1	3.099609375
2965.869140625	0.00833333333333333	0	30	4.22708333333333	2	5.5634765625
2973.953125	0.00833333333333333	0	-30	-7.1625	1	0.408203125
2976.5361328125	0.00833333333333333	0	30	4.22708333333333	1	1.1923828125
2980.1357421875	0.00833333333333333	0	-30	-7.1625	1	0.5849609375
2982.8271484375	0.00833333333333333	0	30	4.22708333333333	2	0.5654296875
2985.552734375	0.00833333333333333	0	-30	-7.1625	1	0.7841796875
2988.560546875	0.00833333333333333	0	30	4.22708333333333	1	0.7041015625
2991.71875	0.00833333333333333	0	30	4.22708333333333	1	1.08203125
2995.0107421875	0.00833333333333333	0	30	4.22708333333333	1	0.7177734375
2997.8935546875	0.00833333333333333	0	30	4.22708333333333	1	0.8271484375
3000.7939453125	0.00833333333333333	0	-30	-7.1625	1	0.5830078125
3003.494140625	0.00833333333333333	0	30	4.22708333333333	1	0.37109375
3006.0107421875	0.00833333333333333	0	-30	-7.1625	2	0.654296875
3008.7109375	0.00833333333333333	0	-30	-7.1625	2	0.6103515625
3011.6259765625	0.00833333333333333	0	30	4.35208333333333	2	0.3193359375
3020.693359375	0.00833333333333333	0	30	4.35208333333333	2	0.5322265625
3023.59375	0.00833333333333333	0	-30	-7.1625	1	0.50390625
3026.27734375	0.00833333333333333	0	-30	-7.1625	1	0.5087890625
3028.8505859375	0.00833333333333333	0	30	4.35208333333333	2	0.4951171875
3031.7431640625	0.00833333333333333	0	-30	-7.1625	2	0.8828125
3035.0185546875	0.00833333333333333	0	-30	-7.1625	1	0.5751953125
3037.79296875	0.00833333333333333	0	30	4.35208333333333	2	0.8330078125
3041.001953125	0.00833333333333333	0	30	4.35208333333333	2	1.3369140625
3044.818359375	0.00833333333333333	0	30	4.22708333333333	2	0.5283203125
3047.4853515625	0.00833333333333333	0	30	4.22708333333333	1	0.708984375
3050.3095703125	0.00833333333333333	0	-30	-7.1625	1	0.533203125
3053.0087890625	0.00833333333333333	0	-30	-7.1625	2	0.474609375
3055.4599609375	0.00833333333333333	0	-30	-7.1625	2	0.591796875
3058.0009765625	0.00833333333333333	0	-30	-7.1625	2	0.5537109375
3060.609375	0.00833333333333333	0	-30	-7.1625	1	0.7939453125
3063.451171875	0.00833333333333333	0	-30	-7.1625	2	0.5517578125
3066.384765625	0.00833333333333333	0	-30	-7.1625	2	0.5068359375
3068.9833984375	0.00833333333333333	0	-30	-7.1625	1	1.5634765625
3072.7177734375	0.00833333333333333	0	30	4.22708333333333	2	0.7255859375
3075.484375	0.00833333333333333	0	-30	-7.1625	1	0.7587890625
3078.4091796875	0.00833333333333333	0	-30	-7.1625	2	2.154296875
3082.7333984375	0.00833333333333333	0	-30	-7.1625	2	0.75
3085.8759765625	0.00833333333333333	0	-30	-7.1625	2	0.6962890625
3088.80078125	0.00833333333333333	0	-30	-7.1625	2	0.626953125
3091.609375	0.00833333333333333	0	-30	-7.1625	2	0.5146484375
3094.4423828125	0.00833333333333333	0	30	4.22708333333333	2	0.4736328125
3097.29296875	0.00833333333333333	0	-30	-7.2875	2	0.599609375
3100.2255859375	0.00833333333333333	0	30	4.22708333333333	1	0.6103515625
3102.92578125	0.00833333333333333	0	-30	-7.2875	2	0.6220703125
3105.533203125	0.00833333333333333	0	30	4.22708333333333	2	0.5595703125
3108.4423828125	0.00833333333333333	0	-30	-7.2875	1	0.474609375
3111.0927734375	0.00833333333333333	0	30	4.22708333333333	1	0.4638671875
3114.017578125	0.00833333333333333	0	30	4.22708333333333	1	0.7548828125
3117.2509765625	0.00833333333333333	0	-30	-7.2875	2	0.818359375
3120.3408203125	0.00833333333333333	0	-30	-7.2875	1	0.9599609375
3123.7666015625	0.00833333333333333	0	30	4.22708333333333	2	0.9267578125
3127.0341796875	0.00833333333333333	0	-30	-7.2875	1	0.810546875
3129.8916015625	0.00833333333333333	0	30	4.22708333333333	1	0.6494140625
3132.849609375	0.00833333333333333	0	30	4.22708333333333	1	0.5322265625
3135.3505859375	0.00833333333333333	0	-30	-7.2875	1	0.5185546875
3138.2919921875	0.00833333333333333	0	-30	-7.2875	1	0.5537109375
3141.30078125	0.00833333333333333	0	30	4.22708333333333	2	0.6650390625
3144.125	0.00833333333333333	0	30	4.22708333333333	1	1.0966796875
3147.7080078125	0.00833333333333333	0	-30	-7.2875	1	0.5615234375
3150.591796875	0.00833333333333333	0	30	4.22708333333333	2	1.1103515625
3153.9248046875	0.00833333333333333	0	-30	-7.1625	2	0.7373046875
3156.658203125	0.00833333333333333	0	30	4.22708333333333	1	0.748046875
3159.908203125	0.00833333333333333	0	-30	-7.1625	2	0.73046875
3162.783203125	0.00833333333333333	0	-30	-7.1625	1	0.53515625
3165.56640625	0.00833333333333333	0	-30	-7.1625	1	0.919921875
3168.4833984375	0.00833333333333333	0	-30	-7.1625	2	0.779296875
3171.3916015625	0.00833333333333333	0	30	4.22708333333333	2	0.638671875
3174.2412109375	0.00833333333333333	0	30	4.22708333333333	1	0.5810546875
3177.1416015625	0.00833333333333333	0	-30	-7.1625	2	0.5771484375
3180.158203125	0.00833333333333333	0	30	4.22708333333333	1	0.5283203125
3183.1416015625	0.00833333333333333	0	30	4.22708333333333	1	0.6416015625
3186.216796875	0.00833333333333333	0	-30	-7.1625	1	0.822265625
3189.3916015625	0.00833333333333333	0	30	4.22708333333333	2	0.6396484375
3192.0234375	0.00833333333333333	0	-30	-7.1625	1	0.568359375
3194.5908203125	0.00833333333333333	0	-30	-7.1625	1	0.4326171875
3197.158203125	0.00833333333333333	0	-30	-7.1625	1	0.5126953125
3199.9404296875	0.00833333333333333	0	30	4.22708333333333	1	0.7314453125
3202.849609375	0.00833333333333333	0	30	4.22708333333333	1	0.509765625
3205.849609375	0.00833333333333333	0	-30	-7.1625	2	0.6298828125
3208.7412109375	0.00833333333333333	0	30	4.22708333333333	2	0.6748046875
3211.3984375	0.00833333333333333	0	30	4.22708333333333	1	3.3212890625
3217.1572265625	0.00833333333333333	0	30	4.22708333333333	2	0.5146484375
3220.0078125	0.00833333333333333	0	30	4.22708333333333	1	0.728515625
3222.990234375	0.00833333333333333	0	30	4.22708333333333	2	0.505859375
3225.8408203125	0.00833333333333333	0	30	4.22708333333333	2	0.53515625
3228.6826171875	0.00833333333333333	0	30	4.22708333333333	1	0.654296875
3231.365234375	0.00833333333333333	0	-30	-7.1625	1	0.7392578125
3234.556640625	0.00833333333333333	0	-30	-7.1625	1	0.595703125
3237.166015625	0.00833333333333333	0	30	4.22708333333333	2	0.6904296875
3240.173828125	0.00833333333333333	0	-30	-7.1625	1	0.9794921875
3243.681640625	0.00833333333333333	0	-30	-7.1625	1	0.5595703125
3246.5986328125	0.00833333333333333	0	-30	-7.1625	1	0.650390625
3249.607421875	0.00833333333333333	0	30	4.22708333333333	1	1.1533203125
3253.1982421875	0.00833333333333333	0	30	4.22708333333333	2	0.603515625
3255.990234375	0.00833333333333333	0	-30	-7.0375	2	1.53125
3277.84765625	0.00833333333333333	0	-30	-7.0375	1	0.6904296875
3280.7568359375	0.00833333333333333	0	30	4.22708333333333	2	0.5810546875
3283.513671875	0.00833333333333333	0	30	4.22708333333333	1	0.6328125
3286.505859375	0.00833333333333333	0	30	4.22708333333333	1	0.5361328125
3289.5234375	0.00833333333333333	0	30	4.22708333333333	2	0.5986328125
3292.46484375	0.00833333333333333	0	-30	-7.0375	1	0.41015625
3295.1982421875	0.00833333333333333	0	30	4.22708333333333	1	0.5244140625
3297.9892578125	0.00833333333333333	0	30	4.22708333333333	1	0.7978515625
3301.1064453125	0.00833333333333333	0	-30	-7.0375	1	0.423828125
3304.046875	0.00833333333333333	0	30	4.22708333333333	2	0.763671875
3307.15625	0.00833333333333333	0	30	4.22708333333333	2	0.5986328125
3309.83984375	0.00833333333333333	0	30	4.22708333333333	2	0.546875
3312.8564453125	0.00833333333333333	0	30	4.22708333333333	2	0.4111328125
3315.3388671875	0.00833333333333333	0	-30	-7.0375	1	0.5126953125
3318.248046875	0.00833333333333333	0	-30	-7.0375	1	0.763671875
3321.3056640625	0.00833333333333333	0	-30	-6.9125	2	1.3134765625
3324.98046875	0.00833333333333333	0	-30	-6.9125	1	0.646484375
3327.98046875	0.00833333333333333	0	-30	-6.9125	1	0.5595703125
3330.814453125	0.00833333333333333	0	-30	-6.9125	1	0.5009765625
3333.6806640625	0.00833333333333333	0	30	4.22708333333333	2	0.5634765625
3336.4306640625	0.00833333333333333	0	30	4.10208333333333	1	0.701171875
3339.5390625	0.00833333333333333	0	-30	-6.9125	1	2.5771484375
3344.2880859375	0.00833333333333333	0	30	4.10208333333333	1	1.396484375
3347.73828125	0.00833333333333333	0	30	4.10208333333333	1	0.6181640625
3350.4716796875	0.00833333333333333	0	-30	-6.9125	1	0.4765625
3353.3056640625	0.00833333333333333	0	30	4.10208333333333	1	0.8505859375
3356.4130859375	0.00833333333333333	0	30	4.10208333333333	1	0.7109375
3359.2216796875	0.00833333333333333	0	30	4.22708333333333	2	0.791015625
3362.10546875	0.00833333333333333	0	-30	-6.7875	1	0.8349609375
3365.23046875	0.00833333333333333	0	-30	-6.7875	2	1.5908203125
3368.955078125	0.00833333333333333	0	30	4.22708333333333	1	0.6494140625
3371.7548828125	0.00833333333333333	0	-30	-6.7875	1	0.6337890625
3374.5634765625	0.00833333333333333	0	-30	-6.7875	1	0.498046875
3377.3046875	0.00833333333333333	0	-30	-6.7875	1	0.4765625
3380.1630859375	0.00833333333333333	0	-30	-6.7875	1	0.5302734375
3383.146484375	0.00833333333333333	0	-30	-6.7875	1	0.8349609375
3385.9716796875	0.00833333333333333	0	-30	-6.6625	1	0.490234375
3388.705078125	0.00833333333333333	0	-30	-6.6625	1	0.4443359375
3391.478515625	0.00833333333333333	0	-30	-6.6625	1	0.55078125
3394.1875	0.00833333333333333	0	30	4.22708333333333	1	0.9541015625
3397.271484375	0.00833333333333333	0	30	4.22708333333333	2	0.6142578125
3400.1298828125	0.00833333333333333	0	-30	-6.6625	2	0.8603515625
3403.2626953125	0.00833333333333333	0	30	4.22708333333333	1	0.6708984375
3406.12109375	0.00833333333333333	0	30	4.22708333333333	1	0.6611328125
3409.146484375	0.00833333333333333	0	-30	-6.6625	1	0.6357421875
3412.24609375	0.00833333333333333	0	-30	-6.6625	1	0.576171875
3414.962890625	0.00833333333333333	0	30	4.22708333333333	1	0.67578125
3418.0712890625	0.00833333333333333	0	30	4.22708333333333	1	0.623046875
3420.853515625	0.00833333333333333	0	30	4.22708333333333	1	0.7607421875
3423.720703125	0.00833333333333333	0	30	4.35208333333333	1	0.646484375
3426.5625	0.00833333333333333	0	30	4.35208333333333	1	0.65234375
3429.4873046875	0.00833333333333333	0	-30	-6.6625	1	0.7353515625
3432.5546875	0.00833333333333333	0	-30	-6.6625	1	0.4765625
3435.5458984375	0.00833333333333333	0	-30	-6.6625	1	0.4208984375
3438.412109375	0.00833333333333333	0	30	4.35208333333333	2	0.5546875
3441.537109375	0.00833333333333333	0	30	4.35208333333333	2	0.814453125
3444.595703125	0.00833333333333333	0	-30	-6.5375	1	0.5556640625
3447.4208984375	0.00833333333333333	0	-30	-6.5375	1	0.5146484375
3450.103515625	0.00833333333333333	0	-30	-6.5375	1	0.48828125
3452.88671875	0.00833333333333333	0	-30	-6.5375	1	0.6328125
3455.5205078125	0.00833333333333333	0	30	4.35208333333333	2	0.5673828125
3458.6611328125	0.00833333333333333	0	-30	-6.5375	1	0.9951171875
3461.7958984375	0.00833333333333333	0	30	4.35208333333333	2	0.4443359375
3464.7041015625	0.00833333333333333	0	30	4.35208333333333	2	0.49609375
3467.3701171875	0.00833333333333333	0	-30	-6.4125	1	2.23046875
3471.63671875	0.00833333333333333	0	30	4.22708333333333	2	0.419921875
3474.1533203125	0.00833333333333333	0	-30	-6.4125	1	0.53515625
3476.861328125	0.00833333333333333	0	-30	-6.4125	1	0.5390625
3479.6025390625	0.00833333333333333	0	30	4.22708333333333	2	0.3896484375
3482.1953125	0.00833333333333333	0	-30	-6.4125	2	2.453125
3487.01953125	0.00833333333333333	0	-30	-6.4125	1	0.509765625
3489.703125	0.00833333333333333	0	30	4.22708333333333	2	0.6171875
3492.611328125	0.00833333333333333	0	30	4.22708333333333	2	0.533203125
3495.63671875	0.00833333333333333	0	-30	-6.4125	1	0.484375
3498.2861328125	0.00833333333333333	0	30	4.22708333333333	2	0.435546875
3500.8701171875	0.00833333333333333	0	30	4.10208333333333	1	1.123046875
3504.2119140625	0.00833333333333333	0	-30	-6.4125	1	0.9091796875
3507.544921875	0.00833333333333333	0	30	4.10208333333333	2	1.7919921875
3511.578125	0.00833333333333333	0	-30	-6.4125	1	0.599609375
3514.4951171875	0.00833333333333333	0	30	4.10208333333333	2	0.6826171875
3524.3857421875	0.00833333333333333	0	30	4.10208333333333	2	0.560546875
3527.0107421875	0.00833333333333333	0	-30	-6.4125	1	0.4794921875
3529.994140625	0.00833333333333333	0	30	4.10208333333333	2	0.3837890625
3532.5615234375	0.00833333333333333	0	-30	-6.2875	1	0.2802734375
3534.9853515625	0.00833333333333333	0	30	4.10208333333333	2	0.2490234375
3537.2607421875	0.00833333333333333	0	30	3.97708333333333	2	0.4375
3539.994140625	0.00833333333333333	0	-30	-6.2875	1	0.3037109375
3542.7939453125	0.00833333333333333	0	30	3.97708333333333	2	0.248046875
3545.435546875	0.00833333333333333	0	30	3.97708333333333	1	0.2314453125
3547.677734375	0.00833333333333333	0	-30	-6.2875	1	0.4365234375
3550.4189453125	0.00833333333333333	0	-30	-6.2875	2	0.2802734375
3553.1279296875	0.00833333333333333	0	30	3.97708333333333	2	0.482421875
3555.9775390625	0.00833333333333333	0	-30	-6.2875	1	0.44921875
3558.560546875	0.00833333333333333	0	-30	-6.2875	1	0.498046875
3561.302734375	0.00833333333333333	0	30	3.97708333333333	2	0.4208984375
3563.8271484375	0.00833333333333333	0	-30	-6.2875	1	0.328125
3566.4853515625	0.00833333333333333	0	30	3.97708333333333	2	0.4140625
3569.001953125	0.00833333333333333	0	-30	-6.2875	1	0.45703125
3571.8857421875	0.00833333333333333	0	30	3.97708333333333	2	0.4775390625
3574.7685546875	0.00833333333333333	0	-30	-6.2875	1	0.4111328125
3577.3603515625	0.00833333333333333	0	-30	-6.1625	2	0.4111328125
3579.8193359375	0.00833333333333333	0	-30	-6.1625	2	1.4638671875
3583.7607421875	0.00833333333333333	0	30	3.97708333333333	2	0.4267578125
3586.193359375	0.00833333333333333	0	30	3.85208333333333	2	0.5146484375
3588.7255859375	0.00833333333333333	0	-30	-6.1625	2	2.7744140625
3593.7021484375	0.00833333333333333	0	-30	-6.1625	1	0.486328125
3596.318359375	0.00833333333333333	0	-30	-6.1625	1	0.4775390625
3598.91015625	0.00833333333333333	0	30	3.85208333333333	2	0.6220703125
3601.6767578125	0.00833333333333333	0	-30	-6.1625	1	1.271484375
3604.9765625	0.00833333333333333	0	30	3.85208333333333	2	0.67578125
3607.7431640625	0.00833333333333333	0	-30	-6.1625	2	1.029296875
3610.79296875	0.00833333333333333	0	-30	-6.1625	1	0.66796875
3613.8935546875	0.00833333333333333	0	30	3.85208333333333	2	0.5673828125
3616.6435546875	0.00833333333333333	0	-30	-6.1625	1	0.6337890625
3619.509765625	0.00833333333333333	0	30	3.85208333333333	2	0.7275390625
3622.54296875	0.00833333333333333	0	-30	-6.1625	2	3.0703125
3628.017578125	0.00833333333333333	0	-30	-6.1625	2	0.587890625
3630.859375	0.00833333333333333	0	-30	-6.1625	2	0.5537109375
3633.701171875	0.00833333333333333	0	-30	-6.1625	2	0.4638671875
3636.609375	0.00833333333333333	0	30	3.72708333333333	2	0.419921875
3639.4931640625	0.00833333333333333	0	30	3.72708333333333	2	1.96875
3643.576171875	0.00833333333333333	0	30	3.72708333333333	1	0.5732421875
3646.4921875	0.00833333333333333	0	30	3.72708333333333	2	0.5537109375
3649.1923828125	0.00833333333333333	0	-30	-6.1625	1	0.509765625
3651.9169921875	0.00833333333333333	0	30	3.72708333333333	2	0.697265625
3654.884765625	0.00833333333333333	0	-30	-6.1625	2	0.4892578125
3657.6845703125	0.00833333333333333	0	30	3.72708333333333	2	0.3935546875
3660.5673828125	0.00833333333333333	0	30	3.72708333333333	2	0.4951171875
3663.29296875	0.00833333333333333	0	30	3.72708333333333	2	0.4970703125
3666.1416015625	0.00833333333333333	0	30	3.60208333333333	1	0.3046875
3668.984375	0.00833333333333333	0	-30	-6.1625	2	1.56640625
3673.0166015625	0.00833333333333333	0	30	3.60208333333333	1	0.9501953125
3676.0166015625	0.00833333333333333	0	30	3.60208333333333	2	0.5576171875
3678.9091796875	0.00833333333333333	0	30	3.60208333333333	2	0.521484375
3681.7919921875	0.00833333333333333	0	30	3.60208333333333	2	0.56640625
3684.583984375	0.00833333333333333	0	30	3.60208333333333	2	0.455078125
3687.3583984375	0.00833333333333333	0	30	3.60208333333333	2	0.4404296875
3690.2841796875	0.00833333333333333	0	-30	-6.1625	2	1.6591796875
3694.083984375	0.00833333333333333	0	-30	-6.1625	2	0.7314453125
3697.099609375	0.00833333333333333	0	-30	-6.1625	1	0.66796875
3699.966796875	0.00833333333333333	0	30	3.47708333333333	2	1.44921875
3703.908203125	0.00833333333333333	0	30	3.47708333333333	2	0.3955078125
3706.7998046875	0.00833333333333333	0	-30	-6.1625	1	0.439453125
3709.3828125	0.00833333333333333	0	30	3.47708333333333	2	0.44921875
3712.083984375	0.00833333333333333	0	30	3.47708333333333	1	0.5078125
3714.8330078125	0.00833333333333333	0	30	3.47708333333333	2	0.455078125
3717.716796875	0.00833333333333333	0	-30	-6.1625	1	0.435546875
3720.5087890625	0.00833333333333333	0	-30	-6.1625	1	0.466796875
3723.5	0.00833333333333333	0	30	3.47708333333333	2	1.0439453125
3726.8330078125	0.00833333333333333	0	-30	-6.1625	1	0.7275390625
3729.82421875	0.00833333333333333	0	-30	-6.0375	2	0.3759765625
3732.43359375	0.00833333333333333	0	-30	-6.0375	2	2.5830078125
3737.4326171875	0.00833333333333333	0	-30	-6.0375	1	0.3916015625
3740.3076171875	0.00833333333333333	0	-30	-6.0375	2	0.46875
3742.966796875	0.00833333333333333	0	-30	-6.0375	2	0.4658203125
3745.5576171875	0.00833333333333333	0	-30	-6.0375	2	0.427734375
3748.4248046875	0.00833333333333333	0	30	3.47708333333333	1	0.48828125
3751.3662109375	0.00833333333333333	0	30	3.47708333333333	2	0.4033203125
3753.806640625	0.00833333333333333	0	30	3.47708333333333	1	0.490234375
3756.5322265625	0.00833333333333333	0	30	3.47708333333333	2	1.0126953125
3768.5078125	0.00833333333333333	0	30	3.47708333333333	2	0.6533203125
3771.357421875	0.00833333333333333	0	-30	-6.0375	1	0.4365234375
3774.1982421875	0.00833333333333333	0	30	3.47708333333333	2	0.515625
3776.8662109375	0.00833333333333333	0	-30	-6.0375	1	0.439453125
3779.541015625	0.00833333333333333	0	-30	-6.0375	1	0.453125
3782.33203125	0.00833333333333333	0	30	3.47708333333333	2	0.4697265625
3784.9072265625	0.00833333333333333	0	30	3.47708333333333	1	0.4873046875
3787.4326171875	0.00833333333333333	0	30	3.47708333333333	2	0.513671875
3789.9326171875	0.00833333333333333	0	30	3.47708333333333	2	0.5576171875
3792.7822265625	0.00833333333333333	0	30	3.47708333333333	2	0.484375
3795.791015625	0.00833333333333333	0	-30	-6.0375	2	0.2197265625
3798.34765625	0.00833333333333333	0	30	3.47708333333333	2	1.5986328125
3802.515625	0.00833333333333333	0	-30	-6.0375	2	0.55078125
3805.45703125	0.00833333333333333	0	-30	-6.0375	1	0.4580078125
3808.08203125	0.00833333333333333	0	-30	-6.0375	2	0.5771484375
3810.6904296875	0.00833333333333333	0	-30	-6.0375	1	0.720703125
3813.5654296875	0.00833333333333333	0	30	3.47708333333333	2	0.4619140625
3816.240234375	0.00833333333333333	0	30	3.35208333333333	2	0.4111328125
3818.9736328125	0.00833333333333333	0	30	3.35208333333333	2	0.4853515625
3821.640625	0.00833333333333333	0	30	3.35208333333333	2	0.5947265625
3824.4638671875	0.00833333333333333	0	30	3.35208333333333	2	0.427734375
3827.20703125	0.00833333333333333	0	-30	-6.0375	1	1.8125
3831.46484375	0.00833333333333333	0	30	3.35208333333333	2	0.5947265625
3834.4814453125	0.00833333333333333	0	-30	-6.0375	1	0.9306640625
3837.6728515625	0.00833333333333333	0	-30	-6.0375	2	0.8994140625
3840.7734375	0.00833333333333333	0	30	3.22708333333333	1	0.662109375
3843.4814453125	0.00833333333333333	0	30	3.22708333333333	1	0.8427734375
3846.689453125	0.00833333333333333	0	30	3.22708333333333	2	1.5869140625
3850.72265625	0.00833333333333333	0	-30	-6.0375	1	0.3857421875
3853.2734375	0.00833333333333333	0	-30	-6.0375	2	0.4423828125
3855.931640625	0.00833333333333333	0	30	3.22708333333333	2	0.4482421875
3858.4638671875	0.00833333333333333	0	30	3.22708333333333	2	0.46875
3861.0400390625	0.00833333333333333	0	30	3.22708333333333	1	0.4609375
3863.6650390625	0.00833333333333333	0	30	3.22708333333333	2	0.4677734375
3866.1142578125	0.00833333333333333	0	30	3.22708333333333	2	0.4990234375
3868.9814453125	0.00833333333333333	0	-30	-6.0375	1	0.52734375
3871.53125	0.00833333333333333	0	-30	-6.0375	2	0.3857421875
3873.947265625	0.00833333333333333	0	30	3.22708333333333	1	0.41015625
3876.8388671875	0.00833333333333333	0	-30	-6.0375	2	0.5341796875
3879.7978515625	0.00833333333333333	0	-30	-6.0375	2	0.4873046875
3882.33984375	0.00833333333333333	0	30	3.22708333333333	2	0.529296875
3884.8134765625	0.00833333333333333	0	-30	-6.0375	1	0.4716796875
3887.3310546875	0.00833333333333333	0	30	3.22708333333333	1	0.4658203125
3889.84765625	0.00833333333333333	0	-30	-6.0375	1	0.5498046875
3892.380859375	0.00833333333333333	0	30	3.22708333333333	2	0.544921875
3895.013671875	0.00833333333333333	0	-30	-6.0375	1	0.6962890625
3897.9638671875	0.00833333333333333	0	30	3.22708333333333	2	2.5859375
3902.9716796875	0.00833333333333333	0	30	3.22708333333333	2	0.578125
3905.9638671875	0.00833333333333333	0	-30	-6.0375	1	0.4580078125
3908.771484375	0.00833333333333333	0	-30	-6.0375	1	0.466796875
3911.5380859375	0.00833333333333333	0	30	3.22708333333333	1	0.4921875
3914.36328125	0.00833333333333333	0	-30	-5.9125	2	0.5390625
3916.9638671875	0.00833333333333333	0	30	3.22708333333333	1	0.8271484375
3919.8134765625	0.00833333333333333	0	-30	-5.9125	1	0.44921875
3922.6806640625	0.00833333333333333	0	-30	-5.9125	1	0.517578125
3925.4306640625	0.00833333333333333	0	-30	-5.9125	1	0.50390625
3928.1796875	0.00833333333333333	0	-30	-5.9125	1	0.4267578125
3930.6220703125	0.00833333333333333	0	30	3.22708333333333	2	0.5048828125
3933.447265625	0.00833333333333333	0	-30	-5.9125	1	0.5673828125
3936.095703125	0.00833333333333333	0	30	3.22708333333333	1	0.5751953125
3938.7138671875	0.00833333333333333	0	-30	-5.7875	2	1.021484375
3942.171875	0.00833333333333333	0	30	3.22708333333333	2	0.5712890625
3944.9052734375	0.00833333333333333	0	-30	-5.7875	1	0.486328125
3947.5791015625	0.00833333333333333	0	-30	-5.7875	1	0.5166015625
3950.296875	0.00833333333333333	0	30	3.22708333333333	2	0.494140625
3953.2373046875	0.00833333333333333	0	30	3.22708333333333	2	0.41796875
3955.896484375	0.00833333333333333	0	-30	-5.7875	1	0.3994140625
3958.4130859375	0.00833333333333333	0	-30	-5.7875	2	0.4501953125
3961.3212890625	0.00833333333333333	0	30	3.22708333333333	1	0.7900390625
3964.3134765625	0.00833333333333333	0	30	3.22708333333333	2	0.55859375
3966.912109375	0.00833333333333333	0	30	3.22708333333333	2	0.4404296875
3969.49609375	0.00833333333333333	0	30	3.22708333333333	1	2.6962890625
3974.3291015625	0.00833333333333333	0	-30	-5.7875	1	0.5185546875
3977.2373046875	0.00833333333333333	0	-30	-5.7875	1	0.5869140625
3979.962890625	0.00833333333333333	0	30	3.22708333333333	2	0.669921875
3982.7294921875	0.00833333333333333	0	-30	-5.7875	1	0.5673828125
3985.4130859375	0.00833333333333333	0	30	3.22708333333333	2	0.4755859375
3988.2294921875	0.00833333333333333	0	-30	-5.7875	1	0.7314453125
3991.0458984375	0.00833333333333333	0	-30	-5.7875	2	0.4833984375
3993.9462890625	0.00833333333333333	0	-30	-5.7875	1	0.6865234375
4002.5869140625	0.00833333333333333	0	30	3.22708333333333	2	0.646484375
4005.6455078125	0.00833333333333333	0	30	3.22708333333333	2	0.4833984375
4008.220703125	0.00833333333333333	0	30	3.22708333333333	2	0.4765625
4011.162109375	0.00833333333333333	0	30	3.10208333333333	2	0.623046875
4014.0458984375	0.00833333333333333	0	30	3.10208333333333	2	0.603515625
4017.052734375	0.00833333333333333	0	-30	-5.7875	1	0.453125
4019.8291015625	0.00833333333333333	0	-30	-5.7875	1	0.4365234375
4022.51171875	0.00833333333333333	0	30	3.10208333333333	1	0.8984375
4025.5869140625	0.00833333333333333	0	-30	-5.7875	1	0.4951171875
4028.51953125	0.00833333333333333	0	-30	-5.7875	1	0.474609375
4031.1201171875	0.00833333333333333	0	30	3.10208333333333	1	0.498046875
4034.078125	0.00833333333333333	0	30	3.10208333333333	2	0.5556640625
4036.6123046875	0.00833333333333333	0	30	3.10208333333333	2	0.6376953125
4039.287109375	0.00833333333333333	0	-30	-5.6625	1	0.5146484375
4041.970703125	0.00833333333333333	0	-30	-5.6625	1	0.439453125
4044.4775390625	0.00833333333333333	0	30	3.10208333333333	2	0.4609375
4047.328125	0.00833333333333333	0	-30	-5.6625	1	0.650390625
4050.1025390625	0.00833333333333333	0	30	3.10208333333333	2	0.404296875
4052.8369140625	0.00833333333333333	0	-30	-5.6625	1	0.4296875
4055.5205078125	0.00833333333333333	0	-30	-5.6625	1	0.5859375
4058.2275390625	0.00833333333333333	0	-30	-5.5375	2	0.462890625
4060.6787109375	0.00833333333333333	0	30	3.10208333333333	1	0.63671875
4063.51171875	0.00833333333333333	0	30	3.10208333333333	2	0.611328125
4066.5029296875	0.00833333333333333	0	30	3.10208333333333	1	0.7724609375
4069.6767578125	0.00833333333333333	0	-30	-5.5375	1	0.654296875
4072.578125	0.00833333333333333	0	30	3.10208333333333	2	0.4736328125
4075.4267578125	0.00833333333333333	0	-30	-5.5375	1	0.5927734375
4078.0361328125	0.00833333333333333	0	30	3.10208333333333	1	0.84765625
4081.14453125	0.00833333333333333	0	30	3.10208333333333	1	0.8427734375
4084.177734375	0.00833333333333333	0	-30	-5.5375	2	0.5537109375
4087.1865234375	0.00833333333333333	0	-30	-5.5375	1	0.513671875
4089.8359375	0.00833333333333333	0	30	3.10208333333333	1	0.5283203125
4092.3935546875	0.00833333333333333	0	-30	-5.5375	2	0.6748046875
4095.0849609375	0.00833333333333333	0	-30	-5.5375	1	0.4951171875
4097.611328125	0.00833333333333333	0	30	3.10208333333333	2	0.7685546875
4100.7529296875	0.00833333333333333	0	-30	-5.5375	1	0.6435546875
4103.7431640625	0.00833333333333333	0	30	3.10208333333333	2	0.693359375
4106.5859375	0.00833333333333333	0	30	3.10208333333333	1	1.666015625
4110.6611328125	0.00833333333333333	0	-30	-5.5375	1	0.51953125
4113.5771484375	0.00833333333333333	0	-30	-5.5375	1	0.435546875
4116.1103515625	0.00833333333333333	0	30	3.10208333333333	2	0.501953125
4118.6689453125	0.00833333333333333	0	30	3.10208333333333	1	0.5439453125
4121.65234375	0.00833333333333333	0	30	3.10208333333333	1	0.568359375
4124.3515625	0.00833333333333333	0	30	3.10208333333333	2	0.509765625
4127.001953125	0.00833333333333333	0	30	3.10208333333333	1	0.8671875
4130.3935546875	0.00833333333333333	0	30	3.10208333333333	1	0.595703125
4133.501953125	0.00833333333333333	0	-30	-5.5375	2	0.6396484375
4136.3935546875	0.00833333333333333	0	30	3.10208333333333	1	0.4677734375
4139.134765625	0.00833333333333333	0	30	3.10208333333333	1	0.734375
4142.21875	0.00833333333333333	0	-30	-5.5375	1	1.1708984375
4145.626953125	0.00833333333333333	0	30	3.10208333333333	2	1.0029296875
4148.6689453125	0.00833333333333333	0	-30	-5.5375	1	0.5771484375
4151.701171875	0.00833333333333333	0	-30	-5.5375	1	0.6328125
4154.6689453125	0.00833333333333333	0	-30	-5.5375	1	0.48046875
4157.4423828125	0.00833333333333333	0	-30	-5.5375	2	0.5556640625
4160.2431640625	0.00833333333333333	0	-30	-5.5375	1	0.6748046875
4163.142578125	0.00833333333333333	0	-30	-5.5375	2	0.5595703125
4165.7353515625	0.00833333333333333	0	30	3.10208333333333	2	0.4951171875
4168.66796875	0.00833333333333333	0	-30	-5.5375	2	0.7861328125
4171.8681640625	0.00833333333333333	0	-30	-5.5375	1	0.5546875
4174.8515625	0.00833333333333333	0	30	3.10208333333333	2	0.5546875
4177.9423828125	0.00833333333333333	0	-30	-5.5375	2	0.80078125
4181.0927734375	0.00833333333333333	0	30	3.10208333333333	2	0.490234375
4184.0927734375	0.00833333333333333	0	-30	-5.5375	1	0.41015625
4187	0.00833333333333333	0	-30	-5.5375	1	0.607421875
4189.8759765625	0.00833333333333333	0	-30	-5.5375	2	0.4267578125
4192.6669921875	0.00833333333333333	0	-30	-5.5375	1	0.572265625
4195.609375	0.00833333333333333	0	30	3.10208333333333	2	0.494140625
4198.3173828125	0.00833333333333333	0	30	2.97708333333333	1	0.482421875
4201.234375	0.00833333333333333	0	-30	-5.5375	1	0.4208984375
4203.9013671875	0.00833333333333333	0	30	2.97708333333333	2	0.642578125
4206.9013671875	0.00833333333333333	0	-30	-5.5375	1	0.5546875
4209.55078125	0.00833333333333333	0	-30	-5.5375	2	0.6728515625
4212.484375	0.00833333333333333	0	30	2.97708333333333	2	0.7236328125
4215.4169921875	0.00833333333333333	0	30	2.97708333333333	2	0.4873046875
4218.076171875	0.00833333333333333	0	-30	-5.5375	2	1.1796875
4221.517578125	0.00833333333333333	0	-30	-5.5375	2	0.986328125
4224.8095703125	0.00833333333333333	0	-30	-5.5375	1	0.4541015625
4227.3505859375	0.00833333333333333	0	30	2.97708333333333	2	0.4814453125
4229.892578125	0.00833333333333333	0	30	2.97708333333333	1	0.4755859375
