onset	duration	titr	surround	centre	response	rt
252.1015625	0.00833333333333333	1	-30	15	2	0.8720703125
255.4931640625	0.00833333333333333	1	NaN	-15	1	0.744140625
258.4853515625	0.00833333333333333	1	NaN	15	2	0.591796875
261.6083984375	0.00833333333333333	1	30	15	2	0.6533203125
264.4521484375	0.00833333333333333	1	30	14	2	0.6494140625
267.6845703125	0.00833333333333333	1	NaN	14	2	0.4169921875
270.208984375	0.00833333333333333	1	30	13	2	0.62109375
273.1337890625	0.00833333333333333	1	NaN	13	2	0.4638671875
276.025390625	0.00833333333333333	1	NaN	-14	1	0.5322265625
278.7421875	0.00833333333333333	1	-30	14	2	0.591796875
281.55078125	0.00833333333333333	1	NaN	12	2	0.431640625
284.43359375	0.00833333333333333	1	NaN	11	2	0.380859375
287.359375	0.00833333333333333	1	NaN	-13	1	0.3671875
290.1337890625	0.00833333333333333	1	NaN	10	2	0.5048828125
293.150390625	0.00833333333333333	1	-30	-15	1	0.48828125
296.1083984375	0.00833333333333333	1	NaN	9	2	0.40234375
298.9248046875	0.00833333333333333	1	NaN	8	2	0.3857421875
301.6083984375	0.00833333333333333	1	-30	13	2	0.4462890625
304.57421875	0.00833333333333333	1	NaN	7	2	0.4326171875
307.3837890625	0.00833333333333333	1	NaN	-12	1	0.3515625
310.150390625	0.00833333333333333	1	-30	-14	1	0.560546875
313.1416015625	0.00833333333333333	1	NaN	6	2	0.361328125
316	0.00833333333333333	1	30	-15	1	0.4873046875
319	0.00833333333333333	1	NaN	5	2	0.4072265625
321.7333984375	0.00833333333333333	1	30	-14	1	0.42578125
324.2666015625	0.00833333333333333	1	-30	12	2	0.5087890625
327.3330078125	0.00833333333333333	1	30	-13	1	0.39453125
330.2080078125	0.00833333333333333	1	NaN	4	2	0.591796875
332.9990234375	0.00833333333333333	1	NaN	3	2	0.79296875
336.2744140625	0.00833333333333333	1	-30	11	2	0.4853515625
338.8994140625	0.00833333333333333	1	NaN	2	1	0.9970703125
342.1494140625	0.00833333333333333	1	NaN	-11	1	0.5947265625
345	0.00833333333333333	1	30	12	2	0.4716796875
347.765625	0.00833333333333333	1	-30	10	2	0.5546875
350.75	0.00833333333333333	1	-30	-13	1	0.5625
353.4990234375	0.00833333333333333	1	30	-12	1	0.3974609375
356.3828125	0.00833333333333333	1	-30	9	2	0.513671875
359.357421875	0.00833333333333333	1	-30	-12	1	0.7548828125
362.3662109375	0.00833333333333333	1	30	11	2	0.546875
365.1826171875	0.00833333333333333	1	-30	8	2	0.59375
368.0986328125	0.00833333333333333	1	NaN	3	2	0.91015625
371.5986328125	0.00833333333333333	1	NaN	2	2	0.642578125
374.7490234375	0.00833333333333333	1	30	10	2	0.6123046875
377.7236328125	0.00833333333333333	1	-30	7	2	0.58203125
380.916015625	0.00833333333333333	1	30	9	2	0.837890625
384.099609375	0.00833333333333333	1	-30	6	2	0.517578125
387.0576171875	0.00833333333333333	1	30	-11	1	0.50390625
389.90625	0.00833333333333333	1	NaN	-10	1	0.7275390625
392.765625	0.00833333333333333	1	30	8	2	0.8681640625
395.94921875	0.00833333333333333	1	30	-10	1	0.46875
398.69921875	0.00833333333333333	1	30	7	1	0.4873046875
401.482421875	0.00833333333333333	1	30	-9	1	0.4873046875
404.08203125	0.00833333333333333	1	30	-8	1	0.48046875
407.03125	0.00833333333333333	1	30	8	1	0.947265625
410.5478515625	0.00833333333333333	1	30	-7	1	0.57421875
413.431640625	0.00833333333333333	1	NaN	1	2	1.03515625
416.9990234375	0.00833333333333333	1	30	-6	1	0.4599609375
419.8232421875	0.00833333333333333	1	NaN	-9	1	0.5078125
422.7236328125	0.00833333333333333	1	30	9	2	0.630859375
425.58203125	0.00833333333333333	1	-30	5	2	0.4287109375
428.3896484375	0.00833333333333333	1	-30	-11	1	0.62890625
431.3818359375	0.00833333333333333	1	NaN	0	1	0.701171875
434.240234375	0.00833333333333333	1	30	8	2	0.6748046875
437.21484375	0.00833333333333333	1	NaN	1	1	1.2119140625
440.65625	0.00833333333333333	1	30	-5	1	0.5146484375
443.28125	0.00833333333333333	1	-30	4	2	0.4345703125
446.2060546875	0.00833333333333333	1	-30	3	2	0.517578125
449.03125	0.00833333333333333	1	30	-4	1	0.4443359375
451.71484375	0.00833333333333333	1	-30	2	2	0.4248046875
454.2734375	0.00833333333333333	1	-30	-10	1	0.4267578125
456.84765625	0.00833333333333333	1	-30	1	1	0.64453125
459.72265625	0.00833333333333333	1	NaN	2	1	0.6015625
462.6982421875	0.00833333333333333	1	-30	2	2	0.841796875
465.9814453125	0.00833333333333333	1	NaN	3	1	1.2705078125
469.6982421875	0.00833333333333333	1	30	-3	1	0.5625
472.7978515625	0.00833333333333333	1	NaN	4	2	0.6708984375
476.1474609375	0.00833333333333333	1	NaN	-8	1	0.45703125
478.748046875	0.00833333333333333	1	-30	1	2	0.529296875
481.53125	0.00833333333333333	1	30	7	1	0.8974609375
484.7646484375	0.00833333333333333	1	-30	0	2	0.7041015625
487.85546875	0.00833333333333333	1	30	8	1	1.60546875
491.7802734375	0.00833333333333333	1	-30	-1	2	0.5205078125
494.546875	0.00833333333333333	1	30	9	1	0.59375
497.4140625	0.00833333333333333	1	NaN	3	2	0.87890625
500.86328125	0.00833333333333333	1	30	10	2	0.765625
503.8974609375	0.00833333333333333	1	NaN	2	2	0.8203125
506.947265625	0.00833333333333333	1	NaN	-7	1	0.5703125
509.8642578125	0.00833333333333333	1	30	9	2	1.25390625
513.513671875	0.00833333333333333	1	-30	-2	2	0.68359375
516.62109375	0.00833333333333333	1	30	-2	1	0.529296875
519.5888671875	0.00833333333333333	1	30	-1	1	0.4970703125
522.4306640625	0.00833333333333333	1	30	0	1	0.703125
525.5888671875	0.00833333333333333	1	30	1	1	0.689453125
528.5048828125	0.00833333333333333	1	30	8	1	0.7568359375
531.763671875	0.00833333333333333	1	30	2	1	0.71484375
534.955078125	0.00833333333333333	1	30	9	2	0.67578125
537.86328125	0.00833333333333333	1	-30	-3	2	0.5595703125
540.4970703125	0.00833333333333333	1	30	3	1	0.5654296875
543.396484375	0.00833333333333333	1	NaN	-6	1	0.5224609375
546.1220703125	0.00833333333333333	1	30	8	2	0.65234375
549.1875	0.00833333333333333	1	NaN	-5	1	0.4033203125
551.7216796875	0.00833333333333333	1	-30	-4	1	0.8857421875
730.6689453125	0.00833333333333333	1	-30	-3	2	0.85546875
733.9189453125	0.00833333333333333	1	NaN	-4	1	0.822265625
736.91015625	0.00833333333333333	1	30	4	1	0.71875
739.810546875	0.00833333333333333	1	-30	-9	1	0.787109375
742.9345703125	0.00833333333333333	1	NaN	1	2	0.90234375
746.1181640625	0.00833333333333333	1	NaN	-3	1	0.6787109375
749.4931640625	0.00833333333333333	1	-30	-8	1	0.671875
752.326171875	0.00833333333333333	1	-30	-4	1	0.767578125
755.7099609375	0.00833333333333333	1	30	7	2	0.775390625
758.7685546875	0.00833333333333333	1	NaN	0	1	0.8134765625
761.79296875	0.00833333333333333	1	30	5	1	0.7646484375
765.083984375	0.00833333333333333	1	-30	-7	1	0.7138671875
768.1435546875	0.00833333333333333	1	-30	-3	2	1.1904296875
771.759765625	0.00833333333333333	1	-30	-4	1	0.814453125
774.833984375	0.00833333333333333	1	NaN	-2	1	0.6923828125
777.818359375	0.00833333333333333	1	NaN	1	1	0.7802734375
780.8759765625	0.00833333333333333	1	-30	-3	1	1.306640625
784.30078125	0.00833333333333333	1	30	6	1	0.7294921875
787.392578125	0.00833333333333333	1	NaN	2	1	1.0625
790.826171875	0.00833333333333333	1	-30	-2	2	0.63671875
793.6923828125	0.00833333333333333	1	30	6	2	0.7783203125
797.091796875	0.00833333333333333	1	-30	-3	1	0.787109375
800.3505859375	0.00833333333333333	1	NaN	3	2	0.560546875
803.083984375	0.00833333333333333	1	-30	-6	1	0.546875
806.0751953125	0.00833333333333333	1	NaN	2	2	0.587890625
808.908203125	0.00833333333333333	1	-30	-2	2	0.546875
811.8251953125	0.00833333333333333	1	-30	-5	1	0.615234375
814.9580078125	0.00833333333333333	1	-30	-4	1	0.5693359375
818.0087890625	0.00833333333333333	1	-30	-3	2	0.55859375
820.7333984375	0.00833333333333333	1	30	5	1	1.0419921875
824.1162109375	0.00833333333333333	1	30	6	2	1.5078125
828.2080078125	0.00833333333333333	1	-30	-4	1	0.82421875
831.599609375	0.00833333333333333	1	-30	-3	1	0.6162109375
834.6416015625	0.00833333333333333	1	30	5	2	0.7021484375
837.8330078125	0.00833333333333333	1	NaN	1	1	0.6708984375
840.6005859375	0.00833333333333333	1	30	4	1	0.6796875
843.69140625	0.00833333333333333	1	NaN	-1	1	0.685546875
846.5078125	0.00833333333333333	1	NaN	0	1	0.8291015625
849.5751953125	0.00833333333333333	1	NaN	1	1	0.9853515625
853.0419921875	0.00833333333333333	1	30	7	2	0.8310546875
856.416015625	0.00833333333333333	1	30	5	1	1.28125
860.25	0.00833333333333333	1	NaN	2	2	0.85546875
863.408203125	0.00833333333333333	1	NaN	1	2	0.7529296875
866.357421875	0.00833333333333333	1	30	6	1	0.4921875
869.033203125	0.00833333333333333	1	30	7	1	0.6318359375
872.208984375	0.00833333333333333	1	NaN	0	2	0.3603515625
874.875	0.00833333333333333	1	NaN	2	1	0.9501953125
878.1669921875	0.00833333333333333	1	NaN	3	1	0.9951171875
881.3583984375	0.00833333333333333	1	-30	-2	2	1.0595703125
884.7578125	0.00833333333333333	1	30	8	1	0.587890625
887.6328125	0.00833333333333333	1	30	6	1	1.2890625
891.0498046875	0.00833333333333333	1	NaN	-1	1	0.640625
893.8251953125	0.00833333333333333	1	30	7	2	1.2890625
897.31640625	0.00833333333333333	1	-30	-3	1	0.830078125
900.4248046875	0.00833333333333333	1	NaN	4	2	0.5615234375
903.224609375	0.00833333333333333	1	30	9	2	0.9541015625
906.69140625	0.00833333333333333	1	NaN	0	1	0.630859375
909.666015625	0.00833333333333333	1	NaN	3	2	0.5283203125
912.5244140625	0.00833333333333333	1	NaN	1	2	1.23828125
915.94140625	0.00833333333333333	1	NaN	2	1	0.6943359375
918.9912109375	0.00833333333333333	1	30	6	1	0.5
921.94140625	0.00833333333333333	1	-30	-2	2	1.005859375
925.291015625	0.00833333333333333	1	-30	-3	1	0.7685546875
928.19921875	0.00833333333333333	1	NaN	0	1	0.6435546875
931.2158203125	0.00833333333333333	1	30	7	1	0.7158203125
934.474609375	0.00833333333333333	1	-30	-2	2	1.3046875
938.3828125	0.00833333333333333	1	NaN	1	1	0.7724609375
941.70703125	0.00833333333333333	1	30	8	2	0.8095703125
945.173828125	0.00833333333333333	1	NaN	3	2	0.8134765625
948.44921875	0.00833333333333333	1	30	7	2	0.6103515625
951.3662109375	0.00833333333333333	1	-30	-3	1	0.7021484375
954.623046875	0.00833333333333333	1	30	6	1	0.701171875
957.740234375	0.00833333333333333	1	NaN	2	2	0.6240234375
960.916015625	0.00833333333333333	1	30	7	2	0.9599609375
964.1318359375	0.00833333333333333	1	-30	-2	2	0.712890625
967.365234375	0.00833333333333333	1	NaN	1	1	0.6630859375
970.2900390625	0.00833333333333333	1	30	6	1	0.6103515625
973.4404296875	0.00833333333333333	1	-30	-3	2	0.6767578125
976.6572265625	0.00833333333333333	1	-30	-4	1	0.859375
979.615234375	0.00833333333333333	1	30	7	1	0.7900390625
982.857421875	0.00833333333333333	1	30	8	2	0.7236328125
986.1806640625	0.00833333333333333	1	30	7	2	0.888671875
989.2900390625	0.00833333333333333	1	30	6	1	0.66015625
992.2236328125	0.00833333333333333	1	NaN	2	1	0.494140625
995.248046875	0.00833333333333333	1	NaN	3	1	0.9970703125
998.7646484375	0.00833333333333333	1	NaN	4	2	1.0009765625
1002.1142578125	0.00833333333333333	1	NaN	3	1	0.8271484375
1005.1396484375	0.00833333333333333	1	NaN	4	2	0.8505859375
1008.40625	0.00833333333333333	1	NaN	3	2	0.84765625
1011.623046875	0.00833333333333333	1	NaN	2	1	0.9189453125
1014.96484375	0.00833333333333333	1	30	7.33333333333333	1	0.8896484375
1017.96484375	0.00833333333333333	1	NaN	2.91666666666667	1	1.673828125
1021.8642578125	0.00833333333333333	1	NaN	1.91666666666667	1	0.7900390625
1024.95703125	0.00833333333333333	1	-30	-2.33333333333333	1	0.9375
1028.45703125	0.00833333333333333	1	NaN	3.04166666666667	1	0.830078125
1432.3916015625	0.00833333333333333	1	30	7.45833333333333	1	0.98828125
1435.724609375	0.00833333333333333	1	-30	-3.33333333333333	2	0.6796875
1438.974609375	0.00833333333333333	1	30	6.33333333333333	1	0.6533203125
1441.908203125	0.00833333333333333	1	-30	-3.45833333333333	2	0.7041015625
1445.0830078125	0.00833333333333333	1	NaN	2.04166666666667	2	0.78515625
1448.06640625	0.00833333333333333	1	-30	-2.20833333333333	2	0.681640625
1451.3916015625	0.00833333333333333	1	30	6.45833333333333	1	0.9169921875
1454.8330078125	0.00833333333333333	1	NaN	1.91666666666667	1	0.5478515625
1457.82421875	0.00833333333333333	1	-30	-2.33333333333333	2	0.7724609375
1461.181640625	0.00833333333333333	1	-30	-2.45833333333333	1	0.8955078125
1464.4580078125	0.00833333333333333	1	30	7.58333333333333	2	0.634765625
1467.44921875	0.00833333333333333	1	NaN	3.16666666666667	2	0.66796875
1470.357421875	0.00833333333333333	1	-30	-3.58333333333333	2	0.775390625
1473.44921875	0.00833333333333333	1	NaN	2.04166666666667	2	0.67578125
1476.640625	0.00833333333333333	1	NaN	1.91666666666667	1	0.4921875
1479.416015625	0.00833333333333333	1	-30	-3.70833333333333	1	0.701171875
1482.3828125	0.00833333333333333	1	30	6.58333333333333	1	0.654296875
1485.607421875	0.00833333333333333	1	-30	-3.58333333333333	2	0.9580078125
1488.890625	0.00833333333333333	1	NaN	3.04166666666667	2	0.6513671875
1492.1494140625	0.00833333333333333	1	-30	-2.33333333333333	1	1.2958984375
1495.798828125	0.00833333333333333	1	30	6.70833333333333	2	0.6953125
1498.6826171875	0.00833333333333333	1	-30	-2.20833333333333	2	1.546875
1502.6494140625	0.00833333333333333	1	30	6.58333333333333	1	0.5888671875
1505.791015625	0.00833333333333333	1	NaN	2.91666666666667	1	0.703125
1508.7314453125	0.00833333333333333	1	30	7.45833333333333	2	0.6103515625
1511.740234375	0.00833333333333333	1	30	6.70833333333333	1	0.666015625
1514.8642578125	0.00833333333333333	1	30	7.33333333333333	2	0.59765625
1518.048828125	0.00833333333333333	1	-30	-3.70833333333333	1	0.7578125
1521.2314453125	0.00833333333333333	1	NaN	3.04166666666667	2	0.951171875
1524.4072265625	0.00833333333333333	1	-30	-2.33333333333333	2	0.6318359375
1527.181640625	0.00833333333333333	1	-30	-3.58333333333333	1	0.5771484375
1529.8232421875	0.00833333333333333	1	NaN	2.04166666666667	2	0.7041015625
1533.0654296875	0.00833333333333333	1	-30	-3.45833333333333	1	0.734375
1536.0146484375	0.00833333333333333	1	-30	-2.45833333333333	2	16.9287109375
1555.189453125	0.00833333333333333	1	-30	-3.33333333333333	2	0.74609375
1558.5146484375	0.00833333333333333	1	30	7.20833333333333	1	0.7333984375
1561.8818359375	0.00833333333333333	1	NaN	1.91666666666667	2	0.5576171875
1564.9150390625	0.00833333333333333	1	30	7.33333333333333	1	0.724609375
1568.0146484375	0.00833333333333333	1	-30	-3.45833333333333	1	0.75390625
1571.47265625	0.00833333333333333	1	-30	-2.58333333333333	2	0.583984375
1574.6640625	0.00833333333333333	1	NaN	2.91666666666667	2	0.7841796875
1577.6728515625	0.00833333333333333	1	-30	-2.70833333333333	1	0.943359375
1580.7890625	0.00833333333333333	1	-30	-2.58333333333333	2	0.6435546875
1583.623046875	0.00833333333333333	1	30	6.83333333333333	2	0.705078125
1586.763671875	0.00833333333333333	1	NaN	1.79166666666667	1	0.6767578125
1589.8056640625	0.00833333333333333	1	30	6.70833333333333	2	0.6591796875
1593.0888671875	0.00833333333333333	1	NaN	2.79166666666667	2	0.6005859375
1596.2724609375	0.00833333333333333	1	-30	-2.70833333333333	1	0.7529296875
1599.5224609375	0.00833333333333333	1	NaN	2.66666666666667	2	0.6630859375
1602.505859375	0.00833333333333333	1	-30	-2.58333333333333	1	0.6640625
1605.60546875	0.00833333333333333	1	-30	-2.45833333333333	1	0.595703125
1608.8056640625	0.00833333333333333	1	30	7.45833333333333	1	0.5556640625
1611.8544921875	0.00833333333333333	1	NaN	2.54166666666667	1	0.6025390625
1614.697265625	0.00833333333333333	1	NaN	1.91666666666667	1	0.6162109375
1617.72265625	0.00833333333333333	1	NaN	2.04166666666667	2	0.5751953125
1620.4970703125	0.00833333333333333	1	-30	-2.33333333333333	2	0.736328125
1623.5966796875	0.00833333333333333	1	-30	-2.45833333333333	2	0.6455078125
1626.888671875	0.00833333333333333	1	-30	-3.33333333333333	1	0.4970703125
1629.955078125	0.00833333333333333	1	-30	-3.20833333333333	1	0.638671875
1633.2138671875	0.00833333333333333	1	-30	-3.08333333333333	1	1.1806640625
1636.9140625	0.00833333333333333	1	NaN	2.66666666666667	2	0.751953125
1639.8134765625	0.00833333333333333	1	NaN	1.91666666666667	2	0.7333984375
1642.7880859375	0.00833333333333333	1	30	7.58333333333333	1	0.6142578125
1645.7470703125	0.00833333333333333	1	30	7.70833333333333	2	0.927734375
1649.0634765625	0.00833333333333333	1	30	6.58333333333333	1	0.6357421875
1652.146484375	0.00833333333333333	1	NaN	1.79166666666667	1	0.560546875
1655.0869140625	0.00833333333333333	1	-30	-2.58333333333333	1	0.828125
1658.388671875	0.00833333333333333	1	30	7.58333333333333	2	0.6064453125
1661.5126953125	0.00833333333333333	1	30	7.45833333333333	1	0.474609375
1664.1455078125	0.00833333333333333	1	30	6.70833333333333	1	0.7060546875
1667.3134765625	0.00833333333333333	1	-30	-2.45833333333333	1	0.7626953125
1670.396484375	0.00833333333333333	1	-30	-2.33333333333333	1	0.5751953125
1673.1884765625	0.00833333333333333	1	30	7.58333333333333	2	0.5673828125
1676.0546875	0.00833333333333333	1	-30	-2.95833333333333	1	0.564453125
1678.8955078125	0.00833333333333333	1	-30	-2.20833333333333	1	0.64453125
1681.7626953125	0.00833333333333333	1	30	7.45833333333333	1	0.681640625
1684.521484375	0.00833333333333333	1	NaN	2.54166666666667	1	0.5947265625
1687.529296875	0.00833333333333333	1	30	7.58333333333333	2	0.794921875
1690.9375	0.00833333333333333	1	NaN	1.91666666666667	1	0.578125
1693.595703125	0.00833333333333333	1	30	6.83333333333333	1	0.7919921875
1696.962890625	0.00833333333333333	1	-30	-2.83333333333333	1	0.77734375
1699.9541015625	0.00833333333333333	1	30	6.95833333333333	1	0.74609375
1703.0546875	0.00833333333333333	1	NaN	2.66666666666667	1	0.765625
1706.3623046875	0.00833333333333333	1	NaN	2.79166666666667	1	0.8505859375
1709.5615234375	0.00833333333333333	1	NaN	2.91666666666667	1	0.890625
1712.9375	0.00833333333333333	1	30	7.45833333333333	2	0.755859375
1715.8955078125	0.00833333333333333	1	30	7.08333333333333	1	0.5498046875
1718.64453125	0.00833333333333333	1	-30	-2.70833333333333	1	0.6005859375
1721.8125	0.00833333333333333	1	NaN	2.04166666666667	1	0.5849609375
1724.74609375	0.00833333333333333	1	-30	-2.58333333333333	1	0.6669921875
1727.978515625	0.00833333333333333	1	NaN	3.04166666666667	1	0.482421875
1731.0205078125	0.00833333333333333	1	-30	-2.08333333333333	2	0.4970703125
1812.861328125	0.00833333333333333	1	-30	-2.45833333333333	1	0.8427734375
1815.861328125	0.00833333333333333	1	NaN	3.16666666666667	2	0.5703125
1818.810546875	0.00833333333333333	1	NaN	3.04166666666667	2	0.533203125
1821.6279296875	0.00833333333333333	1	NaN	2.16666666666667	2	0.66015625
1824.6845703125	0.00833333333333333	1	-30	-2.20833333333333	1	0.3955078125
1827.4111328125	0.00833333333333333	1	NaN	2.04166666666667	1	0.6376953125
1830.259765625	0.00833333333333333	1	30	7.20833333333333	2	0.8291015625
1833.6015625	0.00833333333333333	1	NaN	2.16666666666667	2	0.599609375
1836.3525390625	0.00833333333333333	1	NaN	2.04166666666667	1	0.5849609375
1839.517578125	0.00833333333333333	1	30	7.08333333333333	2	0.71484375
1842.40234375	0.00833333333333333	1	-30	-2.33333333333333	2	0.56640625
1845.6025390625	0.00833333333333333	1	NaN	2.91666666666667	2	0.607421875
1848.7353515625	0.00833333333333333	1	-30	-2.08333333333333	1	0.76171875
1852.0849609375	0.00833333333333333	1	-30	-1.95833333333333	2	0.587890625
1855.28515625	0.00833333333333333	1	-30	-2.45833333333333	2	0.748046875
1858.6435546875	0.00833333333333333	1	NaN	2.16666666666667	2	0.6943359375
1861.943359375	0.00833333333333333	1	-30	-2.08333333333333	1	0.7138671875
1865.16015625	0.00833333333333333	1	NaN	2.79166666666667	2	0.521484375
1867.859375	0.00833333333333333	1	NaN	2.04166666666667	1	0.54296875
1870.66796875	0.00833333333333333	1	-30	-1.95833333333333	1	0.59765625
1873.55078125	0.00833333333333333	1	-30	-2.58333333333333	2	0.7548828125
1876.818359375	0.00833333333333333	1	30	7.33333333333333	2	0.7041015625
1879.9599609375	0.00833333333333333	1	-30	-2.70833333333333	2	0.658203125
1883.1435546875	0.00833333333333333	1	30	7.20833333333333	2	0.72265625
1886.5185546875	0.00833333333333333	1	NaN	2.66666666666667	1	0.771484375
1889.67578125	0.00833333333333333	1	NaN	2.79166666666667	2	0.55078125
1892.5595703125	0.00833333333333333	1	NaN	2.66666666666667	2	0.771484375
1895.5263671875	0.00833333333333333	1	-30	-1.83333333333333	2	0.716796875
1898.78515625	0.00833333333333333	1	-30	-1.95833333333333	2	0.666015625
1902.1259765625	0.00833333333333333	1	30	7.08333333333333	2	0.8046875
1905.3505859375	0.00833333333333333	1	30	6.95833333333333	1	0.62890625
1908.4931640625	0.00833333333333333	1	NaN	2.54166666666667	2	0.57421875
1911.6513671875	0.00833333333333333	1	-30	-2.08333333333333	2	0.82421875
1914.91796875	0.00833333333333333	1	30	7.08333333333333	1	0.5654296875
1917.6591796875	0.00833333333333333	1	-30	-2.83333333333333	2	0.6083984375
1920.642578125	0.00833333333333333	1	NaN	2.16666666666667	1	0.47265625
1923.30078125	0.00833333333333333	1	NaN	2.41666666666667	1	0.6064453125
1926.142578125	0.00833333333333333	1	-30	-2.95833333333333	1	0.5009765625
1928.951171875	0.00833333333333333	1	NaN	2.54166666666667	2	1.0283203125
1932.275390625	0.00833333333333333	1	NaN	2.29166666666667	1	0.9287109375
1935.6845703125	0.00833333333333333	1	30	7.20833333333333	2	0.703125
1938.8916015625	0.00833333333333333	1	-30	-2.83333333333333	1	0.80078125
1942.0087890625	0.00833333333333333	1	NaN	2.41666666666667	2	0.9716796875
1945.31640625	0.00833333333333333	1	-30	-2.70833333333333	1	0.7041015625
1948.43359375	0.00833333333333333	1	NaN	2.41666666666667	2	0.8505859375
1951.7255859375	0.00833333333333333	1	-30	-2.58333333333333	2	0.8154296875
1954.958984375	0.00833333333333333	1	30	7.08333333333333	1	0.5732421875
1958.0927734375	0.00833333333333333	1	30	7.20833333333333	2	0.736328125
1961.2333984375	0.00833333333333333	1	-30	-2.20833333333333	2	0.875
1964.5576171875	0.00833333333333333	1	-30	-2.70833333333333	1	0.7998046875
1967.6416015625	0.00833333333333333	1	-30	-2.58333333333333	2	0.6513671875
1970.908203125	0.00833333333333333	1	-30	-2.33333333333333	1	0.44140625
1973.958984375	0.00833333333333333	1	-30	-2.20833333333333	2	0.654296875
1976.7666015625	0.00833333333333333	1	30	7.08333333333333	1	0.4150390625
1979.2822265625	0.00833333333333333	1	NaN	2.29166666666667	1	0.5712890625
1982.1416015625	0.00833333333333333	1	30	6.95833333333333	2	0.6240234375
1985.30859375	0.00833333333333333	1	30	7.20833333333333	1	0.7685546875
1988.4658203125	0.00833333333333333	1	-30	-2.70833333333333	2	0.580078125
1991.216796875	0.00833333333333333	1	NaN	2.41666666666667	1	0.59765625
1994.408203125	0.00833333333333333	1	30	7.33333333333333	2	0.4052734375
1997.2080078125	0.00833333333333333	1	30	6.83333333333333	1	0.4775390625
1999.849609375	0.00833333333333333	1	NaN	2.54166666666667	2	0.380859375
2002.44140625	0.00833333333333333	1	-30	-2.83333333333333	1	0.484375
2005.2578125	0.00833333333333333	1	-30	-2.70833333333333	1	0.556640625
2008.1494140625	0.00833333333333333	1	30	6.95833333333333	2	0.7373046875
2011.1494140625	0.00833333333333333	1	30	7.20833333333333	1	0.44921875
2013.83203125	0.00833333333333333	1	NaN	2.41666666666667	1	0.638671875
2016.7744140625	0.00833333333333333	1	30	6.83333333333333	2	2.728515625
2021.8408203125	0.00833333333333333	1	30	7.33333333333333	1	0.662109375
2025.041015625	0.00833333333333333	1	NaN	2.54166666666667	1	0.58984375
2027.8828125	0.00833333333333333	1	NaN	2.66666666666667	1	0.564453125
2030.81640625	0.00833333333333333	1	-30	-2.58333333333333	1	0.638671875
2033.8984375	0.00833333333333333	1	30	6.70833333333333	2	0.61328125
2036.9990234375	0.00833333333333333	1	30	7.45833333333333	2	0.5927734375
2039.8994140625	0.00833333333333333	1	30	6.58333333333333	1	0.5078125
2042.6982421875	0.00833333333333333	1	NaN	2.79166666666667	2	0.685546875
2045.548828125	0.00833333333333333	1	30	6.70833333333333	1	0.5791015625
2048.3330078125	0.00833333333333333	1	30	6.83333333333333	1	0.6103515625
2051.2158203125	0.00833333333333333	1	-30	-2.45833333333333	1	0.6083984375
2054.482421875	0.00833333333333333	1	-30	-2.33333333333333	2	0.4375
2057.5068359375	0.00833333333333333	1	-30	-2.45833333333333	1	0.5009765625
2060.3486328125	0.00833333333333333	1	-30	-2.33333333333333	2	0.5634765625
2063.45703125	0.00833333333333333	1	30	6.95833333333333	1	0.6875
2066.3818359375	0.00833333333333333	1	-30	-2.45833333333333	2	0.5224609375
2069.07421875	0.00833333333333333	1	30	7.08333333333333	2	0.75
2072.4560546875	0.00833333333333333	1	30	6.95833333333333	1	0.4482421875
2075.4736328125	0.00833333333333333	1	30	7.08333333333333	2	0.55859375
2078.298828125	0.00833333333333333	1	-30	-2.58333333333333	2	0.677734375
2081.4736328125	0.00833333333333333	1	-30	-2.70833333333333	1	0.623046875
2084.3408203125	0.00833333333333333	1	30	6.95833333333333	2	0.404296875
2086.95703125	0.00833333333333333	1	30	6.83333333333333	1	1.2119140625
2090.298828125	0.00833333333333333	1	30	6.95833333333333	2	0.56640625
2093.0400390625	0.00833333333333333	1	30	6.83333333333333	2	1.0732421875
2096.3984375	0.00833333333333333	1	30	6.70833333333333	1	0.5224609375
2099.53125	0.00833333333333333	1	30	6.83333333333333	2	0.57421875
2102.3740234375	0.00833333333333333	0	-30	-2.40833333333333	1	1.2763671875
2105.8818359375	0.00833333333333333	0	-30	-2.40833333333333	2	0.5673828125
2108.9990234375	0.00833333333333333	0	-30	-2.40833333333333	1	0.4423828125
2111.70703125	0.00833333333333333	0	30	7.07083333333333	2	0.6064453125
2114.8740234375	0.00833333333333333	0	30	7.07083333333333	1	0.5439453125
2117.73046875	0.00833333333333333	0	-30	-2.40833333333333	1	0.8876953125
2121.1806640625	0.00833333333333333	0	-30	-2.40833333333333	1	0.669921875
2124.1484375	0.00833333333333333	0	-30	-2.40833333333333	1	0.5654296875
2127.08984375	0.00833333333333333	0	-30	-2.40833333333333	2	0.6728515625
2130.0400390625	0.00833333333333333	0	30	7.07083333333333	1	0.6103515625
2133.08984375	0.00833333333333333	0	-30	-2.40833333333333	1	2.880859375
2138.296875	0.00833333333333333	0	-30	-2.40833333333333	1	0.6337890625
2141.4482421875	0.00833333333333333	0	-30	-2.40833333333333	1	0.41015625
2144.2890625	0.00833333333333333	0	30	7.07083333333333	1	0.5771484375
2147.146484375	0.00833333333333333	0	30	7.07083333333333	2	0.640625
2150.0224609375	0.00833333333333333	0	-30	-2.40833333333333	2	0.5810546875
2153.0478515625	0.00833333333333333	0	30	7.07083333333333	1	0.771484375
2156.3466796875	0.00833333333333333	0	30	7.07083333333333	2	0.560546875
2159.34765625	0.00833333333333333	0	30	7.07083333333333	2	0.6796875
2162.3974609375	0.00833333333333333	0	30	7.07083333333333	2	0.7255859375
2165.4970703125	0.00833333333333333	0	30	7.07083333333333	2	0.826171875
2168.5224609375	0.00833333333333333	0	30	7.07083333333333	2	1.2734375
2172.1474609375	0.00833333333333333	0	-30	-2.40833333333333	2	0.6484375
2175.189453125	0.00833333333333333	0	-30	-2.40833333333333	2	0.7587890625
2178.3720703125	0.00833333333333333	0	-30	-2.40833333333333	2	0.6953125
2181.6962890625	0.00833333333333333	0	30	6.94583333333333	2	0.587890625
2184.4384765625	0.00833333333333333	0	30	6.94583333333333	2	0.6611328125
2187.447265625	0.00833333333333333	0	30	6.94583333333333	1	0.724609375
2190.705078125	0.00833333333333333	0	-30	-2.40833333333333	2	0.619140625
2193.8720703125	0.00833333333333333	0	-30	-2.53333333333333	2	0.7080078125
2197.0966796875	0.00833333333333333	0	-30	-2.53333333333333	1	0.4677734375
2199.8720703125	0.00833333333333333	0	-30	-2.53333333333333	1	0.7724609375
2203.12890625	0.00833333333333333	0	30	6.94583333333333	2	0.5234375
2206.171875	0.00833333333333333	0	30	6.94583333333333	2	0.7607421875
2209.11328125	0.00833333333333333	0	30	6.94583333333333	2	0.8671875
2212.1123046875	0.00833333333333333	0	-30	-2.53333333333333	2	2.724609375
2217.396484375	0.00833333333333333	0	30	6.94583333333333	2	0.6572265625
2220.421875	0.00833333333333333	0	-30	-2.53333333333333	2	2.607421875
2225.646484375	0.00833333333333333	0	-30	-2.53333333333333	2	0.6630859375
2228.921875	0.00833333333333333	0	30	6.94583333333333	1	0.603515625
2231.9970703125	0.00833333333333333	0	-30	-2.53333333333333	2	0.6240234375
2234.962890625	0.00833333333333333	0	30	6.94583333333333	1	0.5146484375
2237.5966796875	0.00833333333333333	0	30	6.94583333333333	1	0.560546875
2240.4873046875	0.00833333333333333	0	-30	-2.53333333333333	2	0.6787109375
2243.74609375	0.00833333333333333	0	-30	-2.65833333333333	1	0.6357421875
2246.455078125	0.00833333333333333	0	30	6.94583333333333	1	0.6552734375
2249.337890625	0.00833333333333333	0	30	6.94583333333333	2	3.548828125
2255.0625	0.00833333333333333	0	-30	-2.65833333333333	1	0.744140625
2257.9794921875	0.00833333333333333	0	-30	-2.65833333333333	1	1.2509765625
2261.4130859375	0.00833333333333333	0	30	6.94583333333333	2	1.3779296875
2265.212890625	0.00833333333333333	0	-30	-2.65833333333333	2	0.75390625
2268.3955078125	0.00833333333333333	0	-30	-2.65833333333333	1	0.53125
2271.4375	0.00833333333333333	0	-30	-2.65833333333333	1	0.513671875
2274.3046875	0.00833333333333333	0	30	6.94583333333333	1	0.57421875
2277.087890625	0.00833333333333333	0	30	6.94583333333333	2	0.5595703125
2279.8544921875	0.00833333333333333	0	-30	-2.65833333333333	2	0.568359375
2282.552734375	0.00833333333333333	0	-30	-2.65833333333333	1	0.6708984375
2285.9111328125	0.00833333333333333	0	30	6.94583333333333	2	0.6484375
2289.1533203125	0.00833333333333333	0	-30	-2.65833333333333	1	0.494140625
2292.1787109375	0.00833333333333333	0	-30	-2.65833333333333	2	0.724609375
2295.103515625	0.00833333333333333	0	-30	-2.65833333333333	1	0.51171875
2298.2373046875	0.00833333333333333	0	-30	-2.65833333333333	1	0.650390625
2301.2705078125	0.00833333333333333	0	30	6.94583333333333	2	0.4892578125
2304.1201171875	0.00833333333333333	0	30	6.94583333333333	1	0.6162109375
2306.9873046875	0.00833333333333333	0	30	6.94583333333333	2	0.404296875
2309.595703125	0.00833333333333333	0	-30	-2.65833333333333	1	0.64453125
2312.412109375	0.00833333333333333	0	-30	-2.65833333333333	2	0.6044921875
2315.25390625	0.00833333333333333	0	30	6.94583333333333	1	1.2900390625
2319.01953125	0.00833333333333333	0	-30	-2.65833333333333	2	0.6689453125
2322.14453125	0.00833333333333333	0	-30	-2.65833333333333	1	0.544921875
2325.0615234375	0.00833333333333333	0	30	6.94583333333333	1	0.626953125
2328.2197265625	0.00833333333333333	0	30	6.94583333333333	1	0.62890625
2331.3955078125	0.00833333333333333	0	-30	-2.65833333333333	2	0.6611328125
2334.578125	0.00833333333333333	0	30	6.94583333333333	1	0.6787109375
2337.7197265625	0.00833333333333333	0	-30	-2.65833333333333	1	0.537109375
2340.6611328125	0.00833333333333333	0	-30	-2.65833333333333	1	0.5478515625
2343.5615234375	0.00833333333333333	0	30	6.94583333333333	1	0.671875
2346.8203125	0.00833333333333333	0	30	7.07083333333333	2	0.548828125
2349.5283203125	0.00833333333333333	0	-30	-2.65833333333333	1	0.4970703125
2352.4365234375	0.00833333333333333	0	30	7.07083333333333	2	0.63671875
2460.7353515625	0.00833333333333333	0	-30	-2.65833333333333	1	0.59765625
2463.693359375	0.00833333333333333	0	-30	-2.65833333333333	2	0.7119140625
2466.634765625	0.00833333333333333	0	30	7.07083333333333	1	0.6748046875
2469.392578125	0.00833333333333333	0	-30	-2.65833333333333	1	0.564453125
2472.4765625	0.00833333333333333	0	-30	-2.65833333333333	2	0.609375
2475.642578125	0.00833333333333333	0	-30	-2.65833333333333	1	0.451171875
2478.4013671875	0.00833333333333333	0	30	7.07083333333333	2	0.572265625
2481.484375	0.00833333333333333	0	30	7.07083333333333	1	0.6650390625
2484.4677734375	0.00833333333333333	0	-30	-2.65833333333333	2	0.73828125
2487.4921875	0.00833333333333333	0	-30	-2.65833333333333	1	0.5859375
2490.3427734375	0.00833333333333333	0	-30	-2.65833333333333	1	0.703125
2493.2841796875	0.00833333333333333	0	-30	-2.65833333333333	1	0.7783203125
2496.6513671875	0.00833333333333333	0	30	7.07083333333333	2	0.70703125
2499.734375	0.00833333333333333	0	-30	-2.65833333333333	1	0.8642578125
2503.1005859375	0.00833333333333333	0	30	7.07083333333333	2	0.689453125
2506.30078125	0.00833333333333333	0	-30	-2.65833333333333	2	0.666015625
2509.275390625	0.00833333333333333	0	-30	-2.65833333333333	1	0.435546875
2511.984375	0.00833333333333333	0	30	7.07083333333333	1	0.6064453125
2515.076171875	0.00833333333333333	0	30	7.07083333333333	1	0.7470703125
2518.05859375	0.00833333333333333	0	30	7.07083333333333	2	0.580078125
2521.5009765625	0.00833333333333333	0	30	7.07083333333333	2	0.4736328125
2524.5673828125	0.00833333333333333	0	-30	-2.65833333333333	1	0.4560546875
2527.1669921875	0.00833333333333333	0	30	7.07083333333333	2	1.0244140625
2530.55859375	0.00833333333333333	0	-30	-2.65833333333333	2	0.78515625
2533.7919921875	0.00833333333333333	0	30	7.07083333333333	1	0.4794921875
2536.416015625	0.00833333333333333	0	-30	-2.65833333333333	1	0.615234375
2539.17578125	0.00833333333333333	0	-30	-2.65833333333333	1	0.5361328125
2541.833984375	0.00833333333333333	0	-30	-2.65833333333333	2	0.4140625
2544.8251953125	0.00833333333333333	0	30	7.07083333333333	1	0.806640625
2548.2666015625	0.00833333333333333	0	-30	-2.65833333333333	1	0.7333984375
2551.416015625	0.00833333333333333	0	-30	-2.65833333333333	2	0.912109375
2554.533203125	0.00833333333333333	0	30	7.07083333333333	2	1.0751953125
2557.875	0.00833333333333333	0	-30	-2.65833333333333	1	0.7490234375
2561.216796875	0.00833333333333333	0	-30	-2.65833333333333	1	0.6796875
2564.1826171875	0.00833333333333333	0	-30	-2.65833333333333	2	3.9541015625
2570.3828125	0.00833333333333333	0	-30	-2.65833333333333	2	0.921875
2573.5166015625	0.00833333333333333	0	30	7.07083333333333	1	0.8515625
2576.8330078125	0.00833333333333333	0	30	7.07083333333333	1	0.7841796875
2580.091796875	0.00833333333333333	0	30	7.07083333333333	1	0.5810546875
2582.791015625	0.00833333333333333	0	-30	-2.65833333333333	1	1.3056640625
2586.5498046875	0.00833333333333333	0	-30	-2.65833333333333	2	0.69140625
2589.5078125	0.00833333333333333	0	30	7.07083333333333	1	0.4130859375
2592.2744140625	0.00833333333333333	0	-30	-2.65833333333333	1	0.7509765625
2595.3408203125	0.00833333333333333	0	30	7.07083333333333	2	0.64453125
2598.3408203125	0.00833333333333333	0	30	7.07083333333333	2	0.5009765625
2601.291015625	0.00833333333333333	0	30	7.07083333333333	1	0.9501953125
2604.515625	0.00833333333333333	0	30	7.07083333333333	2	0.8623046875
2607.6240234375	0.00833333333333333	0	30	7.07083333333333	1	0.833984375
2610.69921875	0.00833333333333333	0	-30	-2.65833333333333	2	0.4228515625
2613.615234375	0.00833333333333333	0	-30	-2.65833333333333	1	0.4990234375
2616.474609375	0.00833333333333333	0	-30	-2.65833333333333	1	0.583984375
2619.5322265625	0.00833333333333333	0	30	7.07083333333333	2	0.58984375
2622.416015625	0.00833333333333333	0	30	7.07083333333333	2	0.73828125
2625.6328125	0.00833333333333333	0	-30	-2.65833333333333	1	0.6494140625
2628.58984375	0.00833333333333333	0	30	7.07083333333333	1	0.62890625
2631.390625	0.00833333333333333	0	-30	-2.65833333333333	1	0.66015625
2634.33984375	0.00833333333333333	0	30	7.07083333333333	1	0.5263671875
2637.2236328125	0.00833333333333333	0	-30	-2.65833333333333	1	0.9072265625
2640.265625	0.00833333333333333	0	-30	-2.53333333333333	2	0.9853515625
2643.7490234375	0.00833333333333333	0	30	7.07083333333333	2	0.669921875
2646.5986328125	0.00833333333333333	0	30	7.07083333333333	2	0.796875
2649.923828125	0.00833333333333333	0	30	7.07083333333333	1	0.6474609375
2653.0908203125	0.00833333333333333	0	-30	-2.53333333333333	2	0.6240234375
2656.2314453125	0.00833333333333333	0	-30	-2.53333333333333	1	0.572265625
2659.1982421875	0.00833333333333333	0	-30	-2.53333333333333	1	1.013671875
2662.3486328125	0.00833333333333333	0	-30	-2.53333333333333	1	0.55078125
2665.2822265625	0.00833333333333333	0	30	7.07083333333333	1	0.681640625
2668.0732421875	0.00833333333333333	0	30	7.07083333333333	1	0.482421875
2670.990234375	0.00833333333333333	0	30	7.07083333333333	2	0.3896484375
2673.6650390625	0.00833333333333333	0	-30	-2.53333333333333	1	0.5791015625
2676.623046875	0.00833333333333333	0	-30	-2.53333333333333	1	0.541015625
2679.5654296875	0.00833333333333333	0	30	7.07083333333333	2	0.53515625
2682.5478515625	0.00833333333333333	0	30	7.07083333333333	2	0.50390625
2685.240234375	0.00833333333333333	0	30	7.07083333333333	2	0.84375
2688.306640625	0.00833333333333333	0	30	7.07083333333333	1	0.7138671875
2691.2392578125	0.00833333333333333	0	30	7.07083333333333	2	0.541015625
2693.931640625	0.00833333333333333	0	-30	-2.40833333333333	1	0.4326171875
2696.505859375	0.00833333333333333	0	-30	-2.40833333333333	2	0.546875
2699.388671875	0.00833333333333333	0	30	7.07083333333333	2	0.6328125
2702.4228515625	0.00833333333333333	0	30	7.07083333333333	1	0.5341796875
2773.671875	0.00833333333333333	0	-30	-2.40833333333333	2	0.6474609375
2776.546875	0.00833333333333333	0	-30	-2.40833333333333	1	0.748046875
2779.7470703125	0.00833333333333333	0	30	7.07083333333333	2	0.7568359375
2782.8388671875	0.00833333333333333	0	-30	-2.40833333333333	1	0.7451171875
2785.86328125	0.00833333333333333	0	30	7.07083333333333	2	0.6728515625
2789.00390625	0.00833333333333333	0	-30	-2.40833333333333	2	0.68359375
2792.2880859375	0.00833333333333333	0	-30	-2.40833333333333	2	0.6640625
2795.1298828125	0.00833333333333333	0	30	7.07083333333333	1	0.4462890625
2798.0703125	0.00833333333333333	0	-30	-2.40833333333333	2	0.681640625
2801.1630859375	0.00833333333333333	0	30	7.07083333333333	2	0.46875
2804.1376953125	0.00833333333333333	0	-30	-2.40833333333333	1	0.630859375
2807.1298828125	0.00833333333333333	0	-30	-2.40833333333333	2	0.494140625
2810.021484375	0.00833333333333333	0	30	7.07083333333333	2	0.5869140625
2812.7294921875	0.00833333333333333	0	30	7.07083333333333	2	1.18359375
2816.146484375	0.00833333333333333	0	30	7.07083333333333	2	0.9580078125
2819.462890625	0.00833333333333333	0	-30	-2.40833333333333	2	0.7216796875
2822.6787109375	0.00833333333333333	0	30	7.07083333333333	1	0.5380859375
2825.3701171875	0.00833333333333333	0	30	7.07083333333333	2	0.951171875
2828.7041015625	0.00833333333333333	0	-30	-2.40833333333333	1	0.6083984375
2831.8046875	0.00833333333333333	0	30	7.07083333333333	2	0.4443359375
2834.603515625	0.00833333333333333	0	30	7.07083333333333	2	0.677734375
2837.8046875	0.00833333333333333	0	30	7.07083333333333	1	0.3642578125
2840.6455078125	0.00833333333333333	0	30	7.07083333333333	2	0.5634765625
2843.76953125	0.00833333333333333	0	-30	-2.40833333333333	1	0.9677734375
2847.302734375	0.00833333333333333	0	-30	-2.40833333333333	2	0.71484375
2850.2958984375	0.00833333333333333	0	-30	-2.40833333333333	2	0.521484375
2853.24609375	0.00833333333333333	0	30	7.07083333333333	2	0.66796875
2856.4033203125	0.00833333333333333	0	-30	-2.40833333333333	1	0.54296875
2859.1953125	0.00833333333333333	0	-30	-2.40833333333333	1	0.6552734375
2862.2626953125	0.00833333333333333	0	-30	-2.40833333333333	2	0.4833984375
2865.0625	0.00833333333333333	0	30	7.07083333333333	2	0.4912109375
2867.919921875	0.00833333333333333	0	30	7.07083333333333	2	0.6025390625
2871.0791015625	0.00833333333333333	0	-30	-2.40833333333333	2	0.451171875
2873.5947265625	0.00833333333333333	0	-30	-2.40833333333333	1	1.0478515625
2876.87890625	0.00833333333333333	0	30	7.07083333333333	2	0.5
2879.5703125	0.00833333333333333	0	-30	-2.40833333333333	2	0.751953125
2882.470703125	0.00833333333333333	0	30	6.94583333333333	2	0.7236328125
2885.611328125	0.00833333333333333	0	30	6.94583333333333	1	0.51171875
2888.3115234375	0.00833333333333333	0	-30	-2.40833333333333	2	0.427734375
2891.1865234375	0.00833333333333333	0	-30	-2.40833333333333	1	0.552734375
2894.1689453125	0.00833333333333333	0	-30	-2.40833333333333	1	0.6181640625
2896.8955078125	0.00833333333333333	0	-30	-2.40833333333333	2	0.4912109375
2899.7119140625	0.00833333333333333	0	30	6.94583333333333	2	0.6435546875
2902.7451171875	0.00833333333333333	0	-30	-2.40833333333333	1	0.74609375
2905.8037109375	0.00833333333333333	0	-30	-2.40833333333333	1	0.8154296875
2909.09375	0.00833333333333333	0	30	6.94583333333333	1	1.166015625
2912.8935546875	0.00833333333333333	0	-30	-2.40833333333333	2	1.1337890625
2916.4365234375	0.00833333333333333	0	-30	-2.40833333333333	1	1.015625
2919.5615234375	0.00833333333333333	0	30	6.94583333333333	1	1.130859375
2923.111328125	0.00833333333333333	0	-30	-2.40833333333333	2	0.95703125
2926.4697265625	0.00833333333333333	0	30	6.94583333333333	1	0.638671875
2929.4853515625	0.00833333333333333	0	30	6.94583333333333	2	1.0791015625
2933.0185546875	0.00833333333333333	0	-30	-2.40833333333333	2	0.681640625
2935.8779296875	0.00833333333333333	0	-30	-2.40833333333333	1	0.7421875
2938.927734375	0.00833333333333333	0	-30	-2.40833333333333	2	0.380859375
2941.8359375	0.00833333333333333	0	30	6.94583333333333	1	0.46484375
2944.5029296875	0.00833333333333333	0	-30	-2.40833333333333	1	1.1416015625
2947.9443359375	0.00833333333333333	0	30	6.94583333333333	2	0.5087890625
2950.861328125	0.00833333333333333	0	30	6.94583333333333	2	0.759765625
2953.8359375	0.00833333333333333	0	30	6.94583333333333	2	0.5693359375
2956.9609375	0.00833333333333333	0	30	6.94583333333333	1	0.7001953125
2959.935546875	0.00833333333333333	0	30	6.94583333333333	2	0.7177734375
2963.060546875	0.00833333333333333	0	30	6.94583333333333	1	0.6962890625
2966.27734375	0.00833333333333333	0	30	6.94583333333333	2	0.6083984375
2969.494140625	0.00833333333333333	0	-30	-2.40833333333333	1	0.5595703125
2972.6513671875	0.00833333333333333	0	-30	-2.40833333333333	1	0.6904296875
2975.5185546875	0.00833333333333333	0	30	6.94583333333333	2	0.783203125
2978.65234375	0.00833333333333333	0	30	6.94583333333333	1	0.609375
2981.6357421875	0.00833333333333333	0	-30	-2.40833333333333	1	0.7861328125
2984.5859375	0.00833333333333333	0	-30	-2.40833333333333	1	0.5478515625
2987.626953125	0.00833333333333333	0	30	6.94583333333333	1	0.626953125
2990.71875	0.00833333333333333	0	-30	-2.28333333333333	1	0.5595703125
2993.4599609375	0.00833333333333333	0	-30	-2.28333333333333	1	0.6982421875
2996.376953125	0.00833333333333333	0	-30	-2.28333333333333	1	0.61328125
2999.5849609375	0.00833333333333333	0	30	6.94583333333333	1	0.60546875
3002.568359375	0.00833333333333333	0	-30	-2.28333333333333	1	0.677734375
3005.7177734375	0.00833333333333333	0	-30	-2.28333333333333	1	0.4970703125
3008.6181640625	0.00833333333333333	0	-30	-2.15833333333333	2	0.63671875
3011.9013671875	0.00833333333333333	0	30	6.94583333333333	1	0.6015625
3014.5595703125	0.00833333333333333	0	-30	-2.15833333333333	1	0.54296875
3274.330078125	0.00833333333333333	0	-30	-2.15833333333333	2	0.93359375
3277.880859375	0.00833333333333333	0	30	6.94583333333333	1	0.9267578125
3280.998046875	0.00833333333333333	0	-30	-2.15833333333333	2	0.78515625
3283.962890625	0.00833333333333333	0	30	7.07083333333333	2	0.796875
3287.330078125	0.00833333333333333	0	30	7.07083333333333	1	0.2294921875
3289.98046875	0.00833333333333333	0	-30	-2.15833333333333	2	1.2119140625
3293.689453125	0.00833333333333333	0	-30	-2.15833333333333	1	1.494140625
3297.61328125	0.00833333333333333	0	-30	-2.15833333333333	2	0.9072265625
3300.9296875	0.00833333333333333	0	-30	-2.15833333333333	1	1.8388671875
3305.4384765625	0.00833333333333333	0	30	7.07083333333333	1	2.08203125
3309.6640625	0.00833333333333333	0	-30	-2.15833333333333	1	1.8564453125
3314.130859375	0.00833333333333333	0	30	7.07083333333333	2	1.0615234375
3317.705078125	0.00833333333333333	0	30	7.07083333333333	1	1.7841796875
3321.87109375	0.00833333333333333	0	-30	-2.15833333333333	2	0.73828125
3325.021484375	0.00833333333333333	0	30	7.07083333333333	2	1.1630859375
3328.6796875	0.00833333333333333	0	-30	-2.15833333333333	2	0.8974609375
3331.86328125	0.00833333333333333	0	30	7.07083333333333	1	1.2177734375
3335.587890625	0.00833333333333333	0	-30	-2.15833333333333	2	0.7734375
3338.61328125	0.00833333333333333	0	-30	-2.15833333333333	2	1.236328125
3342.021484375	0.00833333333333333	0	30	7.07083333333333	1	0.67578125
3345.12109375	0.00833333333333333	0	30	7.07083333333333	1	0.7607421875
3348.2548828125	0.00833333333333333	0	-30	-2.15833333333333	2	0.6748046875
3351.462890625	0.00833333333333333	0	30	7.07083333333333	2	0.5869140625
3354.1962890625	0.00833333333333333	0	-30	-2.28333333333333	1	1.7578125
3358.337890625	0.00833333333333333	0	-30	-2.28333333333333	1	0.6240234375
3361.4296875	0.00833333333333333	0	30	7.07083333333333	2	0.65234375
3364.6044921875	0.00833333333333333	0	-30	-2.28333333333333	1	0.517578125
3367.6796875	0.00833333333333333	0	30	7.07083333333333	2	0.69921875
3370.9951171875	0.00833333333333333	0	-30	-2.28333333333333	1	0.6396484375
3373.962890625	0.00833333333333333	0	30	7.07083333333333	2	0.5361328125
3376.728515625	0.00833333333333333	0	30	7.07083333333333	2	0.73046875
3379.7705078125	0.00833333333333333	0	30	6.94583333333333	2	0.65625
3382.6708984375	0.00833333333333333	0	30	6.94583333333333	1	0.7001953125
3385.6875	0.00833333333333333	0	30	6.94583333333333	1	0.779296875
3388.7626953125	0.00833333333333333	0	-30	-2.28333333333333	1	0.8642578125
3391.970703125	0.00833333333333333	0	30	6.94583333333333	1	0.751953125
3395.1708984375	0.00833333333333333	0	30	6.94583333333333	1	1.408203125
3399.1708984375	0.00833333333333333	0	30	6.94583333333333	2	0.6884765625
3402.2373046875	0.00833333333333333	0	-30	-2.15833333333333	1	0.59765625
3405.037109375	0.00833333333333333	0	30	6.94583333333333	1	0.7099609375
3408.162109375	0.00833333333333333	0	30	6.94583333333333	2	0.74609375
3411.13671875	0.00833333333333333	0	-30	-2.15833333333333	1	0.70703125
3414.2783203125	0.00833333333333333	0	30	6.94583333333333	1	0.75
3417.1953125	0.00833333333333333	0	30	6.94583333333333	1	0.80078125
3420.5283203125	0.00833333333333333	0	-30	-2.15833333333333	1	0.66015625
3423.703125	0.00833333333333333	0	30	6.94583333333333	1	0.63671875
3426.736328125	0.00833333333333333	0	-30	-2.15833333333333	1	0.587890625
3429.4951171875	0.00833333333333333	0	30	6.94583333333333	1	0.5087890625
3432.1533203125	0.00833333333333333	0	-30	-2.15833333333333	2	0.6748046875
3435.2783203125	0.00833333333333333	0	30	6.94583333333333	2	0.4619140625
3438.228515625	0.00833333333333333	0	-30	-2.15833333333333	2	0.48046875
3441.111328125	0.00833333333333333	0	-30	-2.15833333333333	2	0.5654296875
3444.162109375	0.00833333333333333	0	30	6.94583333333333	2	0.6025390625
3447.0029296875	0.00833333333333333	0	30	6.94583333333333	2	0.673828125
3450.1533203125	0.00833333333333333	0	30	6.94583333333333	2	0.587890625
3453.2529296875	0.00833333333333333	0	30	6.94583333333333	2	0.65625
3456.3701171875	0.00833333333333333	0	30	6.82083333333333	2	0.546875
3459.5029296875	0.00833333333333333	0	30	6.82083333333333	2	0.4462890625
3462.5029296875	0.00833333333333333	0	30	6.82083333333333	2	0.4619140625
3465.1611328125	0.00833333333333333	0	-30	-2.15833333333333	2	0.63671875
3468.302734375	0.00833333333333333	0	-30	-2.15833333333333	1	0.53515625
3470.9775390625	0.00833333333333333	0	-30	-2.15833333333333	2	0.755859375
3473.9609375	0.00833333333333333	0	-30	-2.15833333333333	1	0.4052734375
3476.5693359375	0.00833333333333333	0	-30	-2.15833333333333	1	0.6201171875
3479.3779296875	0.00833333333333333	0	30	6.82083333333333	1	0.66015625
3482.361328125	0.00833333333333333	0	-30	-2.15833333333333	1	0.533203125
3485.2529296875	0.00833333333333333	0	30	6.82083333333333	1	0.529296875
3488.1015625	0.00833333333333333	0	-30	-2.15833333333333	1	0.537109375
3491.14453125	0.00833333333333333	0	30	6.82083333333333	1	0.57421875
3494.2275390625	0.00833333333333333	0	30	6.82083333333333	2	0.8349609375
3497.2607421875	0.00833333333333333	0	-30	-2.15833333333333	1	0.498046875
3500.27734375	0.00833333333333333	0	-30	-2.03333333333333	1	0.7451171875
3503.6103515625	0.00833333333333333	0	30	6.82083333333333	1	0.5400390625
3506.552734375	0.00833333333333333	0	30	6.82083333333333	1	0.57421875
3509.302734375	0.00833333333333333	0	-30	-2.03333333333333	1	1.7763671875
3513.6435546875	0.00833333333333333	0	-30	-2.03333333333333	1	0.4912109375
3516.494140625	0.00833333333333333	0	30	6.82083333333333	1	0.625
3519.6943359375	0.00833333333333333	0	-30	-2.03333333333333	1	0.5048828125
3522.52734375	0.00833333333333333	0	30	6.82083333333333	1	0.7275390625
3525.484375	0.00833333333333333	0	-30	-2.03333333333333	1	0.4833984375
3683.4912109375	0.00833333333333333	0	-30	-1.90833333333333	2	0.609375
3686.3330078125	0.00833333333333333	0	-30	-1.90833333333333	2	0.51171875
3689.0830078125	0.00833333333333333	0	30	6.82083333333333	1	0.5537109375
3692.20703125	0.00833333333333333	0	-30	-1.90833333333333	2	0.693359375
3695.0576171875	0.00833333333333333	0	30	6.94583333333333	2	0.611328125
3697.9326171875	0.00833333333333333	0	-30	-1.90833333333333	1	0.7607421875
3701.1494140625	0.00833333333333333	0	-30	-1.90833333333333	2	0.9677734375
3704.4912109375	0.00833333333333333	0	30	6.94583333333333	2	1.177734375
3708.0654296875	0.00833333333333333	0	30	6.94583333333333	1	0.7158203125
3710.9072265625	0.00833333333333333	0	-30	-1.90833333333333	1	0.75390625
3713.982421875	0.00833333333333333	0	-30	-1.90833333333333	2	0.5751953125
3716.82421875	0.00833333333333333	0	30	6.94583333333333	1	0.5576171875
3719.6064453125	0.00833333333333333	0	30	6.94583333333333	1	0.5751953125
3722.7744140625	0.00833333333333333	0	-30	-1.90833333333333	1	0.6630859375
3725.791015625	0.00833333333333333	0	-30	-1.90833333333333	1	0.55859375
3728.982421875	0.00833333333333333	0	30	6.94583333333333	1	0.6474609375
3732.240234375	0.00833333333333333	0	30	6.94583333333333	1	0.4375
3735.0400390625	0.00833333333333333	0	30	7.07083333333333	1	0.6064453125
3737.748046875	0.00833333333333333	0	-30	-1.90833333333333	1	0.634765625
3740.83203125	0.00833333333333333	0	-30	-1.90833333333333	1	0.9580078125
3744.0400390625	0.00833333333333333	0	30	7.07083333333333	1	1.3828125
3747.8740234375	0.00833333333333333	0	30	7.07083333333333	1	0.62109375
3750.9404296875	0.00833333333333333	0	-30	-1.90833333333333	2	0.5146484375
3753.58203125	0.00833333333333333	0	30	7.07083333333333	2	0.6171875
3756.3154296875	0.00833333333333333	0	30	7.07083333333333	1	0.603515625
3759.130859375	0.00833333333333333	0	30	7.07083333333333	1	0.541015625
3761.8232421875	0.00833333333333333	0	30	7.07083333333333	1	0.576171875
3764.806640625	0.00833333333333333	0	30	7.07083333333333	1	0.6083984375
3767.8896484375	0.00833333333333333	0	-30	-1.90833333333333	1	0.57421875
3770.71484375	0.00833333333333333	0	-30	-1.90833333333333	1	0.9169921875
3774.0068359375	0.00833333333333333	0	30	7.07083333333333	1	0.5126953125
3776.6318359375	0.00833333333333333	0	30	7.19583333333333	1	0.5595703125
3779.3818359375	0.00833333333333333	0	-30	-1.90833333333333	1	0.513671875
3782.2802734375	0.00833333333333333	0	30	7.19583333333333	1	0.583984375
3785.123046875	0.00833333333333333	0	-30	-1.90833333333333	1	0.78125
3788.4150390625	0.00833333333333333	0	-30	-1.90833333333333	1	0.681640625
3791.314453125	0.00833333333333333	0	-30	-1.78333333333333	2	0.5576171875
3794.34765625	0.00833333333333333	0	-30	-1.78333333333333	1	0.541015625
3797.0888671875	0.00833333333333333	0	-30	-1.78333333333333	1	0.8720703125
3800.3642578125	0.00833333333333333	0	30	7.19583333333333	2	0.8203125
3803.564453125	0.00833333333333333	0	-30	-1.78333333333333	1	0.5244140625
3806.33984375	0.00833333333333333	0	30	7.19583333333333	1	0.5888671875
3809.1474609375	0.00833333333333333	0	-30	-1.78333333333333	1	0.61328125
3812.1640625	0.00833333333333333	0	-30	-1.78333333333333	1	0.5810546875
3815.1806640625	0.00833333333333333	0	30	7.19583333333333	1	0.84375
3818.380859375	0.00833333333333333	0	-30	-1.65833333333333	2	0.67578125
3821.6728515625	0.00833333333333333	0	30	7.19583333333333	2	1.1767578125
3824.98046875	0.00833333333333333	0	-30	-1.65833333333333	2	0.556640625
3827.7470703125	0.00833333333333333	0	30	7.19583333333333	2	0.5498046875
3830.697265625	0.00833333333333333	0	-30	-1.65833333333333	1	0.591796875
3833.6552734375	0.00833333333333333	0	-30	-1.65833333333333	2	0.5537109375
3836.72265625	0.00833333333333333	0	-30	-1.65833333333333	2	0.53515625
3839.5556640625	0.00833333333333333	0	-30	-1.65833333333333	1	0.4541015625
3842.197265625	0.00833333333333333	0	-30	-1.65833333333333	1	0.5166015625
3845.0888671875	0.00833333333333333	0	-30	-1.65833333333333	1	0.625
3847.888671875	0.00833333333333333	0	30	7.19583333333333	1	0.4814453125
3850.8056640625	0.00833333333333333	0	-30	-1.65833333333333	1	0.4365234375
3853.330078125	0.00833333333333333	0	30	7.19583333333333	1	0.50390625
3856.0625	0.00833333333333333	0	30	7.19583333333333	1	0.5556640625
3858.8720703125	0.00833333333333333	0	-30	-1.65833333333333	1	0.5380859375
3861.638671875	0.00833333333333333	0	30	7.19583333333333	2	0.8916015625
3864.73046875	0.00833333333333333	0	30	7.19583333333333	2	0.51953125
3867.5791015625	0.00833333333333333	0	30	7.19583333333333	2	0.607421875
3870.7802734375	0.00833333333333333	0	-30	-1.53333333333333	2	0.654296875
3873.955078125	0.00833333333333333	0	30	7.19583333333333	1	0.6884765625
3877.0634765625	0.00833333333333333	0	-30	-1.53333333333333	1	0.626953125
3880.021484375	0.00833333333333333	0	-30	-1.53333333333333	1	0.78125
3882.8876953125	0.00833333333333333	0	30	7.19583333333333	2	0.8193359375
3886.287109375	0.00833333333333333	0	-30	-1.53333333333333	2	0.6357421875
3889.2041015625	0.00833333333333333	0	30	7.19583333333333	1	0.439453125
3892.0712890625	0.00833333333333333	0	-30	-1.53333333333333	2	0.5478515625
3894.970703125	0.00833333333333333	0	-30	-1.53333333333333	2	0.6328125
3897.98828125	0.00833333333333333	0	30	7.19583333333333	2	0.55078125
3900.7119140625	0.00833333333333333	0	30	7.19583333333333	1	0.5234375
3903.7548828125	0.00833333333333333	0	30	7.19583333333333	2	0.5048828125
3906.412109375	0.00833333333333333	0	30	7.19583333333333	2	0.583984375
3909.1708984375	0.00833333333333333	0	30	7.19583333333333	2	0.400390625
3912.0703125	0.00833333333333333	0	-30	-1.53333333333333	2	0.8134765625
3915.162109375	0.00833333333333333	0	-30	-1.53333333333333	1	0.578125
3917.9794921875	0.00833333333333333	0	-30	-1.53333333333333	1	0.6328125
3979.4453125	0.00833333333333333	0	30	7.19583333333333	2	0.47265625
3982.3623046875	0.00833333333333333	0	-30	-1.53333333333333	1	0.484375
3985.1865234375	0.00833333333333333	0	30	7.19583333333333	1	0.484375
3987.9365234375	0.00833333333333333	0	-30	-1.53333333333333	2	0.5341796875
3990.63671875	0.00833333333333333	0	-30	-1.53333333333333	1	0.3935546875
3993.552734375	0.00833333333333333	0	30	7.19583333333333	2	0.685546875
3996.486328125	0.00833333333333333	0	30	7.19583333333333	1	0.6640625
3999.3359375	0.00833333333333333	0	30	7.19583333333333	2	0.7109375
4002.169921875	0.00833333333333333	0	30	7.19583333333333	2	0.5966796875
4004.89453125	0.00833333333333333	0	-30	-1.53333333333333	1	0.5126953125
4007.53515625	0.00833333333333333	0	30	7.19583333333333	2	0.51171875
4010.486328125	0.00833333333333333	0	-30	-1.53333333333333	1	0.47265625
4013.2353515625	0.00833333333333333	0	-30	-1.53333333333333	1	0.6513671875
4016.169921875	0.00833333333333333	0	-30	-1.53333333333333	2	0.4619140625
4018.8525390625	0.00833333333333333	0	30	7.19583333333333	1	0.5546875
4021.919921875	0.00833333333333333	0	-30	-1.53333333333333	1	0.52734375
4024.943359375	0.00833333333333333	0	30	7.19583333333333	1	0.4560546875
4027.869140625	0.00833333333333333	0	30	7.19583333333333	2	0.5947265625
4030.7529296875	0.00833333333333333	0	30	7.19583333333333	2	0.6630859375
4033.6943359375	0.00833333333333333	0	30	7.19583333333333	1	0.6171875
4036.59375	0.00833333333333333	0	-30	-1.53333333333333	1	0.494140625
4039.369140625	0.00833333333333333	0	-30	-1.53333333333333	1	0.646484375
4042.361328125	0.00833333333333333	0	30	7.19583333333333	1	0.4150390625
4045.2431640625	0.00833333333333333	0	-30	-1.53333333333333	1	0.533203125
4047.9521484375	0.00833333333333333	0	-30	-1.53333333333333	1	0.48828125
4050.5693359375	0.00833333333333333	0	30	7.19583333333333	1	0.623046875
4053.3935546875	0.00833333333333333	0	-30	-1.40833333333333	1	0.5185546875
4056.09375	0.00833333333333333	0	30	7.19583333333333	2	0.634765625
4058.9931640625	0.00833333333333333	0	-30	-1.40833333333333	1	0.5830078125
4061.84375	0.00833333333333333	0	30	7.19583333333333	1	0.6044921875
4064.810546875	0.00833333333333333	0	30	7.19583333333333	1	0.494140625
4067.501953125	0.00833333333333333	0	30	7.19583333333333	1	0.5234375
4070.3017578125	0.00833333333333333	0	30	7.19583333333333	2	0.515625
4073.3349609375	0.00833333333333333	0	30	7.19583333333333	2	0.42578125
4076.1689453125	0.00833333333333333	0	-30	-1.40833333333333	2	0.48828125
4079.1015625	0.00833333333333333	0	30	7.19583333333333	1	0.7158203125
4081.9677734375	0.00833333333333333	0	-30	-1.40833333333333	1	0.4814453125
4084.9267578125	0.00833333333333333	0	-30	-1.40833333333333	1	0.5146484375
4087.5185546875	0.00833333333333333	0	-30	-1.40833333333333	1	0.4990234375
4090.310546875	0.00833333333333333	0	30	7.19583333333333	2	0.626953125
4093.4853515625	0.00833333333333333	0	30	7.19583333333333	2	0.7880859375
4096.6591796875	0.00833333333333333	0	-30	-1.40833333333333	1	0.486328125
4099.3671875	0.00833333333333333	0	30	7.19583333333333	2	0.451171875
4102.0595703125	0.00833333333333333	0	30	7.19583333333333	2	0.5107421875
4105.0673828125	0.00833333333333333	0	30	7.19583333333333	2	0.5908203125
4108.0341796875	0.00833333333333333	0	30	7.07083333333333	1	0.583984375
4110.93359375	0.00833333333333333	0	30	7.07083333333333	2	0.564453125
4113.826171875	0.00833333333333333	0	30	7.07083333333333	1	0.7119140625
4117.05078125	0.00833333333333333	0	30	7.07083333333333	2	0.6005859375
4119.79296875	0.00833333333333333	0	30	7.07083333333333	1	0.4658203125
4122.826171875	0.00833333333333333	0	30	7.07083333333333	2	0.47265625
4125.7587890625	0.00833333333333333	0	30	7.07083333333333	2	0.5322265625
4128.3759765625	0.00833333333333333	0	30	7.07083333333333	2	0.69921875
4131.54296875	0.00833333333333333	0	-30	-1.40833333333333	2	0.5322265625
4134.2666015625	0.00833333333333333	0	30	7.07083333333333	1	0.744140625
4137.1513671875	0.00833333333333333	0	30	7.07083333333333	2	0.5
4139.8759765625	0.00833333333333333	0	30	7.07083333333333	2	0.49609375
4142.576171875	0.00833333333333333	0	30	7.07083333333333	2	0.4912109375
4145.201171875	0.00833333333333333	0	-30	-1.40833333333333	2	53.68359375
4201.2412109375	0.00833333333333333	0	-30	-1.40833333333333	2	0.916015625
4204.3583984375	0.00833333333333333	0	30	7.07083333333333	2	0.7587890625
4207.7001953125	0.00833333333333333	0	-30	-1.40833333333333	2	0.78515625
4211.0087890625	0.00833333333333333	0	30	7.07083333333333	2	0.869140625
4214.275390625	0.00833333333333333	0	30	6.94583333333333	2	0.8828125
4217.4248046875	0.00833333333333333	0	30	6.94583333333333	2	1.2529296875
4220.93359375	0.00833333333333333	0	-30	-1.40833333333333	1	0.904296875
4224.1416015625	0.00833333333333333	0	30	6.94583333333333	1	0.6083984375
4226.9501953125	0.00833333333333333	0	30	6.94583333333333	2	0.759765625
4230.0078125	0.00833333333333333	0	-30	-1.40833333333333	2	0.7265625
4232.923828125	0.00833333333333333	0	30	6.94583333333333	2	0.9541015625
4236.3232421875	0.00833333333333333	0	-30	-1.40833333333333	2	0.70703125
4239.19140625	0.00833333333333333	0	-30	-1.40833333333333	2	0.7197265625
4242.25	0.00833333333333333	0	-30	-1.40833333333333	1	0.884765625
4245.599609375	0.00833333333333333	0	-30	-1.40833333333333	1	0.5673828125
4248.416015625	0.00833333333333333	0	-30	-1.40833333333333	1	0.6865234375
4251.32421875	0.00833333333333333	0	-30	-1.40833333333333	2	0.8583984375
4254.6494140625	0.00833333333333333	0	30	6.94583333333333	2	0.7255859375
4257.7568359375	0.00833333333333333	0	30	6.94583333333333	1	0.810546875
4261.0576171875	0.00833333333333333	0	30	6.94583333333333	2	0.58984375
4263.9990234375	0.00833333333333333	0	-30	-1.40833333333333	1	0.49609375
4317.1240234375	0.00833333333333333	0	30	6.94583333333333	2	0.869140625
4320.423828125	0.00833333333333333	0	30	6.94583333333333	2	0.6572265625
4323.5068359375	0.00833333333333333	0	-30	-1.40833333333333	2	0.5419921875
4326.4306640625	0.00833333333333333	0	30	6.94583333333333	1	1.2509765625
4330.1318359375	0.00833333333333333	0	-30	-1.40833333333333	2	1.3173828125
4333.7900390625	0.00833333333333333	0	30	6.94583333333333	2	0.7958984375
4336.8486328125	0.00833333333333333	0	-30	-1.40833333333333	1	0.8095703125
4340.0478515625	0.00833333333333333	0	30	6.94583333333333	2	0.7939453125
4343.240234375	0.00833333333333333	0	30	6.94583333333333	2	0.5859375
4346.197265625	0.00833333333333333	0	-30	-1.40833333333333	2	0.908203125
4349.431640625	0.00833333333333333	0	-30	-1.40833333333333	2	0.578125
4352.2646484375	0.00833333333333333	0	-30	-1.40833333333333	2	0.5859375
4355.3056640625	0.00833333333333333	0	-30	-1.40833333333333	1	0.6484375
4358.3388671875	0.00833333333333333	0	30	6.94583333333333	2	0.65625
4361.7216796875	0.00833333333333333	0	30	6.94583333333333	1	0.728515625
4364.59765625	0.00833333333333333	0	-30	-1.40833333333333	2	1.044921875
4368.123046875	0.00833333333333333	0	30	6.94583333333333	2	0.927734375
4371.28125	0.00833333333333333	0	-30	-1.40833333333333	1	0.8095703125
4374.6640625	0.00833333333333333	0	-30	-1.40833333333333	2	0.53125
4377.439453125	0.00833333333333333	0	-30	-1.40833333333333	2	0.6591796875
4380.630859375	0.00833333333333333	0	-30	-1.40833333333333	2	0.4765625
4383.4130859375	0.00833333333333333	0	30	6.94583333333333	2	0.501953125
4386.22265625	0.00833333333333333	0	30	6.94583333333333	2	0.4521484375
4388.939453125	0.00833333333333333	0	-30	-1.40833333333333	2	0.591796875
4392.1640625	0.00833333333333333	0	30	6.94583333333333	2	0.607421875
4395.09765625	0.00833333333333333	0	-30	-1.40833333333333	2	0.578125
4398.197265625	0.00833333333333333	0	30	6.94583333333333	2	0.5185546875
4401.3310546875	0.00833333333333333	0	-30	-1.53333333333333	2	0.5927734375
4404.6142578125	0.00833333333333333	0	-30	-1.53333333333333	1	1.2939453125
4408.080078125	0.00833333333333333	0	30	6.82083333333333	2	0.755859375
4411.0556640625	0.00833333333333333	0	-30	-1.53333333333333	2	0.556640625
4414.2138671875	0.00833333333333333	0	-30	-1.53333333333333	2	0.6220703125
4417.4130859375	0.00833333333333333	0	-30	-1.53333333333333	1	0.6953125
4420.6796875	0.00833333333333333	0	30	6.82083333333333	2	0.556640625
4423.646484375	0.00833333333333333	0	-30	-1.53333333333333	1	0.7978515625
4427.0634765625	0.00833333333333333	0	-30	-1.53333333333333	1	0.541015625
4429.73046875	0.00833333333333333	0	30	6.82083333333333	2	0.41015625
4432.3056640625	0.00833333333333333	0	30	6.82083333333333	2	0.5791015625
4435.1044921875	0.00833333333333333	0	-30	-1.53333333333333	2	0.9560546875
4438.587890625	0.00833333333333333	0	-30	-1.53333333333333	1	1.0009765625
4441.7958984375	0.00833333333333333	0	30	6.82083333333333	2	1.177734375
4445.62109375	0.00833333333333333	0	-30	-1.53333333333333	1	0.9599609375
4449.2626953125	0.00833333333333333	0	30	6.69583333333333	1	0.8466796875
4452.7294921875	0.00833333333333333	0	-30	-1.53333333333333	1	0.7880859375
4455.978515625	0.00833333333333333	0	-30	-1.53333333333333	1	0.71484375
4458.9794921875	0.00833333333333333	0	-30	-1.53333333333333	1	2.673828125
4463.99609375	0.00833333333333333	0	-30	-1.40833333333333	1	0.521484375
4466.9716796875	0.00833333333333333	0	30	6.69583333333333	1	0.72265625
4469.9794921875	0.00833333333333333	0	30	6.69583333333333	1	0.5947265625
4472.712890625	0.00833333333333333	0	-30	-1.40833333333333	1	0.7412109375
4475.8291015625	0.00833333333333333	0	-30	-1.40833333333333	1	0.712890625
4478.8876953125	0.00833333333333333	0	-30	-1.40833333333333	1	0.57421875
4481.5458984375	0.00833333333333333	0	30	6.69583333333333	2	0.7802734375
4484.4873046875	0.00833333333333333	0	-30	-1.40833333333333	1	0.5439453125
4487.4287109375	0.00833333333333333	0	-30	-1.28333333333333	1	0.59375
4490.087890625	0.00833333333333333	0	-30	-1.28333333333333	1	0.55078125
4493.0205078125	0.00833333333333333	0	30	6.69583333333333	2	0.474609375
4495.654296875	0.00833333333333333	0	-30	-1.28333333333333	2	0.6005859375
4498.462890625	0.00833333333333333	0	-30	-1.28333333333333	1	0.49609375
4501.4794921875	0.00833333333333333	0	-30	-1.28333333333333	1	0.51171875
4504.12890625	0.00833333333333333	0	30	6.69583333333333	2	0.7099609375
4507.3544921875	0.00833333333333333	0	-30	-1.28333333333333	1	0.6767578125
4510.537109375	0.00833333333333333	0	-30	-1.28333333333333	1	0.509765625
4513.1455078125	0.00833333333333333	0	30	6.69583333333333	1	0.61328125
4516.1953125	0.00833333333333333	0	-30	-1.28333333333333	1	0.564453125
4519.037109375	0.00833333333333333	0	30	6.69583333333333	2	0.73046875
4521.912109375	0.00833333333333333	0	-30	-1.15833333333333	1	0.607421875
4525.0869140625	0.00833333333333333	0	-30	-1.15833333333333	1	0.568359375
4528.1533203125	0.00833333333333333	0	-30	-1.15833333333333	1	0.55078125
4530.8623046875	0.00833333333333333	0	30	6.69583333333333	1	0.5537109375
4533.88671875	0.00833333333333333	0	30	6.69583333333333	1	0.544921875
4536.8623046875	0.00833333333333333	0	-30	-1.15833333333333	2	0.3779296875
4539.8701171875	0.00833333333333333	0	-30	-1.15833333333333	1	0.5537109375
4542.919921875	0.00833333333333333	0	-30	-1.15833333333333	1	0.4560546875
4545.6533203125	0.00833333333333333	0	30	6.69583333333333	2	0.5712890625
4548.578125	0.00833333333333333	0	-30	-1.15833333333333	1	0.7421875
4551.9697265625	0.00833333333333333	0	30	6.69583333333333	1	0.7431640625
4555.14453125	0.00833333333333333	0	-30	-1.15833333333333	1	0.728515625
4558.0947265625	0.00833333333333333	0	-30	-1.15833333333333	1	0.5703125
4560.8701171875	0.00833333333333333	0	30	6.69583333333333	2	0.72265625
4619.2021484375	0.00833333333333333	0	30	6.69583333333333	2	0.9365234375
4622.3603515625	0.00833333333333333	0	30	6.69583333333333	1	0.6904296875
4625.59375	0.00833333333333333	0	30	6.69583333333333	2	0.6572265625
4628.552734375	0.00833333333333333	0	30	6.69583333333333	1	0.7626953125
4631.7109375	0.00833333333333333	0	30	6.69583333333333	1	0.5166015625
4634.494140625	0.00833333333333333	0	-30	-1.03333333333333	2	0.94921875
4637.6845703125	0.00833333333333333	0	30	6.69583333333333	1	0.6943359375
4640.7275390625	0.00833333333333333	0	30	6.69583333333333	2	0.65234375
4643.7939453125	0.00833333333333333	0	30	6.69583333333333	1	0.681640625
4646.66796875	0.00833333333333333	0	-30	-1.03333333333333	1	0.7119140625
4649.7353515625	0.00833333333333333	0	30	6.69583333333333	1	0.5966796875
4652.7431640625	0.00833333333333333	0	-30	-1.03333333333333	2	0.564453125
4655.8095703125	0.00833333333333333	0	30	6.69583333333333	2	0.482421875
4658.7431640625	0.00833333333333333	0	-30	-1.03333333333333	2	0.7724609375
4662.009765625	0.00833333333333333	0	30	6.69583333333333	2	0.546875
4664.7021484375	0.00833333333333333	0	-30	-1.03333333333333	1	0.5498046875
4667.443359375	0.00833333333333333	0	30	6.69583333333333	1	0.6005859375
4670.3271484375	0.00833333333333333	0	-30	-1.03333333333333	1	0.4375
4673.2099609375	0.00833333333333333	0	30	6.69583333333333	1	0.474609375
4676.201171875	0.00833333333333333	0	30	6.69583333333333	1	0.37890625
4678.67578125	0.00833333333333333	0	30	6.69583333333333	2	0.80859375
4681.6015625	0.00833333333333333	0	-30	-1.03333333333333	1	0.595703125
4684.79296875	0.00833333333333333	0	30	6.69583333333333	2	0.5078125
4687.7001953125	0.00833333333333333	0	30	6.69583333333333	1	0.9931640625
4691.1259765625	0.00833333333333333	0	30	6.69583333333333	2	0.470703125
4694.076171875	0.00833333333333333	0	30	6.69583333333333	2	0.80078125
4697.2177734375	0.00833333333333333	0	30	6.69583333333333	2	0.5078125
4700.375	0.00833333333333333	0	-30	-1.03333333333333	1	0.662109375
4703.5419921875	0.00833333333333333	0	-30	-1.03333333333333	1	0.583984375
4706.509765625	0.00833333333333333	0	30	6.69583333333333	2	0.4482421875
4709.2509765625	0.00833333333333333	0	-30	-0.908333333333332	1	0.8271484375
4712.458984375	0.00833333333333333	0	-30	-0.908333333333332	1	0.474609375
4715.0498046875	0.00833333333333333	0	-30	-0.908333333333332	2	0.484375
4718.0673828125	0.00833333333333333	0	30	6.69583333333333	2	0.5703125
4721.1845703125	0.00833333333333333	0	30	6.57083333333333	2	0.5498046875
4723.9091796875	0.00833333333333333	0	-30	-0.908333333333332	2	0.5927734375
4726.6171875	0.00833333333333333	0	-30	-0.908333333333332	2	0.7412109375
4729.80859375	0.00833333333333333	0	-30	-0.908333333333332	2	0.91796875
4732.826171875	0.00833333333333333	0	30	6.57083333333333	2	0.66796875
4735.7919921875	0.00833333333333333	0	-30	-0.908333333333332	2	0.6943359375
4738.7255859375	0.00833333333333333	0	30	6.57083333333333	2	0.59375
4741.5009765625	0.00833333333333333	0	-30	-1.03333333333333	2	0.7294921875
4744.7001953125	0.00833333333333333	0	-30	-1.03333333333333	1	0.8828125
4748.17578125	0.00833333333333333	0	30	6.57083333333333	2	0.51953125
4750.9833984375	0.00833333333333333	0	-30	-1.03333333333333	1	0.52734375
4753.9423828125	0.00833333333333333	0	-30	-1.03333333333333	1	0.46484375
4756.7841796875	0.00833333333333333	0	-30	-1.03333333333333	1	0.55078125
4759.533203125	0.00833333333333333	0	-30	-1.03333333333333	1	0.5625
4762.650390625	0.00833333333333333	0	30	6.57083333333333	2	0.62890625
4765.525390625	0.00833333333333333	0	-30	-0.908333333333332	2	0.6259765625
4768.7333984375	0.00833333333333333	0	30	6.44583333333333	1	0.6025390625
4771.732421875	0.00833333333333333	0	-30	-0.908333333333332	2	0.70703125
4775.0498046875	0.00833333333333333	0	-30	-0.908333333333332	1	0.6064453125
4777.783203125	0.00833333333333333	0	30	6.44583333333333	1	0.6484375
4780.6748046875	0.00833333333333333	0	-30	-0.908333333333332	2	0.4931640625
4783.4921875	0.00833333333333333	0	-30	-0.908333333333332	1	0.68359375
4786.474609375	0.00833333333333333	0	-30	-0.908333333333332	1	0.58203125
4789.375	0.00833333333333333	0	30	6.44583333333333	2	0.5927734375
4792.56640625	0.00833333333333333	0	-30	-0.908333333333332	1	0.7294921875
4795.599609375	0.00833333333333333	0	30	6.44583333333333	2	0.8486328125
4798.6748046875	0.00833333333333333	0	30	6.44583333333333	2	0.5419921875
4801.5908203125	0.00833333333333333	0	30	6.44583333333333	2	0.7060546875
4804.541015625	0.00833333333333333	0	30	6.44583333333333	1	0.587890625
4807.4658203125	0.00833333333333333	0	30	6.44583333333333	2	0.54296875
4810.4501953125	0.00833333333333333	0	30	6.44583333333333	2	0.951171875
4813.8408203125	0.00833333333333333	0	30	6.44583333333333	1	0.568359375
4816.6416015625	0.00833333333333333	0	30	6.44583333333333	2	0.6396484375
4819.6748046875	0.00833333333333333	0	-30	-0.908333333333332	2	0.806640625
4822.7158203125	0.00833333333333333	0	-30	-0.908333333333332	1	0.533203125
4825.640625	0.00833333333333333	0	30	6.44583333333333	2	0.529296875
4828.515625	0.00833333333333333	0	-30	-0.908333333333332	2	0.7578125
4831.724609375	0.00833333333333333	0	30	6.44583333333333	2	0.64453125
4834.6494140625	0.00833333333333333	0	30	6.44583333333333	2	0.5205078125
4837.7158203125	0.00833333333333333	0	-30	-0.908333333333332	2	0.55859375
4840.916015625	0.00833333333333333	0	30	6.44583333333333	2	0.685546875
4843.8564453125	0.00833333333333333	0	30	6.32083333333333	1	0.513671875
4846.5830078125	0.00833333333333333	0	-30	-0.908333333333332	1	0.619140625
4849.7236328125	0.00833333333333333	0	-30	-0.908333333333332	1	0.5341796875
4852.83203125	0.00833333333333333	0	-30	-0.908333333333332	2	0.6259765625
4856.0244140625	0.00833333333333333	0	30	6.32083333333333	2	0.6181640625
4951.22265625	0.00833333333333333	0	30	6.32083333333333	2	0.5107421875
4954.1474609375	0.00833333333333333	0	30	6.32083333333333	2	0.7939453125
4957.130859375	0.00833333333333333	0	30	6.32083333333333	2	0.6748046875
4960.322265625	0.00833333333333333	0	-30	-0.908333333333332	1	0.66796875
4963.263671875	0.00833333333333333	0	-30	-0.908333333333332	2	0.669921875
4966.4892578125	0.00833333333333333	0	30	6.32083333333333	2	0.548828125
4969.2216796875	0.00833333333333333	0	30	6.19583333333333	2	0.712890625
4972.4560546875	0.00833333333333333	0	-30	-0.908333333333332	2	0.6865234375
4975.5634765625	0.00833333333333333	0	-30	-0.908333333333332	2	1.7548828125
4979.580078125	0.00833333333333333	0	-30	-0.908333333333332	2	1.3701171875
4983.322265625	0.00833333333333333	0	-30	-0.908333333333332	2	1.7001953125
4987.3125	0.00833333333333333	0	-30	-1.03333333333333	2	0.8779296875
4990.4052734375	0.00833333333333333	0	30	6.19583333333333	2	1.2412109375
4994.0966796875	0.00833333333333333	0	-30	-1.03333333333333	2	0.91796875
4997.3798828125	0.00833333333333333	0	30	6.19583333333333	2	0.5234375
5000.1552734375	0.00833333333333333	0	-30	-1.03333333333333	2	0.6201171875
5002.955078125	0.00833333333333333	0	-30	-1.03333333333333	2	0.66015625
5006.171875	0.00833333333333333	0	30	6.19583333333333	2	1.01171875
5009.455078125	0.00833333333333333	0	30	6.19583333333333	2	0.9599609375
5012.763671875	0.00833333333333333	0	-30	-1.03333333333333	1	0.755859375
5015.962890625	0.00833333333333333	0	-30	-1.03333333333333	1	17.005859375
5035.330078125	0.00833333333333333	0	30	6.07083333333333	2	0.6142578125
5038.3125	0.00833333333333333	0	-30	-1.03333333333333	2	0.607421875
5041.4462890625	0.00833333333333333	0	30	6.07083333333333	2	0.673828125
5044.396484375	0.00833333333333333	0	-30	-1.03333333333333	2	0.5634765625
5047.11328125	0.00833333333333333	0	30	6.07083333333333	2	0.6162109375
5049.8876953125	0.00833333333333333	0	-30	-1.03333333333333	2	0.720703125
5053.1533203125	0.00833333333333333	0	30	6.07083333333333	2	0.5517578125
5056.220703125	0.00833333333333333	0	-30	-1.03333333333333	2	0.84375
5059.61328125	0.00833333333333333	0	30	6.07083333333333	2	0.580078125
5062.5546875	0.00833333333333333	0	-30	-1.03333333333333	2	0.5986328125
5065.337890625	0.00833333333333333	0	30	5.94583333333333	2	0.7509765625
5068.2626953125	0.00833333333333333	0	-30	-1.15833333333333	2	0.6103515625
5071.2529296875	0.00833333333333333	0	30	5.94583333333333	2	0.7001953125
5074.412109375	0.00833333333333333	0	-30	-1.15833333333333	2	0.6611328125
5077.5458984375	0.00833333333333333	0	-30	-1.15833333333333	2	0.7998046875
5080.87890625	0.00833333333333333	0	-30	-1.15833333333333	2	0.5390625
5083.927734375	0.00833333333333333	0	30	5.94583333333333	2	0.6103515625
5086.7451171875	0.00833333333333333	0	-30	-1.15833333333333	2	0.7685546875
5089.787109375	0.00833333333333333	0	30	5.94583333333333	2	0.8310546875
5093.0283203125	0.00833333333333333	0	30	5.94583333333333	2	0.5341796875
5095.8369140625	0.00833333333333333	0	30	5.82083333333333	1	0.6533203125
5099.01171875	0.00833333333333333	0	30	5.82083333333333	2	0.55078125
5101.75390625	0.00833333333333333	0	-30	-1.28333333333333	2	0.5927734375
5104.8955078125	0.00833333333333333	0	30	5.82083333333333	1	0.611328125
5107.87890625	0.00833333333333333	0	30	5.82083333333333	2	0.5244140625
5110.8037109375	0.00833333333333333	0	-30	-1.28333333333333	2	0.6630859375
5113.9033203125	0.00833333333333333	0	30	5.82083333333333	2	0.763671875
5116.77734375	0.00833333333333333	0	30	5.82083333333333	2	0.5537109375
5119.919921875	0.00833333333333333	0	30	5.82083333333333	2	0.5791015625
5122.7119140625	0.00833333333333333	0	-30	-1.28333333333333	2	0.634765625
5125.537109375	0.00833333333333333	0	30	5.82083333333333	2	0.76171875
5128.736328125	0.00833333333333333	0	-30	-1.28333333333333	2	0.5146484375
5131.5615234375	0.00833333333333333	0	30	5.69583333333333	2	0.609375
5134.736328125	0.00833333333333333	0	30	5.69583333333333	2	0.70703125
5138.0361328125	0.00833333333333333	0	30	5.69583333333333	2	0.5673828125
5141.1533203125	0.00833333333333333	0	30	5.69583333333333	2	0.6025390625
5144.14453125	0.00833333333333333	0	-30	-1.28333333333333	2	1.01953125
5147.5615234375	0.00833333333333333	0	30	5.69583333333333	2	0.666015625
5150.4697265625	0.00833333333333333	0	-30	-1.40833333333333	1	0.8779296875
5153.6279296875	0.00833333333333333	0	30	5.57083333333333	2	0.65625
5156.619140625	0.00833333333333333	0	30	5.57083333333333	2	0.9052734375
5159.751953125	0.00833333333333333	0	-30	-1.40833333333333	1	0.9248046875
5162.994140625	0.00833333333333333	0	-30	-1.40833333333333	1	0.482421875
5165.919921875	0.00833333333333333	0	-30	-1.40833333333333	1	0.6767578125
5169.0693359375	0.00833333333333333	0	30	5.57083333333333	2	0.455078125
5172.1279296875	0.00833333333333333	0	30	5.57083333333333	2	0.46875
5175.1279296875	0.00833333333333333	0	30	5.57083333333333	1	0.548828125
5177.9609375	0.00833333333333333	0	30	5.57083333333333	1	0.828125
5181.310546875	0.00833333333333333	0	30	5.57083333333333	1	1.0224609375
5184.52734375	0.00833333333333333	0	-30	-1.40833333333333	1	0.6533203125
5187.59375	0.00833333333333333	0	-30	-1.28333333333333	1	0.6513671875
5190.7353515625	0.00833333333333333	0	-30	-1.28333333333333	2	0.58984375
5219.7578125	0.00833333333333333	0	-30	-1.28333333333333	2	0.748046875
5222.94140625	0.00833333333333333	0	-30	-1.28333333333333	2	1.076171875
5226.6494140625	0.00833333333333333	0	-30	-1.28333333333333	2	1.0556640625
5244.416015625	0.00833333333333333	0	30	5.57083333333333	2	0.658203125
5247.5498046875	0.00833333333333333	0	30	5.57083333333333	2	0.796875
5250.666015625	0.00833333333333333	0	30	5.44583333333333	2	0.6484375
5253.482421875	0.00833333333333333	0	30	5.44583333333333	1	1
5256.732421875	0.00833333333333333	0	-30	-1.28333333333333	2	0.6298828125
5259.5078125	0.00833333333333333	0	-30	-1.40833333333333	2	0.7666015625
5262.7822265625	0.00833333333333333	0	-30	-1.40833333333333	2	0.5322265625
5265.673828125	0.00833333333333333	0	30	5.44583333333333	2	1.056640625
5269.041015625	0.00833333333333333	0	-30	-1.40833333333333	2	0.498046875
5271.890625	0.00833333333333333	0	30	5.44583333333333	1	0.5849609375
5274.8408203125	0.00833333333333333	0	-30	-1.40833333333333	1	0.578125
5278.005859375	0.00833333333333333	0	-30	-1.40833333333333	1	0.59765625
5280.7900390625	0.00833333333333333	0	30	5.44583333333333	1	0.6298828125
5283.7646484375	0.00833333333333333	0	30	5.44583333333333	1	0.615234375
5286.7158203125	0.00833333333333333	0	30	5.44583333333333	1	0.5673828125
5289.4150390625	0.00833333333333333	0	30	5.44583333333333	1	0.5888671875
5292.4150390625	0.00833333333333333	0	30	5.57083333333333	1	0.5166015625
5295.33203125	0.00833333333333333	0	-30	-1.40833333333333	2	0.5595703125
5298.056640625	0.00833333333333333	0	30	5.57083333333333	2	0.611328125
5300.8896484375	0.00833333333333333	0	-30	-1.40833333333333	2	0.5625
5303.8154296875	0.00833333333333333	0	-30	-1.40833333333333	2	0.5166015625
5306.59765625	0.00833333333333333	0	30	5.57083333333333	1	0.5830078125
5309.6650390625	0.00833333333333333	0	-30	-1.40833333333333	1	0.458984375
5312.498046875	0.00833333333333333	0	-30	-1.40833333333333	2	0.5703125
5315.3154296875	0.00833333333333333	0	30	5.57083333333333	1	0.7373046875
5318.5400390625	0.00833333333333333	0	-30	-1.40833333333333	2	0.552734375
5321.5390625	0.00833333333333333	0	-30	-1.40833333333333	2	0.4658203125
5324.431640625	0.00833333333333333	0	-30	-1.40833333333333	2	0.708984375
5327.6318359375	0.00833333333333333	0	30	5.57083333333333	2	0.701171875
5330.5146484375	0.00833333333333333	0	-30	-1.40833333333333	2	0.578125
5333.306640625	0.00833333333333333	0	30	5.57083333333333	2	0.634765625
5336.447265625	0.00833333333333333	0	30	5.57083333333333	1	0.6142578125
5339.5234375	0.00833333333333333	0	-30	-1.53333333333333	1	0.6982421875
5342.7890625	0.00833333333333333	0	-30	-1.53333333333333	1	0.6240234375
5345.9150390625	0.00833333333333333	0	-30	-1.53333333333333	2	0.72265625
5349.0390625	0.00833333333333333	0	30	5.57083333333333	1	0.7509765625
5351.9560546875	0.00833333333333333	0	30	5.57083333333333	1	0.77734375
5355.0478515625	0.00833333333333333	0	-30	-1.53333333333333	2	0.669921875
5358.1728515625	0.00833333333333333	0	30	5.57083333333333	1	0.865234375
5361.3134765625	0.00833333333333333	0	-30	-1.53333333333333	1	0.564453125
5364.189453125	0.00833333333333333	0	-30	-1.53333333333333	1	0.7607421875
5367.60546875	0.00833333333333333	0	-30	-1.53333333333333	2	1.3291015625
5371.4140625	0.00833333333333333	0	-30	-1.53333333333333	1	0.728515625
5374.4140625	0.00833333333333333	0	-30	-1.53333333333333	2	0.9765625
5377.822265625	0.00833333333333333	0	30	5.57083333333333	1	0.9765625
5381.1728515625	0.00833333333333333	0	-30	-1.53333333333333	2	0.7060546875
5384.22265625	0.00833333333333333	0	30	5.69583333333333	1	2.65625
5389.47265625	0.00833333333333333	0	30	5.69583333333333	2	0.6142578125
5392.5224609375	0.00833333333333333	0	-30	-1.53333333333333	2	0.6044921875
5395.4375	0.00833333333333333	0	30	5.69583333333333	2	0.673828125
5398.7138671875	0.00833333333333333	0	30	5.69583333333333	2	0.60546875
5401.6474609375	0.00833333333333333	0	-30	-1.53333333333333	2	0.5361328125
5404.7216796875	0.00833333333333333	0	30	5.69583333333333	1	0.5576171875
5407.796875	0.00833333333333333	0	-30	-1.53333333333333	1	0.72265625
5411.1630859375	0.00833333333333333	0	-30	-1.53333333333333	1	0.724609375
5414.330078125	0.00833333333333333	0	30	5.69583333333333	1	0.7177734375
5417.4970703125	0.00833333333333333	0	30	5.69583333333333	1	0.6552734375
5420.705078125	0.00833333333333333	0	30	5.69583333333333	1	0.470703125
5423.796875	0.00833333333333333	0	-30	-1.53333333333333	1	0.7236328125
5426.7548828125	0.00833333333333333	0	30	5.69583333333333	1	0.796875
5430.1552734375	0.00833333333333333	0	30	5.82083333333333	1	0.7490234375
5433.546875	0.00833333333333333	0	30	5.82083333333333	2	0.5732421875
5436.5126953125	0.00833333333333333	0	30	5.82083333333333	2	0.8876953125
5439.5712890625	0.00833333333333333	0	30	5.82083333333333	1	0.8369140625
5443.0126953125	0.00833333333333333	0	-30	-1.53333333333333	2	0.595703125
5445.794921875	0.00833333333333333	0	-30	-1.53333333333333	1	0.685546875
5448.8623046875	0.00833333333333333	0	-30	-1.53333333333333	2	0.5224609375
5451.5537109375	0.00833333333333333	0	30	5.82083333333333	1	0.607421875
5454.2548828125	0.00833333333333333	0	30	5.82083333333333	1	0.5625
5457.1875	0.00833333333333333	0	-30	-1.53333333333333	1	0.5732421875
5460.279296875	0.00833333333333333	0	-30	-1.53333333333333	1	0.578125
5463.1298828125	0.00833333333333333	0	30	5.82083333333333	1	0.927734375
5466.6376953125	0.00833333333333333	0	30	5.82083333333333	2	0.7080078125
5469.662109375	0.00833333333333333	0	-30	-1.53333333333333	1	0.53125
5472.470703125	0.00833333333333333	0	30	5.82083333333333	2	0.7392578125
5475.62890625	0.00833333333333333	0	-30	-1.53333333333333	2	0.5888671875
5478.794921875	0.00833333333333333	0	30	5.82083333333333	2	0.6630859375
5481.837890625	0.00833333333333333	0	30	5.82083333333333	1	0.8203125
5485.12890625	0.00833333333333333	0	-30	-1.53333333333333	2	0.6494140625
5488.103515625	0.00833333333333333	0	-30	-1.53333333333333	1	0.626953125
