onset	duration	titr	surround	centre	response	rt
12.814453125	0.00833333333333333	1	-30	15	2	2.1728515625
17.2880859375	0.00833333333333333	1	NaN	15	1	0.68359375
20.396484375	0.00833333333333333	1	30	-15	2	1.0146484375
23.705078125	0.00833333333333333	1	-30	14	1	0.71484375
26.5966796875	0.00833333333333333	1	30	-16	2	0.6796875
29.4033203125	0.00833333333333333	1	-30	15	1	0.5927734375
32.24609375	0.00833333333333333	1	30	15	1	1.669921875
36.0380859375	0.00833333333333333	1	NaN	16	2	25.119140625
63.5205078125	0.00833333333333333	1	NaN	15	1	0.740234375
66.779296875	0.00833333333333333	1	NaN	16	1	0.6416015625
69.76953125	0.00833333333333333	1	NaN	17	2	1.388671875
73.654296875	0.00833333333333333	1	30	16	1	1.046875
76.8291015625	0.00833333333333333	1	30	17	1	1.0166015625
80.01171875	0.00833333333333333	1	-30	-15	1	1.6259765625
83.8955078125	0.00833333333333333	1	NaN	-15	2	0.5498046875
86.75390625	0.00833333333333333	1	-30	-14	2	0.7080078125
90.0126953125	0.00833333333333333	1	NaN	16	1	0.865234375
92.9873046875	0.00833333333333333	1	-30	-15	2	6.69921875
101.9287109375	0.00833333333333333	1	-30	-16	1	1.8779296875
106.2705078125	0.00833333333333333	1	NaN	17	2	1.423828125
110.0205078125	0.00833333333333333	1	NaN	16	1	1.6904296875
113.8525390625	0.00833333333333333	1	-30	16	1	1.8818359375
117.8701171875	0.00833333333333333	1	NaN	-16	2	0.896484375
120.8271484375	0.00833333333333333	1	-30	-15	1	1.8837890625
124.9619140625	0.00833333333333333	1	-30	17	1	0.8369140625
127.9697265625	0.00833333333333333	1	30	-17	2	0.869140625
131.2197265625	0.00833333333333333	1	30	18	1	1.099609375
134.435546875	0.00833333333333333	1	30	-18	2	0.7080078125
137.26171875	0.00833333333333333	1	-30	18	1	0.6572265625
140.2353515625	0.00833333333333333	1	-30	-14	1	29.9892578125
172.451171875	0.00833333333333333	1	30	19	1	1.9736328125
176.5361328125	0.00833333333333333	1	-30	-13	2	1.416015625
180.3271484375	0.00833333333333333	1	-30	19	1	2.2255859375
184.5771484375	0.00833333333333333	1	30	-19	2	43.720703125
230.568359375	0.00833333333333333	1	NaN	-17	1	1.7939453125
234.7763671875	0.00833333333333333	1	30	-20	1	0.818359375
237.8935546875	0.00833333333333333	1	30	20	2	1.533203125
241.576171875	0.00833333333333333	1	NaN	17	2	2.7548828125
246.443359375	0.00833333333333333	1	30	-19	1	0.6396484375
249.583984375	0.00833333333333333	1	NaN	16	2	1.4267578125
253.2099609375	0.00833333333333333	1	30	-18	1	0.609375
256.068359375	0.00833333333333333	1	30	-17	1	0.6630859375
259.234375	0.00833333333333333	1	NaN	-16	1	0.568359375
262.0830078125	0.00833333333333333	1	30	19	2	1.8720703125
266.1513671875	0.00833333333333333	1	30	-16	1	0.6845703125
268.8583984375	0.00833333333333333	1	NaN	-15	1	0.625
271.958984375	0.00833333333333333	1	-30	20	2	0.7724609375
275.1171875	0.00833333333333333	1	NaN	15	2	0.7421875
278.3671875	0.00833333333333333	1	-30	19	2	0.716796875
281.150390625	0.00833333333333333	1	30	18	2	0.7734375
284.0595703125	0.00833333333333333	1	NaN	14	2	0.6328125
286.9580078125	0.00833333333333333	1	-30	18	2	0.7978515625
290.142578125	0.00833333333333333	1	-30	17	2	0.7978515625
293.2587890625	0.00833333333333333	1	30	-15	1	0.689453125
296.109375	0.00833333333333333	1	-30	16	2	0.6630859375
298.958984375	0.00833333333333333	1	-30	15	2	0.6611328125
302.0087890625	0.00833333333333333	1	30	-14	1	0.66796875
304.9501953125	0.00833333333333333	1	NaN	13	2	0.599609375
307.8505859375	0.00833333333333333	1	-30	-14	1	1.1943359375
311.1171875	0.00833333333333333	1	30	17	2	0.6240234375
323.9248046875	0.00833333333333333	1	NaN	12	2	0.8720703125
326.9580078125	0.00833333333333333	1	30	-13	1	0.5517578125
329.5751953125	0.00833333333333333	1	-30	-13	1	2.0869140625
333.9921875	0.00833333333333333	1	30	16	2	1.26171875
337.349609375	0.00833333333333333	1	-30	14	2	0.7197265625
340.3662109375	0.00833333333333333	1	-30	-12	1	1.0478515625
343.9169921875	0.00833333333333333	1	-30	-11	2	2.5048828125
348.7998046875	0.00833333333333333	1	-30	13	2	0.75
352.07421875	0.00833333333333333	1	30	-12	1	0.595703125
355.041015625	0.00833333333333333	1	NaN	-14	1	0.7255859375
358.3076171875	0.00833333333333333	1	NaN	-13	1	0.6025390625
361.091796875	0.00833333333333333	1	-30	-12	2	0.90625
364.4912109375	0.00833333333333333	1	NaN	11	2	0.755859375
367.7998046875	0.00833333333333333	1	-30	-13	1	1.9833984375
371.908203125	0.00833333333333333	1	NaN	10	2	0.619140625
374.599609375	0.00833333333333333	1	-30	12	2	0.6953125
377.4326171875	0.00833333333333333	1	-30	-12	1	1.166015625
380.7490234375	0.00833333333333333	1	NaN	9	2	0.6103515625
383.5078125	0.00833333333333333	1	30	-11	1	0.595703125
386.423828125	0.00833333333333333	1	30	15	2	1.111328125
389.666015625	0.00833333333333333	1	30	-10	1	0.5732421875
392.5244140625	0.00833333333333333	1	-30	11	2	0.443359375
395.44921875	0.00833333333333333	1	-30	-11	2	1.8466796875
399.4326171875	0.00833333333333333	1	30	14	2	0.7275390625
402.1826171875	0.00833333333333333	1	NaN	8	2	0.6728515625
405.298828125	0.00833333333333333	1	30	13	2	0.765625
408.291015625	0.00833333333333333	1	NaN	7	2	0.5888671875
410.9658203125	0.00833333333333333	1	NaN	-12	1	0.6826171875
414.048828125	0.00833333333333333	1	-30	10	2	0.591796875
416.8984375	0.00833333333333333	1	NaN	6	2	0.677734375
419.7568359375	0.00833333333333333	1	30	12	1	2.1796875
424.107421875	0.00833333333333333	1	-30	9	2	0.62890625
426.931640625	0.00833333333333333	1	-30	8	2	0.6689453125
430.0234375	0.00833333333333333	1	-30	7	2	0.5849609375
432.6904296875	0.00833333333333333	1	NaN	-11	1	0.5986328125
435.7568359375	0.00833333333333333	1	30	13	2	0.8525390625
438.8564453125	0.00833333333333333	1	-30	-12	2	1.2802734375
442.6484375	0.00833333333333333	1	-30	6	2	0.6484375
445.3818359375	0.00833333333333333	1	-30	-13	2	1.53125
449.115234375	0.00833333333333333	1	30	-9	1	0.6298828125
452.0986328125	0.00833333333333333	1	-30	-14	2	1.2626953125
455.564453125	0.00833333333333333	1	30	12	2	1.29296875
459.3896484375	0.00833333333333333	1	-30	-15	1	1.228515625
462.7734375	0.00833333333333333	1	-30	5	2	0.63671875
465.7734375	0.00833333333333333	1	-30	-14	1	0.8525390625
468.65625	0.00833333333333333	1	-30	-13	1	0.857421875
471.998046875	0.00833333333333333	1	30	-8	1	0.5556640625
474.5888671875	0.00833333333333333	1	30	11	2	0.7490234375
477.7646484375	0.00833333333333333	1	-30	4	2	0.6455078125
480.880859375	0.00833333333333333	1	30	10	2	0.833984375
484.1064453125	0.00833333333333333	1	NaN	5	2	0.6240234375
486.8310546875	0.00833333333333333	1	NaN	-10	1	0.6591796875
489.97265625	0.00833333333333333	1	30	-7	1	0.669921875
492.78125	0.00833333333333333	1	30	9	2	1.189453125
496.15625	0.00833333333333333	1	-30	3	2	0.646484375
499.34765625	0.00833333333333333	1	30	8	2	1.03125
502.572265625	0.00833333333333333	1	30	-6	1	0.5751953125
505.3056640625	0.00833333333333333	1	NaN	4	2	0.5849609375
508.380859375	0.00833333333333333	1	-30	2	2	0.58203125
510.9970703125	0.00833333333333333	1	-30	-12	2	0.6943359375
513.796875	0.00833333333333333	1	30	7	2	1.23046875
517.5810546875	0.00833333333333333	1	-30	-13	1	0.89453125
520.8388671875	0.00833333333333333	1	30	-5	1	0.732421875
523.6474609375	0.00833333333333333	1	NaN	3	2	0.6279296875
526.61328125	0.00833333333333333	1	-30	1	1	1.3505859375
530.2802734375	0.00833333333333333	1	30	-4	1	0.6513671875
533.388671875	0.00833333333333333	1	-30	2	2	0.6796875
536.197265625	0.00833333333333333	1	NaN	-9	1	0.623046875
539.2548828125	0.00833333333333333	1	30	6	2	0.7568359375
542.3466796875	0.00833333333333333	1	30	5	2	0.6572265625
545.1220703125	0.00833333333333333	1	30	-3	1	0.6904296875
548.1806640625	0.00833333333333333	1	NaN	2	2	0.6796875
551.23046875	0.00833333333333333	1	NaN	1	1	4.7822265625
558.5048828125	0.00833333333333333	1	30	-2	1	0.939453125
561.888671875	0.00833333333333333	1	-30	1	2	0.556640625
564.7470703125	0.00833333333333333	1	NaN	2	1	1.2177734375
568.5302734375	0.00833333333333333	1	NaN	3	1	4.4111328125
575.4052734375	0.00833333333333333	1	-30	0	2	0.7197265625
578.61328125	0.00833333333333333	1	NaN	4	2	6.46484375
587.521484375	0.00833333333333333	1	-30	-1	2	0.7001953125
590.4541015625	0.00833333333333333	1	NaN	3	2	1.49609375
594.23828125	0.00833333333333333	1	30	-1	1	0.6240234375
597.12890625	0.00833333333333333	1	30	0	1	0.63671875
600.1875	0.00833333333333333	1	-30	-2	2	0.5546875
602.9462890625	0.00833333333333333	1	30	1	1	0.580078125
605.74609375	0.00833333333333333	1	30	4	1	0.923828125
608.970703125	0.00833333333333333	1	30	5	1	0.68359375
612.1376953125	0.00833333333333333	1	30	2	1	0.7412109375
615.328125	0.00833333333333333	1	30	3	1	1.55859375
619.4208984375	0.00833333333333333	1	30	4	1	1.40234375
623.0126953125	0.00833333333333333	1	30	6	1	1.0419921875
634.12890625	0.00833333333333333	1	NaN	-8	1	0.837890625
637.01171875	0.00833333333333333	1	NaN	2	2	1.1796875
640.720703125	0.00833333333333333	1	30	7	2	0.8544921875
644.1123046875	0.00833333333333333	1	30	5	1	1.4228515625
647.8037109375	0.00833333333333333	1	30	6	2	1.732421875
651.9541015625	0.00833333333333333	1	NaN	1	2	1.4296875
655.8955078125	0.00833333333333333	1	30	6	1	1.7685546875
660.2119140625	0.00833333333333333	1	NaN	0	2	6.900390625
669.5615234375	0.00833333333333333	1	30	5	1	1.3349609375
673.38671875	0.00833333333333333	1	NaN	-1	2	1.6142578125
677.361328125	0.00833333333333333	1	30	7	1	1.17578125
681.0693359375	0.00833333333333333	1	30	6	2	2.01953125
685.27734375	0.00833333333333333	1	-30	-3	2	0.69140625
688.177734375	0.00833333333333333	1	-30	-4	2	0.6796875
691.38671875	0.00833333333333333	1	30	8	2	0.734375
694.478515625	0.00833333333333333	1	30	7	2	0.9306640625
697.703125	0.00833333333333333	1	-30	-5	2	0.5302734375
700.544921875	0.00833333333333333	1	30	6	2	0.9521484375
703.8603515625	0.00833333333333333	1	30	5	2	2.3408203125
708.4189453125	0.00833333333333333	1	-30	-6	2	2.4306640625
713.2109375	0.00833333333333333	1	NaN	-2	2	3.20703125
718.7607421875	0.00833333333333333	1	30	4	2	0.9375
722.185546875	0.00833333333333333	1	NaN	-3	1	1.552734375
726.0693359375	0.00833333333333333	1	30	5	2	0.796875
729.3359375	0.00833333333333333	1	NaN	-7	1	0.7705078125
732.3193359375	0.00833333333333333	1	30	3	1	1.962890625
736.619140625	0.00833333333333333	1	-30	-7	1	2.2158203125
741.060546875	0.00833333333333333	1	NaN	-6	1	0.8544921875
744.41015625	0.00833333333333333	1	30	4	1	0.888671875
747.810546875	0.00833333333333333	1	-30	-6	2	2.736328125
752.65234375	0.00833333333333333	1	30	5	1	1.3271484375
756.3271484375	0.00833333333333333	1	NaN	-5	1	0.7880859375
759.193359375	0.00833333333333333	1	NaN	-4	1	0.666015625
762.126953125	0.00833333333333333	1	NaN	-3	1	0.7646484375
765.15234375	0.00833333333333333	1	-30	-7	1	0.9306640625
768.626953125	0.00833333333333333	1	-30	-6	2	0.736328125
771.91796875	0.00833333333333333	1	-30	-7	1	1.0693359375
775.30078125	0.00833333333333333	1	NaN	-2	1	0.88671875
778.443359375	0.00833333333333333	1	NaN	-1	1	1.3369140625
782.1845703125	0.00833333333333333	1	-30	-6	2	0.8759765625
785.4345703125	0.00833333333333333	1	30	4	2	2.0419921875
789.96875	0.00833333333333333	1	NaN	0	2	1.267578125
793.3515625	0.00833333333333333	1	30	3	1	0.9169921875
796.5849609375	0.00833333333333333	1	30	6	2	0.6591796875
799.3173828125	0.00833333333333333	1	30	4	1	1.3916015625
802.8095703125	0.00833333333333333	1	NaN	-1	2	2.3388671875
807.5009765625	0.00833333333333333	1	30	5	2	2.52734375
812.16796875	0.00833333333333333	1	30	5	2	0.701171875
814.951171875	0.00833333333333333	1	NaN	-2	1	0.8935546875
817.892578125	0.00833333333333333	1	30	4	2	0.720703125
820.7265625	0.00833333333333333	1	30	4	1	0.8388671875
823.6513671875	0.00833333333333333	1	30	3	2	1.0341796875
827.06640625	0.00833333333333333	1	NaN	-1	1	1.283203125
830.384765625	0.00833333333333333	1	NaN	0	1	1.037109375
833.517578125	0.00833333333333333	1	30	2	1	0.6875
836.5263671875	0.00833333333333333	1	30	3	1	0.5830078125
839.5595703125	0.00833333333333333	1	30	4	2	2.5341796875
844.599609375	0.00833333333333333	1	NaN	1	1	1.0380859375
848.05078125	0.00833333333333333	1	NaN	2	2	1.34765625
851.767578125	0.00833333333333333	1	NaN	1	1	0.9501953125
855.2509765625	0.00833333333333333	1	NaN	2	1	1.36328125
858.6669921875	0.00833333333333333	1	NaN	3	2	1.2353515625
862.0751953125	0.00833333333333333	1	30	3	2	1.2197265625
865.4833984375	0.00833333333333333	1	30	2	1	1.70703125
869.30078125	0.00833333333333333	1	NaN	2	2	2.3779296875
874.0078125	0.00833333333333333	1	30	3	1	0.8388671875
877.32421875	0.00833333333333333	1	NaN	1	1	1.0751953125
880.783203125	0.00833333333333333	1	30	4	2	0.84765625
883.8173828125	0.00833333333333333	1	NaN	2	2	0.669921875
886.75	0.00833333333333333	1	NaN	1	2	0.681640625
889.5166015625	0.00833333333333333	1	NaN	0	2	0.68359375
892.625	0.00833333333333333	1	NaN	-1	1	0.7353515625
895.423828125	0.00833333333333333	1	NaN	0	1	2.1435546875
899.923828125	0.00833333333333333	1	NaN	1	2	0.7080078125
902.8994140625	0.00833333333333333	1	NaN	5.41666666666667	2	0.7802734375
905.94140625	0.00833333333333333	1	30	4	1	0.71484375
909.0830078125	0.00833333333333333	1	30	4.125	1	0.7490234375
912.19921875	0.00833333333333333	1	30	5	2	1.544921875
916.30859375	0.00833333333333333	1	30	4.25	1	1.1318359375
919.6083984375	0.00833333333333333	1	30	4.375	2	0.7119140625
922.4833984375	0.00833333333333333	1	30	4.25	2	0.701171875
925.5498046875	0.00833333333333333	1	NaN	4.41666666666667	2	0.70703125
928.7158203125	0.00833333333333333	1	30	4.125	1	0.884765625
932.0078125	0.00833333333333333	1	30	4.875	2	0.873046875
967.3076171875	0.00833333333333333	1	30	4.25	2	1.333984375
971.0576171875	0.00833333333333333	1	NaN	5.29166666666667	2	0.6962890625
974.0576171875	0.00833333333333333	1	30	4.75	1	0.728515625
976.865234375	0.00833333333333333	1	30	4.875	1	0.712890625
980.015625	0.00833333333333333	1	-30	-10	2	1.314453125
983.4990234375	0.00833333333333333	1	-30	-9	2	1.4951171875
987.439453125	0.00833333333333333	1	-30	-10.125	2	0.8427734375
990.7646484375	0.00833333333333333	1	-30	-9.125	2	0.9423828125
993.7900390625	0.00833333333333333	1	30	4.125	2	0.8046875
996.78125	0.00833333333333333	1	-30	-9.25	2	0.7578125
999.7490234375	0.00833333333333333	1	-30	-10.25	2	0.8623046875
1002.740234375	0.00833333333333333	1	30	5	2	0.7666015625
1005.7646484375	0.00833333333333333	1	-30	-10.375	2	0.6865234375
1008.96484375	0.00833333333333333	1	-30	-9.375	2	1.310546875
1012.7900390625	0.00833333333333333	1	-30	-9.5	2	0.8857421875
1016.1904296875	0.00833333333333333	1	30	4	2	0.8212890625
1019.556640625	0.00833333333333333	1	NaN	5.16666666666667	2	0.7431640625
1022.6220703125	0.00833333333333333	1	30	4.875	2	0.7900390625
1025.8984375	0.00833333333333333	1	NaN	4.29166666666667	2	0.6171875
1028.806640625	0.00833333333333333	1	-30	-10.5	2	2.0048828125
1032.8984375	0.00833333333333333	1	NaN	5.04166666666667	2	0.5693359375
1035.689453125	0.00833333333333333	1	NaN	4.16666666666667	2	0.5068359375
1038.5234375	0.00833333333333333	1	30	3.875	2	0.640625
1041.4482421875	0.00833333333333333	1	NaN	4.91666666666667	2	0.4521484375
1044.0478515625	0.00833333333333333	1	-30	-10.625	1	0.900390625
1047.2646484375	0.00833333333333333	1	30	3.75	2	0.66015625
1050.013671875	0.00833333333333333	1	-30	-10.5	2	0.5908203125
1053.0810546875	0.00833333333333333	1	30	4.75	2	0.5400390625
1055.8642578125	0.00833333333333333	1	30	3.625	2	0.8525390625
1059.09765625	0.00833333333333333	1	30	3.5	2	0.6591796875
1062.09765625	0.00833333333333333	1	-30	-9.625	2	0.595703125
1065.005859375	0.00833333333333333	1	NaN	4.79166666666667	2	0.6474609375
1067.814453125	0.00833333333333333	1	NaN	4.66666666666667	2	0.5185546875
1070.4638671875	0.00833333333333333	1	-30	-9.75	2	0.517578125
1073.09765625	0.00833333333333333	1	-30	-10.625	2	0.5634765625
1076.0224609375	0.00833333333333333	1	NaN	4.04166666666667	2	0.53515625
1078.814453125	0.00833333333333333	1	30	4.625	2	0.7265625
1081.689453125	0.00833333333333333	1	30	3.375	1	3.5166015625
1087.580078125	0.00833333333333333	1	NaN	3.91666666666667	2	0.6015625
1090.505859375	0.00833333333333333	1	NaN	4.54166666666667	2	0.595703125
1093.263671875	0.00833333333333333	1	-30	-9.875	2	0.669921875
1096.34765625	0.00833333333333333	1	30	4.5	1	1.07421875
1099.921875	0.00833333333333333	1	NaN	4.41666666666667	2	0.5966796875
1102.9970703125	0.00833333333333333	1	30	4.625	2	1.513671875
1106.99609375	0.00833333333333333	1	NaN	4.29166666666667	2	0.7138671875
1110.0712890625	0.00833333333333333	1	-30	-10	2	0.54296875
1112.8388671875	0.00833333333333333	1	NaN	3.79166666666667	2	0.52734375
1115.9384765625	0.00833333333333333	1	30	3.5	2	0.64453125
1118.98046875	0.00833333333333333	1	-30	-10.125	2	0.642578125
1122.080078125	0.00833333333333333	1	30	4.5	2	0.630859375
1124.9130859375	0.00833333333333333	1	-30	-10.75	2	0.60546875
1127.638671875	0.00833333333333333	1	NaN	4.16666666666667	2	0.4560546875
1130.330078125	0.00833333333333333	1	NaN	4.04166666666667	2	0.5732421875
1133.3798828125	0.00833333333333333	1	-30	-10.25	2	0.298828125
1136.046875	0.00833333333333333	1	NaN	3.66666666666667	2	0.6083984375
1139.23828125	0.00833333333333333	1	NaN	3.91666666666667	2	0.5615234375
1142.24609375	0.00833333333333333	1	NaN	3.54166666666667	2	0.5537109375
1145.1044921875	0.00833333333333333	1	30	4.375	1	1.607421875
1148.896484375	0.00833333333333333	1	NaN	3.41666666666667	2	0.5830078125
1151.7216796875	0.00833333333333333	1	30	3.375	1	1.1982421875
1154.99609375	0.00833333333333333	1	-30	-10.375	1	2.8837890625
1160.37890625	0.00833333333333333	1	30	4.5	2	0.59765625
1163.279296875	0.00833333333333333	1	-30	-10.25	2	0.8408203125
1166.4296875	0.00833333333333333	1	-30	-10.875	2	1.3466796875
1170.2294921875	0.00833333333333333	1	NaN	3.29166666666667	2	0.5791015625
1173.1708984375	0.00833333333333333	1	30	4.375	2	0.6298828125
1176.2294921875	0.00833333333333333	1	NaN	3.79166666666667	2	0.5791015625
1178.978515625	0.00833333333333333	1	30	4.25	2	0.7744140625
1182.0703125	0.00833333333333333	1	NaN	3.66666666666667	2	0.6103515625
1185.0712890625	0.00833333333333333	1	30	4.125	2	0.5458984375
1187.6953125	0.00833333333333333	1	NaN	3.54166666666667	2	0.666015625
1190.5947265625	0.00833333333333333	1	-30	-11	1	0.822265625
1193.51171875	0.00833333333333333	1	NaN	3.16666666666667	2	0.5859375
1196.5703125	0.00833333333333333	1	30	3.5	1	1.142578125
1200.1044921875	0.00833333333333333	1	-30	-10.875	1	0.736328125
1203.1875	0.00833333333333333	1	-30	-10.375	1	1.6298828125
1207.0947265625	0.00833333333333333	1	NaN	3.04166666666667	2	0.6669921875
1210.2373046875	0.00833333333333333	1	-30	-10.25	1	1.748046875
1214.25390625	0.00833333333333333	1	-30	-10.75	2	2.01171875
1218.7451171875	0.00833333333333333	1	-30	-10.875	1	2.552734375
1223.537109375	0.00833333333333333	1	-30	-10.125	1	0.896484375
1226.853515625	0.00833333333333333	1	30	3.625	1	0.7724609375
1229.677734375	0.00833333333333333	1	NaN	2.91666666666667	2	0.564453125
1232.6953125	0.00833333333333333	1	-30	-10	1	1.267578125
1236.26171875	0.00833333333333333	1	-30	-10.75	1	1.2529296875
1239.662109375	0.00833333333333333	1	-30	-10.625	1	0.716796875
1242.7783203125	0.00833333333333333	1	30	3.75	1	2.0087890625
1247.3115234375	0.00833333333333333	1	30	3.875	2	1.3076171875
1251.111328125	0.00833333333333333	1	NaN	2.79166666666667	2	0.595703125
1254.01953125	0.00833333333333333	1	30	4	1	1.6240234375
1257.6787109375	0.00833333333333333	1	NaN	2.66666666666667	2	0.900390625
1260.8701171875	0.00833333333333333	1	NaN	2.54166666666667	2	0.60546875
1263.7529296875	0.00833333333333333	1	30	4.125	2	1.0908203125
1267.1357421875	0.00833333333333333	1	NaN	2.41666666666667	2	0.7314453125
1280.052734375	0.00833333333333333	1	NaN	2.29166666666667	1	1.8076171875
1284.0185546875	0.00833333333333333	1	30	4	2	2.953125
1289.203125	0.00833333333333333	1	-30	-10.5	1	0.78515625
1292.1025390625	0.00833333333333333	1	-30	-10.375	1	0.75
1295.111328125	0.00833333333333333	1	-30	-10.25	1	0.708984375
1298.2763671875	0.00833333333333333	1	-30	-10.125	1	0.736328125
1301.0439453125	0.00833333333333333	1	30	3.875	2	2.384765625
1305.8271484375	0.00833333333333333	1	NaN	2.41666666666667	1	2.2978515625
1310.6943359375	0.00833333333333333	1	NaN	2.54166666666667	1	1.0869140625
1314.302734375	0.00833333333333333	1	-30	-10	1	1.21484375
1318.052734375	0.00833333333333333	1	-30	-9.875	1	2.3447265625
1322.5771484375	0.00833333333333333	1	NaN	2.66666666666667	2	0.8125
1325.6435546875	0.00833333333333333	1	NaN	2.54166666666667	2	0.9775390625
1328.8525390625	0.00833333333333333	1	-30	-9.875	1	0.857421875
1332.060546875	0.00833333333333333	1	30	3.75	1	0.8974609375
1335.4521484375	0.00833333333333333	1	30	3.875	2	2.2099609375
1340.193359375	0.00833333333333333	1	NaN	3.41666666666667	1	1.1884765625
1343.4599609375	0.00833333333333333	1	30	3.75	1	0.75390625
1346.310546875	0.00833333333333333	1	NaN	3.54166666666667	2	0.5439453125
1349.0263671875	0.00833333333333333	1	NaN	2.41666666666667	2	0.7314453125
1352.2763671875	0.00833333333333333	1	30	3.75	1	0.6982421875
1355.46875	0.00833333333333333	1	NaN	3.41666666666667	2	0.505859375
1358.4931640625	0.00833333333333333	1	NaN	2.29166666666667	1	0.376953125
1360.91796875	0.00833333333333333	1	-30	-9.75	1	0.6806640625
1363.951171875	0.00833333333333333	1	NaN	2.41666666666667	2	0.54296875
1366.9677734375	0.00833333333333333	1	-30	-9.75	1	0.5908203125
1369.6669921875	0.00833333333333333	1	-30	-9.625	1	0.8203125
1372.859375	0.00833333333333333	1	NaN	3.29166666666667	2	0.4912109375
1375.6015625	0.00833333333333333	1	30	3.875	1	0.94921875
1378.6845703125	0.00833333333333333	1	30	3.875	2	0.9462890625
1381.951171875	0.00833333333333333	1	30	4	1	0.6875
1384.91796875	0.00833333333333333	1	NaN	2.29166666666667	2	0.6494140625
1387.8349609375	0.00833333333333333	1	30	3.75	1	0.6845703125
1390.5166015625	0.00833333333333333	1	-30	-9.625	1	0.6025390625
1393.5263671875	0.00833333333333333	1	NaN	2.16666666666667	1	1.1689453125
1397.1513671875	0.00833333333333333	1	-30	-9.5	1	0.7998046875
1400.451171875	0.00833333333333333	1	-30	-9.375	1	0.6845703125
1403.6181640625	0.00833333333333333	1	NaN	2.29166666666667	2	0.7578125
1406.8837890625	0.00833333333333333	1	30	3.875	1	0.6123046875
1410.025390625	0.00833333333333333	1	30	4	1	1.3828125
1413.7255859375	0.00833333333333333	1	NaN	3.16666666666667	2	0.5947265625
1416.458984375	0.00833333333333333	1	-30	-9.5	1	0.693359375
1419.30078125	0.00833333333333333	1	-30	-9.25	1	0.923828125
1422.43359375	0.00833333333333333	1	NaN	2.16666666666667	1	0.87109375
1425.80078125	0.00833333333333333	1	-30	-9.125	1	0.744140625
1428.6669921875	0.00833333333333333	1	30	4.125	1	0.8779296875
1431.708984375	0.00833333333333333	1	NaN	3.04166666666667	2	0.580078125
1434.4833984375	0.00833333333333333	1	-30	-9	1	0.59765625
1437.400390625	0.00833333333333333	1	30	4.125	1	0.625
1440.275390625	0.00833333333333333	1	30	4.25	1	0.6533203125
1442.9921875	0.00833333333333333	1	-30	-9.375	1	0.720703125
1445.9755859375	0.00833333333333333	1	30	4.25	2	1.5380859375
1450.05859375	0.00833333333333333	1	NaN	2.91666666666667	1	0.7421875
1453.2919921875	0.00833333333333333	1	-30	-8.875	1	0.685546875
1456.32421875	0.00833333333333333	1	30	4.125	2	1.2294921875
1460.1005859375	0.00833333333333333	1	NaN	3.04166666666667	1	0.78125
1463.1328125	0.00833333333333333	1	NaN	2.29166666666667	1	0.9013671875
1466.541015625	0.00833333333333333	1	30	4	1	0.6845703125
1469.4169921875	0.00833333333333333	1	NaN	3.16666666666667	2	0.705078125
1472.30859375	0.00833333333333333	1	30	4.375	1	0.701171875
1475.474609375	0.00833333333333333	1	-30	-9.25	2	0.6240234375
1478.3583984375	0.00833333333333333	1	NaN	2.41666666666667	1	0.8681640625
1481.724609375	0.00833333333333333	1	NaN	3.04166666666667	2	0.5732421875
1484.4912109375	0.00833333333333333	1	-30	-9.375	1	0.5673828125
1487.25	0.00833333333333333	1	30	4.5	1	0.568359375
1489.94140625	0.00833333333333333	1	-30	-8.75	1	0.5810546875
1492.966796875	0.00833333333333333	1	NaN	2.54166666666667	2	0.6279296875
1496.1328125	0.00833333333333333	1	30	4.625	1	0.6376953125
1498.7998046875	0.00833333333333333	1	-30	-9.25	1	0.70703125
1501.6494140625	0.00833333333333333	1	NaN	2.41666666666667	2	0.5458984375
1504.349609375	0.00833333333333333	1	NaN	2.29166666666667	2	2.3251953125
1509.0830078125	0.00833333333333333	1	NaN	2.16666666666667	1	0.888671875
1512.3662109375	0.00833333333333333	1	-30	-9.125	2	1.0126953125
1515.8330078125	0.00833333333333333	1	30	4.75	2	0.8828125
1519.1494140625	0.00833333333333333	1	-30	-9.25	1	0.669921875
1522.1494140625	0.00833333333333333	1	30	4.625	1	1.56640625
1526.015625	0.00833333333333333	1	NaN	2.29166666666667	2	0.6923828125
1529.08203125	0.00833333333333333	1	NaN	2.16666666666667	2	0.658203125
1532.0322265625	0.00833333333333333	1	NaN	2.04166666666667	1	0.9638671875
1535.5078125	0.00833333333333333	1	-30	-8.625	1	1
1538.666015625	0.00833333333333333	1	30	4.75	1	0.6904296875
1541.7734375	0.00833333333333333	1	-30	-9.125	1	0.6865234375
1544.6064453125	0.00833333333333333	1	NaN	2.91666666666667	2	0.57421875
1547.232421875	0.00833333333333333	1	NaN	2.16666666666667	2	0.8203125
1550.4326171875	0.00833333333333333	1	-30	-8.5	1	0.6923828125
1553.365234375	0.00833333333333333	1	-30	-8.375	1	1.5751953125
1557.0732421875	0.00833333333333333	1	-30	-9	2	0.7236328125
1559.97265625	0.00833333333333333	1	NaN	2.79166666666667	2	0.9287109375
1563.173828125	0.00833333333333333	1	NaN	2.04166666666667	2	0.6708984375
1565.890625	0.00833333333333333	1	-30	-9.125	2	0.8427734375
1569.048828125	0.00833333333333333	1	-30	-8.25	2	0.724609375
1572.1904296875	0.00833333333333333	1	-30	-8.375	2	0.630859375
1575.3154296875	0.00833333333333333	1	NaN	2.66666666666667	2	0.673828125
1578.0234375	0.00833333333333333	1	-30	-8.5	2	0.6943359375
1593.98046875	0.00833333333333333	1	NaN	2.54166666666667	2	1.76171875
1598.2734375	0.00833333333333333	1	NaN	1.91666666666667	2	1.572265625
1602.1474609375	0.00833333333333333	1	30	4.875	2	1.1142578125
1605.5302734375	0.00833333333333333	1	NaN	1.79166666666667	2	1.7802734375
1609.4892578125	0.00833333333333333	1	NaN	1.66666666666667	2	0.677734375
1612.72265625	0.00833333333333333	1	NaN	1.54166666666667	2	1.1318359375
1616.1982421875	0.00833333333333333	1	-30	-8.625	1	0.81640625
1619.0146484375	0.00833333333333333	1	-30	-9.25	2	0.7119140625
1622.181640625	0.00833333333333333	1	NaN	1.41666666666667	2	0.6572265625
1625.255859375	0.00833333333333333	1	NaN	2.41666666666667	2	0.5830078125
1628.380859375	0.00833333333333333	1	-30	-8.5	2	0.658203125
1631.35546875	0.00833333333333333	1	NaN	1.29166666666667	2	0.6201171875
1634.0810546875	0.00833333333333333	1	-30	-8.625	2	0.7021484375
1637.205078125	0.00833333333333333	1	30	4.75	1	0.810546875
1640.064453125	0.00833333333333333	1	NaN	2.29166666666667	2	0.775390625
1643.2890625	0.00833333333333333	1	-30	-8.75	2	0.8701171875
1646.748046875	0.00833333333333333	1	-30	-8.875	1	0.7392578125
1649.7802734375	0.00833333333333333	1	NaN	2.16666666666667	2	0.69921875
1652.6552734375	0.00833333333333333	1	-30	-8.75	1	0.640625
1655.59765625	0.00833333333333333	1	30	4.875	1	0.8984375
1658.955078125	0.00833333333333333	1	NaN	2.04166666666667	2	0.62890625
1661.8134765625	0.00833333333333333	1	NaN	1.16666666666667	1	1.05078125
1665.130859375	0.00833333333333333	1	-30	-8.625	2	0.677734375
1668.23828125	0.00833333333333333	1	-30	-9.375	2	0.650390625
1671.0888671875	0.00833333333333333	1	-30	-9.5	1	1.095703125
1674.3720703125	0.00833333333333333	1	NaN	1.91666666666667	2	0.6044921875
1677.2470703125	0.00833333333333333	1	-30	-8.75	2	1.0654296875
1680.6220703125	0.00833333333333333	1	NaN	1.79166666666667	2	0.5947265625
1683.5634765625	0.00833333333333333	1	-30	-8.875	1	0.7568359375
1686.404296875	0.00833333333333333	1	-30	-8.75	2	0.6845703125
1689.60546875	0.00833333333333333	1	NaN	1.29166666666667	2	0.6513671875
1692.513671875	0.00833333333333333	1	NaN	1.66666666666667	2	0.671875
1695.3544921875	0.00833333333333333	1	30	5	1	0.623046875
1698.4462890625	0.00833333333333333	1	-30	-8.875	2	1.03515625
1701.830078125	0.00833333333333333	1	NaN	1.16666666666667	2	0.7548828125
1704.8544921875	0.00833333333333333	1	-30	-9.375	1	0.72265625
1707.6962890625	0.00833333333333333	1	-30	-9	2	1.0009765625
1710.8046875	0.00833333333333333	1	NaN	1.54166666666667	2	0.8134765625
1714.1630859375	0.00833333333333333	1	30	5.125	1	0.798828125
1717.2880859375	0.00833333333333333	1	-30	-9.25	1	0.75390625
1720.4296875	0.00833333333333333	1	-30	-9.125	1	0.64453125
1723.580078125	0.00833333333333333	1	-30	-9	1	1.341796875
1727.2216796875	0.00833333333333333	1	30	5.25	2	1.060546875
1730.837890625	0.00833333333333333	1	-30	-8.875	1	0.7880859375
1733.74609375	0.00833333333333333	1	NaN	1.41666666666667	2	0.7841796875
1736.728515625	0.00833333333333333	1	-30	-9.125	1	0.7783203125
1739.896484375	0.00833333333333333	1	NaN	1.04166666666667	2	0.826171875
1742.8291015625	0.00833333333333333	1	-30	-9	2	0.8935546875
1746.1962890625	0.00833333333333333	1	NaN	0.916666666666666	2	0.5908203125
1749.1123046875	0.00833333333333333	1	-30	-9.125	2	1.1220703125
1752.3623046875	0.00833333333333333	1	-30	-9.25	1	0.6806640625
1755.5546875	0.00833333333333333	1	30	5.125	2	0.625
1758.412109375	0.00833333333333333	1	-30	-8.75	1	0.6875
1761.51171875	0.00833333333333333	1	30	5	2	0.6435546875
1764.4541015625	0.00833333333333333	1	NaN	0.791666666666666	2	0.541015625
1767.412109375	0.00833333333333333	1	30	4.875	2	0.6796875
1770.611328125	0.00833333333333333	1	NaN	1.29166666666667	2	0.8486328125
1773.6201171875	0.00833333333333333	1	NaN	1.16666666666667	2	0.583984375
1776.4375	0.00833333333333333	1	-30	-8.625	2	0.646484375
1779.412109375	0.00833333333333333	1	NaN	0.666666666666666	2	1.279296875
1783.0869140625	0.00833333333333333	1	NaN	1.04166666666667	2	0.6455078125
1786.1533203125	0.00833333333333333	1	-30	-8.75	1	0.9150390625
1789.3623046875	0.00833333333333333	1	-30	-8.625	1	0.9140625
1792.5615234375	0.00833333333333333	1	30	4.75	1	1.1943359375
1796.095703125	0.00833333333333333	1	30	4.875	2	0.7001953125
1799.0537109375	0.00833333333333333	1	NaN	0.916666666666666	2	1.150390625
1802.603515625	0.00833333333333333	1	NaN	0.541666666666666	1	2.544921875
1807.5537109375	0.00833333333333333	1	-30	-8.5	1	0.9150390625
1810.76171875	0.00833333333333333	1	NaN	0.791666666666666	2	0.70703125
1813.9033203125	0.00833333333333333	1	NaN	0.666666666666666	1	0.7099609375
1816.7119140625	0.00833333333333333	1	-30	-8.375	1	0.6689453125
1819.736328125	0.00833333333333333	1	NaN	0.791666666666666	1	0.7646484375
1822.5859375	0.00833333333333333	1	NaN	0.916666666666666	2	0.7314453125
1825.4365234375	0.00833333333333333	1	-30	-8.25	1	0.6083984375
1828.1611328125	0.00833333333333333	1	-30	-8.125	1	0.6923828125
1831.1533203125	0.00833333333333333	1	NaN	0.791666666666666	2	0.6279296875
1833.91015625	0.00833333333333333	1	NaN	0.666666666666666	2	1.2236328125
1837.8193359375	0.00833333333333333	1	NaN	0.541666666666666	1	2.05859375
1841.9599609375	0.00833333333333333	1	NaN	0.666666666666666	1	0.734375
1844.794921875	0.00833333333333333	1	-30	-8	2	0.771484375
1848.0361328125	0.00833333333333333	1	NaN	0.791666666666666	1	0.74609375
1851.111328125	0.00833333333333333	1	NaN	0.916666666666666	1	0.6953125
1854.2939453125	0.00833333333333333	1	NaN	1.04166666666667	1	2.064453125
1858.7861328125	0.00833333333333333	1	-30	-8.125	1	0.9560546875
1861.9189453125	0.00833333333333333	1	NaN	1.16666666666667	2	0.775390625
1865.177734375	0.00833333333333333	1	NaN	1.04166666666667	1	0.5966796875
1868.1025390625	0.00833333333333333	1	-30	-8	1	0.736328125
1871.14453125	0.00833333333333333	1	NaN	1.16666666666667	2	0.837890625
1874.2109375	0.00833333333333333	1	-30	-7.875	1	1.1884765625
1877.8525390625	0.00833333333333333	1	-30	-7.75	1	0.71484375
1880.744140625	0.00833333333333333	1	NaN	1.04166666666667	1	0.623046875
1883.8935546875	0.00833333333333333	1	NaN	1.16666666666667	2	0.609375
1886.994140625	0.00833333333333333	1	NaN	1.04166666666667	2	0.5810546875
1889.8271484375	0.00833333333333333	1	NaN	0.916666666666666	2	0.7158203125
1893.126953125	0.00833333333333333	1	-30	-7.625	1	0.65625
1910.2939453125	0.00833333333333333	1	NaN	0.791666666666666	2	1.5537109375
1914.1435546875	0.00833333333333333	1	-30	-7.5	1	1.216796875
1917.7509765625	0.00833333333333333	1	NaN	0.666666666666666	2	0.6494140625
1920.91015625	0.00833333333333333	1	-30	-7.375	2	0.8662109375
1924.41796875	0.00833333333333333	1	NaN	0.541666666666666	2	0.806640625
1927.6015625	0.00833333333333333	1	NaN	0.416666666666666	1	1.1669921875
1930.8603515625	0.00833333333333333	1	-30	-7.5	2	0.64453125
1934.04296875	0.00833333333333333	1	NaN	0.541666666666666	2	0.75
1937.04296875	0.00833333333333333	1	NaN	0.416666666666666	2	1.333984375
1940.642578125	0.00833333333333333	1	NaN	0.291666666666666	2	0.654296875
1943.8017578125	0.00833333333333333	1	-30	-7.625	2	0.6875
1947.134765625	0.00833333333333333	1	NaN	0.166666666666666	2	0.6982421875
1950.443359375	0.00833333333333333	1	-30	-7.75	1	1.26171875
1954.076171875	0.00833333333333333	1	NaN	0.0416666666666661	2	0.677734375
1957.234375	0.00833333333333333	1	NaN	-0.0833333333333339	2	0.783203125
1960.326171875	0.00833333333333333	1	NaN	-0.208333333333334	2	0.611328125
1963.3505859375	0.00833333333333333	1	NaN	-0.333333333333334	2	0.6669921875
1966.2763671875	0.00833333333333333	1	NaN	-0.458333333333334	2	0.6611328125
1969.517578125	0.00833333333333333	1	NaN	-0.583333333333334	2	0.8125
1972.6591796875	0.00833333333333333	1	NaN	-0.708333333333334	2	0.615234375
1975.884765625	0.00833333333333333	1	NaN	-0.833333333333334	2	0.533203125
1978.6513671875	0.00833333333333333	1	NaN	-0.958333333333334	2	0.6630859375
1981.55078125	0.00833333333333333	1	NaN	-1.08333333333333	1	1.7880859375
1985.734375	0.00833333333333333	0	-30	-8.66875	1	1.2919921875
1989.4423828125	0.00833333333333333	0	-30	-8.66875	2	1.2646484375
1993.0166015625	0.00833333333333333	0	-30	-8.66875	1	1.0341796875
1996.1337890625	0.00833333333333333	0	-30	-8.66875	1	1.3251953125
1999.583984375	0.00833333333333333	0	30	4.2375	1	1.146484375
2003.0166015625	0.00833333333333333	0	30	4.2375	2	0.7060546875
2006.2333984375	0.00833333333333333	0	-30	-8.66875	1	0.74609375
2009.3173828125	0.00833333333333333	0	-30	-8.66875	1	0.853515625
2012.30859375	0.00833333333333333	0	30	4.2375	2	1.0703125
2015.9423828125	0.00833333333333333	0	30	4.2375	2	1.7568359375
2019.9423828125	0.00833333333333333	0	30	4.2375	1	0.869140625
2022.93359375	0.00833333333333333	0	-30	-8.66875	2	1.005859375
2026.31640625	0.00833333333333333	0	30	4.2375	1	0.7998046875
2029.3671875	0.00833333333333333	0	-30	-8.66875	2	0.7490234375
2032.3583984375	0.00833333333333333	0	30	4.2375	1	0.7578125
2035.4248046875	0.00833333333333333	0	-30	-8.66875	2	0.69921875
2038.6416015625	0.00833333333333333	0	30	4.2375	1	0.5947265625
2041.6083984375	0.00833333333333333	0	-30	-8.66875	1	0.755859375
2044.533203125	0.00833333333333333	0	-30	-8.66875	1	0.8076171875
2047.5322265625	0.00833333333333333	0	-30	-8.66875	1	1.4560546875
2051.091796875	0.00833333333333333	0	-30	-8.66875	2	1.3046875
2054.7333984375	0.00833333333333333	0	30	4.2375	1	0.615234375
2057.666015625	0.00833333333333333	0	-30	-8.66875	2	0.6748046875
2060.57421875	0.00833333333333333	0	-30	-8.66875	2	0.9189453125
2063.6494140625	0.00833333333333333	0	30	4.3625	1	0.7314453125
2066.765625	0.00833333333333333	0	30	4.3625	1	0.759765625
2069.7744140625	0.00833333333333333	0	-30	-8.66875	1	0.7822265625
2073.099609375	0.00833333333333333	0	-30	-8.66875	1	0.74609375
2076.2412109375	0.00833333333333333	0	30	4.3625	1	0.7880859375
2079.1328125	0.00833333333333333	0	-30	-8.66875	2	1.0009765625
2082.4658203125	0.00833333333333333	0	-30	-8.66875	1	1.6279296875
2086.2900390625	0.00833333333333333	0	30	4.3625	1	0.7080078125
2089.2578125	0.00833333333333333	0	-30	-8.66875	1	0.828125
2092.5322265625	0.00833333333333333	0	30	4.3625	2	0.8818359375
2095.7158203125	0.00833333333333333	0	-30	-8.66875	1	0.73046875
2098.7236328125	0.00833333333333333	0	-30	-8.66875	1	0.7705078125
2101.94921875	0.00833333333333333	0	30	4.3625	1	0.76953125
2104.9404296875	0.00833333333333333	0	-30	-8.66875	2	2.25
2109.490234375	0.00833333333333333	0	-30	-8.66875	1	0.724609375
2112.3642578125	0.00833333333333333	0	-30	-8.66875	2	0.7783203125
2115.2568359375	0.00833333333333333	0	30	4.3625	1	0.75
2118.5322265625	0.00833333333333333	0	-30	-8.66875	1	0.74609375
2121.5068359375	0.00833333333333333	0	-30	-8.66875	1	1.171875
2124.8740234375	0.00833333333333333	0	-30	-8.66875	2	1.0849609375
2128.2568359375	0.00833333333333333	0	30	4.3625	1	2.55859375
2133.08203125	0.00833333333333333	0	30	4.3625	2	0.7568359375
2136.298828125	0.00833333333333333	0	-30	-8.66875	1	0.732421875
2139.4404296875	0.00833333333333333	0	-30	-8.66875	1	1.0869140625
2142.9482421875	0.00833333333333333	0	-30	-8.66875	2	0.619140625
2145.70703125	0.00833333333333333	0	-30	-8.66875	2	0.6767578125
2148.8984375	0.00833333333333333	0	-30	-8.66875	1	1.59765625
2152.8896484375	0.00833333333333333	0	30	4.3625	2	0.6220703125
2155.806640625	0.00833333333333333	0	-30	-8.66875	2	0.712890625
2159.064453125	0.00833333333333333	0	30	4.3625	2	0.7431640625
2161.96484375	0.00833333333333333	0	30	4.3625	2	0.7236328125
2165.240234375	0.00833333333333333	0	30	4.3625	2	0.7685546875
2168.1396484375	0.00833333333333333	0	-30	-8.66875	1	1.0048828125
2171.255859375	0.00833333333333333	0	-30	-8.66875	2	0.7041015625
2174.181640625	0.00833333333333333	0	-30	-8.66875	2	0.9951171875
2177.53125	0.00833333333333333	0	30	4.2375	2	0.6298828125
2180.36328125	0.00833333333333333	0	30	4.2375	1	1.0537109375
2183.53125	0.00833333333333333	0	30	4.2375	2	0.6533203125
2186.36328125	0.00833333333333333	0	-30	-8.66875	2	0.677734375
2189.3134765625	0.00833333333333333	0	-30	-8.66875	2	0.9111328125
2192.46484375	0.00833333333333333	0	30	4.2375	1	0.7685546875
2195.5224609375	0.00833333333333333	0	-30	-8.66875	2	0.56640625
2198.271484375	0.00833333333333333	0	-30	-8.79375	1	0.8818359375
2201.5966796875	0.00833333333333333	0	30	4.2375	1	2.1005859375
2205.7646484375	0.00833333333333333	0	-30	-8.79375	1	0.62890625
2208.8388671875	0.00833333333333333	0	30	4.2375	2	1.05078125
2212.080078125	0.00833333333333333	0	30	4.2375	1	2.177734375
2216.6806640625	0.00833333333333333	0	-30	-8.79375	1	0.9853515625
2220.1552734375	0.00833333333333333	0	30	4.2375	1	1.1669921875
2223.455078125	0.00833333333333333	0	30	4.2375	2	0.6748046875
2226.380859375	0.00833333333333333	0	-30	-8.79375	2	0.701171875
2229.630859375	0.00833333333333333	0	-30	-8.79375	1	0.8037109375
2232.830078125	0.00833333333333333	0	30	4.2375	1	0.7001953125
2235.9208984375	0.00833333333333333	0	30	4.2375	1	0.7138671875
2238.8056640625	0.00833333333333333	0	-30	-8.79375	1	0.6611328125
2241.6298828125	0.00833333333333333	0	-30	-8.79375	1	0.6845703125
2283.5458984375	0.00833333333333333	0	-30	-8.79375	1	1.3623046875
2287.171875	0.00833333333333333	0	30	4.2375	1	1.1044921875
2290.6708984375	0.00833333333333333	0	30	4.2375	1	2.3017578125
2295.3544921875	0.00833333333333333	0	-30	-8.79375	2	1.169921875
2298.779296875	0.00833333333333333	0	30	4.2375	1	0.720703125
2301.9130859375	0.00833333333333333	0	30	4.3625	1	0.7470703125
2304.9462890625	0.00833333333333333	0	-30	-8.79375	1	0.634765625
2307.6875	0.00833333333333333	0	30	4.3625	1	0.7568359375
2310.6123046875	0.00833333333333333	0	30	4.3625	2	0.873046875
2313.5205078125	0.00833333333333333	0	-30	-8.79375	1	0.748046875
2316.4462890625	0.00833333333333333	0	30	4.3625	2	0.630859375
2319.5126953125	0.00833333333333333	0	-30	-8.79375	2	1.2685546875
2323.029296875	0.00833333333333333	0	-30	-8.79375	1	1.5517578125
2326.662109375	0.00833333333333333	0	-30	-8.79375	2	0.6318359375
2329.7626953125	0.00833333333333333	0	30	4.3625	2	1.0986328125
2332.9453125	0.00833333333333333	0	-30	-8.79375	2	0.6123046875
2335.9541015625	0.00833333333333333	0	-30	-8.79375	2	0.6357421875
2339.154296875	0.00833333333333333	0	-30	-8.79375	1	2.4755859375
2343.9287109375	0.00833333333333333	0	30	4.3625	2	0.7490234375
2346.9287109375	0.00833333333333333	0	30	4.3625	2	0.63671875
2349.912109375	0.00833333333333333	0	-30	-8.79375	2	1.0380859375
2353.4365234375	0.00833333333333333	0	30	4.2375	1	1.2255859375
2356.720703125	0.00833333333333333	0	-30	-8.79375	1	27.974609375
2386.9853515625	0.00833333333333333	0	30	4.2375	1	0.837890625
2390.2197265625	0.00833333333333333	0	30	4.2375	1	1.3876953125
2393.84375	0.00833333333333333	0	30	4.2375	1	0.7236328125
2397.111328125	0.00833333333333333	0	-30	-8.79375	2	0.888671875
2400.2197265625	0.00833333333333333	0	-30	-8.79375	2	2.4521484375
2405.14453125	0.00833333333333333	0	30	4.2375	1	0.7587890625
2407.9951171875	0.00833333333333333	0	-30	-8.79375	1	0.6533203125
2410.8193359375	0.00833333333333333	0	-30	-8.79375	2	2.1083984375
2415.1865234375	0.00833333333333333	0	-30	-8.79375	1	1.2060546875
2418.7353515625	0.00833333333333333	0	30	4.3625	1	0.80078125
2421.611328125	0.00833333333333333	0	30	4.3625	2	0.7734375
2424.5517578125	0.00833333333333333	0	30	4.3625	1	0.5927734375
2427.5947265625	0.00833333333333333	0	-30	-8.79375	1	0.7421875
2430.4443359375	0.00833333333333333	0	-30	-8.79375	1	0.6279296875
2433.1611328125	0.00833333333333333	0	-30	-8.79375	1	0.8154296875
2436.427734375	0.00833333333333333	0	-30	-8.79375	1	0.6689453125
2439.3779296875	0.00833333333333333	0	30	4.3625	1	0.6552734375
2442.376953125	0.00833333333333333	0	-30	-8.66875	2	0.544921875
2445.185546875	0.00833333333333333	0	30	4.3625	2	0.599609375
2447.8935546875	0.00833333333333333	0	30	4.3625	2	0.8359375
2451.0107421875	0.00833333333333333	0	-30	-8.66875	1	0.7744140625
2454.060546875	0.00833333333333333	0	30	4.3625	2	0.6689453125
2457.1435546875	0.00833333333333333	0	-30	-8.66875	1	1.578125
2461.0341796875	0.00833333333333333	0	30	4.3625	1	0.7275390625
2464.0439453125	0.00833333333333333	0	30	4.3625	2	0.677734375
2466.8857421875	0.00833333333333333	0	30	4.3625	1	0.6201171875
2469.994140625	0.00833333333333333	0	-30	-8.66875	1	0.9677734375
2473.21875	0.00833333333333333	0	-30	-8.66875	1	5.439453125
2481.001953125	0.00833333333333333	0	-30	-8.66875	1	0.83203125
2484.142578125	0.00833333333333333	0	30	4.3625	1	0.7958984375
2487.0927734375	0.00833333333333333	0	-30	-8.54375	1	0.7978515625
2489.96875	0.00833333333333333	0	30	4.3625	2	0.8896484375
2493.001953125	0.00833333333333333	0	30	4.3625	2	1.0087890625
2496.484375	0.00833333333333333	0	-30	-8.54375	2	0.7421875
2499.8095703125	0.00833333333333333	0	30	4.3625	1	0.78515625
2502.78515625	0.00833333333333333	0	-30	-8.54375	2	0.9697265625
2506.134765625	0.00833333333333333	0	30	4.3625	1	0.8359375
2509.326171875	0.00833333333333333	0	-30	-8.54375	2	2.1650390625
2513.951171875	0.00833333333333333	0	-30	-8.54375	2	1.5
2517.66796875	0.00833333333333333	0	30	4.3625	1	1.087890625
2520.8515625	0.00833333333333333	0	30	4.3625	1	0.896484375
2524.0927734375	0.00833333333333333	0	-30	-8.54375	2	0.791015625
2527.4423828125	0.00833333333333333	0	-30	-8.66875	1	0.76953125
2530.759765625	0.00833333333333333	0	30	4.3625	1	0.8125
2533.841796875	0.00833333333333333	0	30	4.4875	1	2.2265625
2538.275390625	0.00833333333333333	0	30	4.4875	2	1.041015625
2541.724609375	0.00833333333333333	0	-30	-8.66875	2	1.51953125
2545.7421875	0.00833333333333333	0	30	4.4875	1	1.1103515625
2549.17578125	0.00833333333333333	0	30	4.4875	2	0.6923828125
2552.2255859375	0.00833333333333333	0	-30	-8.66875	1	1.8828125
2556.4912109375	0.00833333333333333	0	30	4.4875	2	0.8740234375
2559.701171875	0.00833333333333333	0	-30	-8.66875	1	1.3203125
2563.2080078125	0.00833333333333333	0	30	4.4875	2	0.9013671875
2566.5908203125	0.00833333333333333	0	30	4.4875	2	0.7099609375
2569.5419921875	0.00833333333333333	0	30	4.4875	2	0.86328125
2572.8671875	0.00833333333333333	0	-30	-8.66875	2	1.7939453125
2577.2333984375	0.00833333333333333	0	30	4.3625	1	0.8203125
2589.0673828125	0.00833333333333333	0	-30	-8.66875	1	0.6904296875
2592.0498046875	0.00833333333333333	0	30	4.3625	2	0.8125
2595.1337890625	0.00833333333333333	0	30	4.3625	2	0.8076171875
2598.18359375	0.00833333333333333	0	-30	-8.66875	1	0.6787109375
2601.05859375	0.00833333333333333	0	-30	-8.66875	2	0.67578125
2603.966796875	0.00833333333333333	0	-30	-8.66875	1	0.85546875
2607.2080078125	0.00833333333333333	0	30	4.3625	2	1.4462890625
2611.0830078125	0.00833333333333333	0	30	4.3625	1	0.779296875
2614.283203125	0.00833333333333333	0	-30	-8.66875	2	0.7392578125
2617.4833984375	0.00833333333333333	0	30	4.3625	2	1.53125
2621.291015625	0.00833333333333333	0	30	4.3625	2	0.9794921875
2624.5	0.00833333333333333	0	30	4.3625	1	0.69140625
2627.474609375	0.00833333333333333	0	-30	-8.66875	2	0.7724609375
2630.423828125	0.00833333333333333	0	-30	-8.66875	2	1.0068359375
2634.0166015625	0.00833333333333333	0	-30	-8.66875	2	1.0146484375
2637.541015625	0.00833333333333333	0	30	4.3625	1	0.8818359375
2640.7236328125	0.00833333333333333	0	30	4.3625	1	1.3076171875
2644.1650390625	0.00833333333333333	0	30	4.3625	1	1.2109375
2647.4658203125	0.00833333333333333	0	30	4.3625	1	0.8134765625
2650.6572265625	0.00833333333333333	0	30	4.4875	1	1.2548828125
2654.3154296875	0.00833333333333333	0	-30	-8.66875	2	0.8369140625
2657.5576171875	0.00833333333333333	0	30	4.4875	1	0.7783203125
2660.849609375	0.00833333333333333	0	-30	-8.79375	2	0.6943359375
2663.6572265625	0.00833333333333333	0	30	4.4875	1	0.7431640625
2666.95703125	0.00833333333333333	0	30	4.4875	1	0.8193359375
2670.0654296875	0.00833333333333333	0	30	4.4875	1	0.7587890625
2672.8994140625	0.00833333333333333	0	30	4.6125	1	1.95703125
2676.939453125	0.00833333333333333	0	30	4.6125	1	0.7646484375
2680.07421875	0.00833333333333333	0	-30	-8.79375	1	1.150390625
2683.3486328125	0.00833333333333333	0	-30	-8.79375	2	0.67578125
2686.1904296875	0.00833333333333333	0	-30	-8.79375	1	0.74609375
2689.0224609375	0.00833333333333333	0	30	4.6125	1	1.90625
2693.181640625	0.00833333333333333	0	30	4.6125	2	0.939453125
2696.3740234375	0.00833333333333333	0	30	4.6125	2	0.8837890625
2699.6396484375	0.00833333333333333	0	-30	-8.79375	2	0.9296875
2702.6904296875	0.00833333333333333	0	30	4.6125	1	0.9990234375
2705.8818359375	0.00833333333333333	0	-30	-8.79375	2	1.935546875
2709.9150390625	0.00833333333333333	0	-30	-8.79375	2	0.9501953125
2713.3818359375	0.00833333333333333	0	30	4.6125	2	0.8515625
2716.58203125	0.00833333333333333	0	-30	-8.79375	2	0.7880859375
2719.615234375	0.00833333333333333	0	-30	-8.79375	2	0.71484375
2722.8486328125	0.00833333333333333	0	30	4.6125	1	0.7294921875
2725.7236328125	0.00833333333333333	0	-30	-8.91875	1	0.830078125
2728.7568359375	0.00833333333333333	0	30	4.6125	1	0.8212890625
2731.90625	0.00833333333333333	0	30	4.6125	2	0.705078125
2734.7314453125	0.00833333333333333	0	30	4.6125	2	1.462890625
2738.7646484375	0.00833333333333333	0	30	4.6125	2	1.2060546875
2742.4482421875	0.00833333333333333	0	30	4.6125	2	0.74609375
2745.5224609375	0.00833333333333333	0	-30	-8.91875	2	0.7607421875
2748.73046875	0.00833333333333333	0	30	4.6125	1	0.6484375
2751.8134765625	0.00833333333333333	0	-30	-8.91875	1	0.701171875
2755.0556640625	0.00833333333333333	0	30	4.6125	2	0.859375
2758.3896484375	0.00833333333333333	0	30	4.6125	2	1.453125
2762.1142578125	0.00833333333333333	0	-30	-8.91875	2	0.6806640625
2764.947265625	0.00833333333333333	0	-30	-8.91875	1	2.064453125
2769.40625	0.00833333333333333	0	-30	-8.91875	2	0.7333984375
2772.5478515625	0.00833333333333333	0	-30	-8.91875	2	1.16796875
2775.85546875	0.00833333333333333	0	-30	-8.91875	2	0.7880859375
2779.189453125	0.00833333333333333	0	30	4.6125	1	0.7265625
2782.09765625	0.00833333333333333	0	30	4.6125	1	0.986328125
2785.564453125	0.00833333333333333	0	-30	-8.91875	1	0.7119140625
2788.4638671875	0.00833333333333333	0	30	4.6125	2	0.7724609375
2791.6884765625	0.00833333333333333	0	30	4.6125	1	0.931640625
2794.8134765625	0.00833333333333333	0	-30	-8.91875	1	1.1826171875
2798.23046875	0.00833333333333333	0	-30	-8.91875	2	0.91796875
2801.3720703125	0.00833333333333333	0	30	4.6125	2	2.2646484375
2805.86328125	0.00833333333333333	0	-30	-8.91875	2	0.7412109375
2808.85546875	0.00833333333333333	0	-30	-8.91875	1	0.6767578125
2811.646484375	0.00833333333333333	0	-30	-8.91875	1	0.734375
2814.9140625	0.00833333333333333	0	30	4.6125	1	1.5791015625
2818.8134765625	0.00833333333333333	0	-30	-8.91875	2	0.767578125
2822.146484375	0.00833333333333333	0	-30	-8.91875	2	0.9306640625
2825.455078125	0.00833333333333333	0	-30	-8.91875	1	0.6220703125
2828.1875	0.00833333333333333	0	-30	-8.91875	1	1.2255859375
2831.86328125	0.00833333333333333	0	30	4.6125	2	0.662109375
2834.763671875	0.00833333333333333	0	-30	-8.91875	1	0.7138671875
2837.8544921875	0.00833333333333333	0	30	4.6125	2	0.7353515625
2840.7705078125	0.00833333333333333	0	30	4.6125	1	0.8916015625
2843.7880859375	0.00833333333333333	0	30	4.6125	2	0.7060546875
2847.0537109375	0.00833333333333333	0	30	4.6125	1	0.751953125
2864.453125	0.00833333333333333	0	-30	-8.91875	1	1.9296875
2868.7626953125	0.00833333333333333	0	-30	-8.91875	2	0.828125
2871.9462890625	0.00833333333333333	0	30	4.6125	1	0.9248046875
2874.970703125	0.00833333333333333	0	-30	-8.91875	2	0.66796875
2877.720703125	0.00833333333333333	0	30	4.6125	1	0.662109375
2880.6044921875	0.00833333333333333	0	-30	-8.91875	2	0.7705078125
2883.9287109375	0.00833333333333333	0	30	4.6125	1	0.6787109375
2886.9873046875	0.00833333333333333	0	30	4.6125	1	1.68359375
2891.0703125	0.00833333333333333	0	-30	-8.91875	1	1.3046875
2894.7626953125	0.00833333333333333	0	30	4.7375	2	0.732421875
2897.6708984375	0.00833333333333333	0	-30	-8.91875	1	0.6884765625
2900.5703125	0.00833333333333333	0	30	4.7375	2	0.685546875
2903.6787109375	0.00833333333333333	0	30	4.7375	1	0.6572265625
2906.404296875	0.00833333333333333	0	-30	-8.91875	1	1.1474609375
2910.01953125	0.00833333333333333	0	-30	-8.91875	2	0.6923828125
2912.9375	0.00833333333333333	0	-30	-8.91875	2	0.55078125
2915.9287109375	0.00833333333333333	0	-30	-8.91875	1	0.623046875
2918.8623046875	0.00833333333333333	0	30	4.7375	1	0.7216796875
2921.669921875	0.00833333333333333	0	30	4.7375	1	0.794921875
2924.595703125	0.00833333333333333	0	30	4.7375	1	0.7724609375
2927.6953125	0.00833333333333333	0	30	4.7375	1	0.712890625
2930.611328125	0.00833333333333333	0	30	4.8625	2	1.685546875
2934.6953125	0.00833333333333333	0	30	4.8625	1	8.2099609375
2945.3037109375	0.00833333333333333	0	30	4.8625	2	0.9931640625
2948.5693359375	0.00833333333333333	0	-30	-8.91875	1	1.2236328125
2952.2529296875	0.00833333333333333	0	-30	-8.91875	2	0.6845703125
2955.13671875	0.00833333333333333	0	30	4.8625	2	0.712890625
2958.078125	0.00833333333333333	0	-30	-8.91875	2	0.69921875
2961.3193359375	0.00833333333333333	0	30	4.8625	2	0.666015625
2964.2861328125	0.00833333333333333	0	-30	-8.91875	2	0.787109375
2967.244140625	0.00833333333333333	0	-30	-8.91875	1	0.7021484375
2970.302734375	0.00833333333333333	0	-30	-8.91875	2	0.779296875
2973.3193359375	0.00833333333333333	0	30	4.8625	2	0.810546875
2976.27734375	0.00833333333333333	0	30	4.8625	2	0.6689453125
2979.1435546875	0.00833333333333333	0	-30	-8.91875	1	0.5625
2981.7607421875	0.00833333333333333	0	-30	-8.91875	2	0.6171875
2984.7607421875	0.00833333333333333	0	30	4.7375	2	0.9453125
2987.8525390625	0.00833333333333333	0	30	4.7375	2	0.853515625
2991.0107421875	0.00833333333333333	0	30	4.7375	1	1.2880859375
2994.7021484375	0.00833333333333333	0	-30	-8.91875	2	0.9169921875
2998.1767578125	0.00833333333333333	0	-30	-8.91875	2	0.75390625
3001.39453125	0.00833333333333333	0	-30	-8.91875	2	0.80859375
3004.6611328125	0.00833333333333333	0	-30	-8.91875	2	1.501953125
3008.5849609375	0.00833333333333333	0	30	4.7375	2	0.7216796875
3011.7021484375	0.00833333333333333	0	30	4.7375	1	0.8046875
3014.77734375	0.00833333333333333	0	30	4.7375	2	0.673828125
3017.7685546875	0.00833333333333333	0	30	4.7375	2	0.794921875
3020.7607421875	0.00833333333333333	0	30	4.7375	2	0.9951171875
3024.3359375	0.00833333333333333	0	-30	-9.04375	1	1.0205078125
3027.6357421875	0.00833333333333333	0	30	4.7375	2	0.736328125
3030.9267578125	0.00833333333333333	0	-30	-9.04375	2	1.2373046875
3034.7353515625	0.00833333333333333	0	30	4.7375	1	1.0283203125
3037.9521484375	0.00833333333333333	0	-30	-9.04375	2	0.6201171875
3041.0439453125	0.00833333333333333	0	30	4.7375	2	0.6962890625
3044.28515625	0.00833333333333333	0	-30	-9.04375	1	0.5107421875
3047.03515625	0.00833333333333333	0	30	4.7375	2	0.7607421875
3050.259765625	0.00833333333333333	0	30	4.7375	2	0.6806640625
3053.2353515625	0.00833333333333333	0	-30	-9.04375	1	0.720703125
3056.1015625	0.00833333333333333	0	-30	-9.04375	2	0.7109375
3059.16796875	0.00833333333333333	0	30	4.7375	2	0.8203125
3062.3017578125	0.00833333333333333	0	30	4.7375	1	0.7353515625
3065.4677734375	0.00833333333333333	0	30	4.7375	2	0.7294921875
3068.634765625	0.00833333333333333	0	30	4.7375	2	0.74609375
3071.7509765625	0.00833333333333333	0	-30	-9.04375	1	0.7021484375
3074.818359375	0.00833333333333333	0	30	4.7375	2	0.72265625
3077.759765625	0.00833333333333333	0	30	4.7375	2	0.685546875
3080.8681640625	0.00833333333333333	0	-30	-9.04375	1	0.7451171875
3083.8681640625	0.00833333333333333	0	-30	-9.04375	1	1.0576171875
3087.076171875	0.00833333333333333	0	-30	-9.04375	1	0.6650390625
3090.134765625	0.00833333333333333	0	30	4.7375	2	0.806640625
3093.6513671875	0.00833333333333333	0	-30	-9.04375	1	0.833984375
3097.05078125	0.00833333333333333	0	-30	-8.91875	1	1.9873046875
3101.3671875	0.00833333333333333	0	-30	-8.91875	2	0.6943359375
3104.6845703125	0.00833333333333333	0	-30	-8.91875	1	0.7216796875
3107.8173828125	0.00833333333333333	0	30	4.6125	1	2.94140625
3113.283203125	0.00833333333333333	0	30	4.6125	2	1.5234375
3117.0341796875	0.00833333333333333	0	30	4.6125	1	2.1484375
3121.5419921875	0.00833333333333333	0	30	4.6125	2	1.4482421875
3125.1669921875	0.00833333333333333	0	-30	-8.91875	1	0.7041015625
3127.9423828125	0.00833333333333333	0	-30	-8.91875	2	0.751953125
3195.7412109375	0.00833333333333333	0	-30	-8.91875	2	9.587890625
3207.8740234375	0.00833333333333333	0	-30	-8.91875	2	1.7119140625
3211.7646484375	0.00833333333333333	0	-30	-8.91875	1	0.8212890625
3215.0234375	0.00833333333333333	0	30	4.6125	2	0.75390625
3218.1240234375	0.00833333333333333	0	-30	-8.91875	1	1.0537109375
3221.3828125	0.00833333333333333	0	-30	-8.91875	2	0.634765625
3224.2158203125	0.00833333333333333	0	-30	-8.91875	2	0.72265625
3227.306640625	0.00833333333333333	0	-30	-8.91875	2	0.9111328125
3230.4990234375	0.00833333333333333	0	-30	-8.91875	2	0.703125
3233.6826171875	0.00833333333333333	0	-30	-8.91875	2	0.751953125
3236.57421875	0.00833333333333333	0	-30	-9.04375	2	0.8681640625
3240.041015625	0.00833333333333333	0	30	4.6125	2	0.689453125
3243.015625	0.00833333333333333	0	-30	-9.04375	2	1.05859375
3246.423828125	0.00833333333333333	0	30	4.6125	2	0.6826171875
3249.57421875	0.00833333333333333	0	30	4.6125	2	0.732421875
3252.8740234375	0.00833333333333333	0	-30	-9.04375	2	2.376953125
3257.365234375	0.00833333333333333	0	-30	-9.04375	2	1.181640625
3261.1318359375	0.00833333333333333	0	-30	-9.04375	2	1.095703125
3264.548828125	0.00833333333333333	0	30	4.4875	2	0.9033203125
3267.556640625	0.00833333333333333	0	-30	-9.16875	1	1.1748046875
3271.0234375	0.00833333333333333	0	30	4.4875	1	1.15625
3274.697265625	0.00833333333333333	0	30	4.4875	2	0.7939453125
3278.0146484375	0.00833333333333333	0	30	4.4875	2	0.9326171875
3281.5146484375	0.00833333333333333	0	-30	-9.16875	1	0.8095703125
3284.6484375	0.00833333333333333	0	30	4.4875	2	0.587890625
3287.4560546875	0.00833333333333333	0	30	4.4875	2	0.67578125
3290.5224609375	0.00833333333333333	0	30	4.4875	2	0.6494140625
3293.78125	0.00833333333333333	0	-30	-9.16875	2	0.958984375
3296.8984375	0.00833333333333333	0	30	4.3625	2	0.73828125
3299.7646484375	0.00833333333333333	0	-30	-9.16875	2	0.83203125
3303.0068359375	0.00833333333333333	0	-30	-9.16875	1	1.837890625
3306.9482421875	0.00833333333333333	0	30	4.3625	2	0.6884765625
3309.8232421875	0.00833333333333333	0	-30	-9.16875	1	0.6298828125
3312.681640625	0.00833333333333333	0	-30	-9.16875	1	0.8515625
3315.6064453125	0.00833333333333333	0	-30	-9.16875	1	0.6552734375
3318.748046875	0.00833333333333333	0	30	4.3625	1	1.2333984375
3322.130859375	0.00833333333333333	0	-30	-9.16875	1	0.74609375
3325.34765625	0.00833333333333333	0	-30	-9.04375	1	0.9619140625
3328.84765625	0.00833333333333333	0	-30	-9.04375	1	0.7978515625
3331.98046875	0.00833333333333333	0	-30	-9.04375	1	0.9765625
3335.0478515625	0.00833333333333333	0	30	4.3625	2	0.6455078125
3338.0146484375	0.00833333333333333	0	-30	-9.04375	1	0.6865234375
3340.97265625	0.00833333333333333	0	30	4.3625	1	1.1533203125
3344.5810546875	0.00833333333333333	0	30	4.3625	1	0.81640625
3347.5224609375	0.00833333333333333	0	30	4.3625	2	0.7470703125
3350.59765625	0.00833333333333333	0	-30	-9.04375	1	0.7841796875
3353.47265625	0.00833333333333333	0	30	4.3625	2	0.6689453125
3356.580078125	0.00833333333333333	0	-30	-8.91875	2	0.9541015625
3359.830078125	0.00833333333333333	0	30	4.3625	1	0.728515625
3362.7392578125	0.00833333333333333	0	30	4.3625	2	1.1953125
3366.3134765625	0.00833333333333333	0	-30	-8.91875	1	0.78125
3369.48046875	0.00833333333333333	0	30	4.3625	2	0.669921875
3372.4130859375	0.00833333333333333	0	-30	-8.91875	1	0.6171875
3375.546875	0.00833333333333333	0	30	4.3625	2	0.7958984375
3378.638671875	0.00833333333333333	0	-30	-8.91875	2	0.83203125
3381.9296875	0.00833333333333333	0	-30	-8.91875	1	3.173828125
3387.24609375	0.00833333333333333	0	-30	-8.91875	1	0.80078125
3390.447265625	0.00833333333333333	0	30	4.3625	2	0.576171875
3393.263671875	0.00833333333333333	0	30	4.3625	2	1.51953125
3397.013671875	0.00833333333333333	0	30	4.2375	2	0.9140625
3400.0634765625	0.00833333333333333	0	-30	-8.91875	1	2.4326171875
3404.8798828125	0.00833333333333333	0	-30	-8.91875	2	0.767578125
3408.0634765625	0.00833333333333333	0	30	4.2375	1	0.7685546875
3411.3046875	0.00833333333333333	0	30	4.2375	2	0.84765625
3414.2880859375	0.00833333333333333	0	30	4.2375	2	0.8486328125
3417.521484375	0.00833333333333333	0	30	4.2375	2	0.974609375
3420.8876953125	0.00833333333333333	0	30	4.2375	1	0.80859375
3423.8798828125	0.00833333333333333	0	-30	-8.91875	2	0.9130859375
3426.904296875	0.00833333333333333	0	30	4.2375	1	0.759765625
3429.8876953125	0.00833333333333333	0	-30	-8.91875	1	1.3046875
3433.3798828125	0.00833333333333333	0	-30	-8.91875	1	2.197265625
3437.8623046875	0.00833333333333333	0	30	4.2375	1	0.666015625
3440.75390625	0.00833333333333333	0	-30	-8.91875	1	0.8388671875
3443.87890625	0.00833333333333333	0	-30	-8.91875	2	0.666015625
3447.154296875	0.00833333333333333	0	-30	-8.91875	1	0.7744140625
3450.1044921875	0.00833333333333333	0	30	4.2375	2	1.072265625
3453.5458984375	0.00833333333333333	0	-30	-8.91875	1	0.84765625
3456.9541015625	0.00833333333333333	0	30	4.2375	1	1.599609375
3461.00390625	0.00833333333333333	0	30	4.2375	2	0.6533203125
3463.8544921875	0.00833333333333333	0	30	4.2375	2	0.947265625
3477.3623046875	0.00833333333333333	0	30	4.2375	1	3.4638671875
3482.9033203125	0.00833333333333333	0	-30	-8.91875	1	0.7392578125
3486.01953125	0.00833333333333333	0	-30	-8.91875	2	0.5751953125
3488.736328125	0.00833333333333333	0	30	4.2375	2	1.3701171875
3492.1611328125	0.00833333333333333	0	30	4.2375	1	0.689453125
3495.0947265625	0.00833333333333333	0	30	4.2375	2	0.7236328125
3498.0029296875	0.00833333333333333	0	-30	-8.91875	1	0.6162109375
3500.8955078125	0.00833333333333333	0	30	4.2375	1	0.8515625
3504.287109375	0.00833333333333333	0	30	4.2375	2	0.931640625
3507.419921875	0.00833333333333333	0	-30	-8.91875	1	0.54296875
3510.3115234375	0.00833333333333333	0	30	4.2375	1	1.1640625
3513.8037109375	0.00833333333333333	0	-30	-8.91875	1	1.03125
3516.9619140625	0.00833333333333333	0	30	4.2375	1	0.8818359375
3520.39453125	0.00833333333333333	0	30	4.2375	1	0.896484375
3523.736328125	0.00833333333333333	0	30	4.2375	2	0.7314453125
3526.861328125	0.00833333333333333	0	-30	-8.91875	1	1.7900390625
3530.935546875	0.00833333333333333	0	-30	-8.91875	2	1.4921875
3534.9443359375	0.00833333333333333	0	30	4.2375	1	0.7470703125
3537.7939453125	0.00833333333333333	0	30	4.2375	2	0.59375
3540.736328125	0.00833333333333333	0	-30	-8.91875	1	1.443359375
3544.626953125	0.00833333333333333	0	30	4.2375	2	0.705078125
3547.7197265625	0.00833333333333333	0	30	4.2375	2	0.6611328125
3550.90234375	0.00833333333333333	0	30	4.2375	2	0.646484375
3553.7861328125	0.00833333333333333	0	-30	-8.91875	1	0.658203125
3556.869140625	0.00833333333333333	0	30	4.2375	2	0.7119140625
3559.90234375	0.00833333333333333	0	30	4.1125	2	0.734375
3563.0927734375	0.00833333333333333	0	-30	-8.91875	2	1.015625
3566.5185546875	0.00833333333333333	0	30	4.1125	1	3.0546875
3571.9853515625	0.00833333333333333	0	30	4.1125	2	0.611328125
3574.9609375	0.00833333333333333	0	30	4.1125	1	1.068359375
3578.3271484375	0.00833333333333333	0	30	4.1125	2	0.669921875
3581.3017578125	0.00833333333333333	0	-30	-8.91875	1	0.6630859375
3584.1767578125	0.00833333333333333	0	-30	-8.91875	1	0.8525390625
3587.3271484375	0.00833333333333333	0	30	4.1125	2	0.75
3590.6357421875	0.00833333333333333	0	30	4.1125	2	1.41015625
3594.3857421875	0.00833333333333333	0	-30	-8.91875	1	0.6435546875
3597.2685546875	0.00833333333333333	0	30	4.1125	1	1.513671875
3600.9599609375	0.00833333333333333	0	-30	-8.91875	1	0.6943359375
3604.1103515625	0.00833333333333333	0	-30	-8.91875	1	0.82421875
3607.259765625	0.00833333333333333	0	-30	-8.79375	1	1.07421875
3610.4765625	0.00833333333333333	0	30	4.1125	2	0.6982421875
3613.443359375	0.00833333333333333	0	30	4.1125	2	0.7314453125
3616.7021484375	0.00833333333333333	0	-30	-8.79375	2	0.912109375
3619.9169921875	0.00833333333333333	0	-30	-8.79375	2	2.1298828125
3624.59375	0.00833333333333333	0	30	4.1125	2	0.5810546875
3627.5849609375	0.00833333333333333	0	30	4.1125	1	0.60546875
3630.5263671875	0.00833333333333333	0	-30	-8.79375	1	1.5205078125
3634.359375	0.00833333333333333	0	-30	-8.79375	1	0.83984375
3637.443359375	0.00833333333333333	0	-30	-8.79375	1	0.916015625
3640.53515625	0.00833333333333333	0	30	4.1125	2	0.6484375
3643.609375	0.00833333333333333	0	-30	-8.79375	2	1.91796875
3647.8173828125	0.00833333333333333	0	-30	-8.79375	2	1.1337890625
3651.5263671875	0.00833333333333333	0	-30	-8.79375	1	5.3291015625
3659.142578125	0.00833333333333333	0	30	4.1125	2	0.712890625
3662.076171875	0.00833333333333333	0	30	4.1125	1	1.083984375
3665.326171875	0.00833333333333333	0	30	4.1125	2	0.76953125
3668.54296875	0.00833333333333333	0	30	4.1125	2	0.7216796875
3671.333984375	0.00833333333333333	0	-30	-8.79375	1	1.146484375
3674.7255859375	0.00833333333333333	0	-30	-8.79375	2	1.3310546875
3678.208984375	0.00833333333333333	0	30	4.1125	1	0.85546875
3681.5009765625	0.00833333333333333	0	-30	-8.79375	1	2.900390625
3686.5498046875	0.00833333333333333	0	30	4.1125	1	0.9306640625
3689.775390625	0.00833333333333333	0	-30	-8.79375	2	1.0810546875
3693.234375	0.00833333333333333	0	30	4.1125	1	1.455078125
3697.0009765625	0.00833333333333333	0	30	4.1125	1	0.83203125
3700.1171875	0.00833333333333333	0	30	4.1125	1	0.8515625
3703.349609375	0.00833333333333333	0	30	4.2375	1	2.091796875
3707.708984375	0.00833333333333333	0	30	4.2375	2	2.15625
3712.43359375	0.00833333333333333	0	-30	-8.79375	1	0.8798828125
3715.6416015625	0.00833333333333333	0	-30	-8.79375	1	2.400390625
3720.1669921875	0.00833333333333333	0	-30	-8.79375	1	1.04296875
3723.81640625	0.00833333333333333	0	-30	-8.79375	1	0.8017578125
3726.7587890625	0.00833333333333333	0	-30	-8.79375	1	0.69921875
3729.9169921875	0.00833333333333333	0	-30	-8.66875	1	0.7490234375
3733.06640625	0.00833333333333333	0	-30	-8.66875	2	2.2314453125
3737.6494140625	0.00833333333333333	0	30	4.2375	2	0.6806640625
3740.69921875	0.00833333333333333	0	-30	-8.66875	1	0.6796875
3743.75	0.00833333333333333	0	30	4.2375	1	4.796875
3750.6162109375	0.00833333333333333	0	30	4.2375	2	0.73828125
3753.474609375	0.00833333333333333	0	30	4.2375	1	1.744140625
3771.607421875	0.00833333333333333	0	-30	-8.66875	2	2.0439453125
3776.1328125	0.00833333333333333	0	30	4.2375	2	1.4462890625
3780.1826171875	0.00833333333333333	0	-30	-8.66875	1	0.5966796875
3783.291015625	0.00833333333333333	0	-30	-8.66875	1	0.552734375
3786.0654296875	0.00833333333333333	0	30	4.2375	2	0.8740234375
3789.416015625	0.00833333333333333	0	-30	-8.66875	1	0.5478515625
3792.1904296875	0.00833333333333333	0	-30	-8.66875	1	0.6611328125
3794.931640625	0.00833333333333333	0	-30	-8.66875	1	0.712890625
3798.140625	0.00833333333333333	0	30	4.2375	1	0.6552734375
3801.3408203125	0.00833333333333333	0	-30	-8.54375	1	0.6875
3804.5986328125	0.00833333333333333	0	30	4.2375	1	0.6298828125
3807.8154296875	0.00833333333333333	0	30	4.2375	1	0.708984375
3810.9990234375	0.00833333333333333	0	-30	-8.54375	1	0.7333984375
3814.056640625	0.00833333333333333	0	-30	-8.54375	1	0.6923828125
3817.0234375	0.00833333333333333	0	-30	-8.54375	1	0.701171875
3820.015625	0.00833333333333333	0	-30	-8.54375	1	0.5888671875
3822.8984375	0.00833333333333333	0	30	4.2375	1	0.7783203125
3825.8984375	0.00833333333333333	0	-30	-8.41875	1	0.6826171875
3828.8232421875	0.00833333333333333	0	30	4.2375	2	0.654296875
3831.623046875	0.00833333333333333	0	30	4.2375	1	0.6865234375
3834.4404296875	0.00833333333333333	0	30	4.2375	2	0.7333984375
3837.3564453125	0.00833333333333333	0	-30	-8.41875	1	0.5693359375
3840.0234375	0.00833333333333333	0	-30	-8.41875	2	0.734375
3843.2568359375	0.00833333333333333	0	30	4.2375	2	1.205078125
3846.53125	0.00833333333333333	0	-30	-8.41875	1	0.5869140625
3849.6064453125	0.00833333333333333	0	30	4.2375	2	0.671875
3852.40625	0.00833333333333333	0	-30	-8.41875	1	2.2001953125
3856.814453125	0.00833333333333333	0	30	4.2375	2	0.5439453125
3859.83984375	0.00833333333333333	0	30	4.2375	1	1.078125
3863.21484375	0.00833333333333333	0	30	4.2375	1	0.958984375
3866.814453125	0.00833333333333333	0	30	4.2375	2	1.080078125
3870.3984375	0.00833333333333333	0	-30	-8.41875	2	1.51171875
3873.998046875	0.00833333333333333	0	-30	-8.41875	1	0.736328125
3876.873046875	0.00833333333333333	0	-30	-8.41875	2	1.5654296875
3880.806640625	0.00833333333333333	0	-30	-8.41875	1	1.384765625
3884.5556640625	0.00833333333333333	0	-30	-8.41875	2	0.939453125
3887.59765625	0.00833333333333333	0	-30	-8.41875	2	0.7060546875
3890.623046875	0.00833333333333333	0	30	4.2375	1	1.080078125
3894.1064453125	0.00833333333333333	0	30	4.2375	2	0.62109375
3897.2978515625	0.00833333333333333	0	-30	-8.41875	2	0.6376953125
3900.3310546875	0.00833333333333333	0	-30	-8.41875	2	0.62890625
3903.1142578125	0.00833333333333333	0	-30	-8.41875	2	0.9091796875
3906.197265625	0.00833333333333333	0	30	4.2375	1	0.7138671875
3909.2724609375	0.00833333333333333	0	-30	-8.54375	2	0.52734375
3911.9140625	0.00833333333333333	0	30	4.2375	2	0.734375
3914.763671875	0.00833333333333333	0	-30	-8.54375	2	0.572265625
3917.7060546875	0.00833333333333333	0	-30	-8.54375	1	0.7744140625
3920.7060546875	0.00833333333333333	0	-30	-8.54375	2	0.6220703125
3923.7216796875	0.00833333333333333	0	-30	-8.54375	2	1.310546875
3927.455078125	0.00833333333333333	0	-30	-8.54375	1	1.345703125
3931.046875	0.00833333333333333	0	30	4.2375	1	0.681640625
3934.0888671875	0.00833333333333333	0	-30	-8.54375	2	0.83984375
3937.296875	0.00833333333333333	0	30	4.2375	2	0.6162109375
3940.4052734375	0.00833333333333333	0	-30	-8.54375	1	0.69921875
3943.4873046875	0.00833333333333333	0	-30	-8.54375	1	0.77734375
3946.796875	0.00833333333333333	0	-30	-8.54375	2	0.6279296875
3949.60546875	0.00833333333333333	0	-30	-8.54375	2	0.7236328125
3952.6298828125	0.00833333333333333	0	-30	-8.54375	1	0.931640625
3956.1298828125	0.00833333333333333	0	30	4.2375	2	0.791015625
3959.5205078125	0.00833333333333333	0	-30	-8.54375	2	0.6728515625
3962.6044921875	0.00833333333333333	0	30	4.2375	1	0.724609375
3965.6552734375	0.00833333333333333	0	-30	-8.54375	2	0.5625
3968.5048828125	0.00833333333333333	0	-30	-8.54375	2	0.720703125
3971.5048828125	0.00833333333333333	0	30	4.2375	2	0.625
3974.3544921875	0.00833333333333333	0	30	4.2375	2	0.623046875
3977.2880859375	0.00833333333333333	0	-30	-8.54375	1	0.8017578125
3980.5546875	0.00833333333333333	0	30	4.2375	2	0.8076171875
3983.63671875	0.00833333333333333	0	-30	-8.54375	2	0.61328125
3986.7880859375	0.00833333333333333	0	30	4.2375	2	1.142578125
3990.4619140625	0.00833333333333333	0	30	4.2375	1	1.5244140625
3994.146484375	0.00833333333333333	0	30	4.2375	1	3.3525390625
3999.8701171875	0.00833333333333333	0	-30	-8.54375	1	0.7568359375
4003.2041015625	0.00833333333333333	0	-30	-8.54375	1	0.91015625
4006.478515625	0.00833333333333333	0	30	4.2375	1	1.7568359375
4010.478515625	0.00833333333333333	0	-30	-8.54375	1	0.716796875
4013.3779296875	0.00833333333333333	0	30	4.2375	2	0.697265625
4016.203125	0.00833333333333333	0	30	4.2375	2	0.9765625
4019.4287109375	0.00833333333333333	0	-30	-8.54375	2	1.1904296875
4023.154296875	0.00833333333333333	0	-30	-8.54375	1	0.625
4026.01171875	0.00833333333333333	0	30	4.2375	1	0.736328125
4045.361328125	0.00833333333333333	0	30	4.2375	2	1.2666015625
4048.787109375	0.00833333333333333	0	-30	-8.54375	1	0.5615234375
4051.64453125	0.00833333333333333	0	-30	-8.54375	1	1.759765625
4055.5703125	0.00833333333333333	0	30	4.2375	1	0.841796875
4058.703125	0.00833333333333333	0	30	4.2375	2	0.708984375
4061.7451171875	0.00833333333333333	0	-30	-8.54375	2	0.8037109375
4064.912109375	0.00833333333333333	0	30	4.2375	1	0.6845703125
4067.861328125	0.00833333333333333	0	-30	-8.54375	1	0.5595703125
4070.619140625	0.00833333333333333	0	30	4.2375	1	0.689453125
4073.7451171875	0.00833333333333333	0	30	4.2375	1	0.6357421875
4076.9033203125	0.00833333333333333	0	-30	-8.54375	1	0.7021484375
4079.9697265625	0.00833333333333333	0	-30	-8.54375	1	1.3076171875
4083.6953125	0.00833333333333333	0	30	4.2375	1	0.646484375
4086.677734375	0.00833333333333333	0	-30	-8.54375	1	0.7197265625
4089.802734375	0.00833333333333333	0	30	4.2375	1	0.626953125
4092.6943359375	0.00833333333333333	0	30	4.3625	1	0.5595703125
4095.5947265625	0.00833333333333333	0	30	4.3625	1	0.9951171875
4098.7197265625	0.00833333333333333	0	30	4.3625	1	0.669921875
4101.7275390625	0.00833333333333333	0	30	4.3625	1	0.8466796875
4104.828125	0.00833333333333333	0	30	4.3625	1	0.7861328125
4107.7529296875	0.00833333333333333	0	30	4.4875	1	0.59765625
4110.89453125	0.00833333333333333	0	-30	-8.54375	1	0.599609375
4113.869140625	0.00833333333333333	0	30	4.4875	1	1.4169921875
4117.3525390625	0.00833333333333333	0	30	4.4875	1	1.501953125
4121.15234375	0.00833333333333333	0	-30	-8.41875	1	0.7099609375
4123.9775390625	0.00833333333333333	0	-30	-8.41875	1	0.8212890625
4127.3271484375	0.00833333333333333	0	30	4.4875	1	0.8232421875
4130.4775390625	0.00833333333333333	0	30	4.4875	1	0.7216796875
4133.28515625	0.00833333333333333	0	-30	-8.41875	1	0.6416015625
4136.2275390625	0.00833333333333333	0	30	4.6125	1	1.01171875
4139.3857421875	0.00833333333333333	0	-30	-8.41875	1	0.8291015625
4142.744140625	0.00833333333333333	0	-30	-8.41875	2	0.5595703125
4145.7021484375	0.00833333333333333	0	-30	-8.41875	1	5.0009765625
4152.876953125	0.00833333333333333	0	-30	-8.41875	2	0.71484375
4156.109375	0.00833333333333333	0	30	4.6125	2	1.07421875
4159.744140625	0.00833333333333333	0	30	4.6125	2	0.84765625
4162.9013671875	0.00833333333333333	0	-30	-8.41875	1	0.5625
4165.8515625	0.00833333333333333	0	-30	-8.41875	1	0.9248046875
4168.8681640625	0.00833333333333333	0	30	4.6125	1	0.8837890625
4171.884765625	0.00833333333333333	0	-30	-8.41875	1	0.8271484375
4174.876953125	0.00833333333333333	0	30	4.6125	2	0.84375
4177.7509765625	0.00833333333333333	0	30	4.6125	1	1.09765625
4180.9521484375	0.00833333333333333	0	-30	-8.41875	1	1.064453125
4184.517578125	0.00833333333333333	0	-30	-8.41875	1	0.8349609375
4187.8681640625	0.00833333333333333	0	-30	-8.29375	1	0.7646484375
4190.9013671875	0.00833333333333333	0	-30	-8.29375	1	2.02734375
4195.2763671875	0.00833333333333333	0	-30	-8.29375	2	0.6923828125
4198.0517578125	0.00833333333333333	0	-30	-8.29375	1	0.7255859375
4200.8349609375	0.00833333333333333	0	30	4.6125	2	0.7578125
4203.966796875	0.00833333333333333	0	-30	-8.29375	2	0.666015625
4206.767578125	0.00833333333333333	0	-30	-8.29375	2	0.8173828125
4210.0927734375	0.00833333333333333	0	30	4.6125	1	0.884765625
4213.3681640625	0.00833333333333333	0	30	4.6125	1	1.09765625
4216.9013671875	0.00833333333333333	0	-30	-8.29375	2	0.6123046875
4220.0341796875	0.00833333333333333	0	30	4.6125	2	0.927734375
4223.2177734375	0.00833333333333333	0	30	4.6125	2	0.7041015625
4226.3759765625	0.00833333333333333	0	30	4.6125	2	1.1220703125
4230.05078125	0.00833333333333333	0	-30	-8.29375	2	1.3271484375
4233.55859375	0.00833333333333333	0	30	4.6125	2	0.67578125
4236.609375	0.00833333333333333	0	30	4.6125	2	1.80859375
4240.5419921875	0.00833333333333333	0	30	4.4875	2	1.076171875
4243.8828125	0.00833333333333333	0	-30	-8.29375	1	0.7119140625
4246.9755859375	0.00833333333333333	0	-30	-8.29375	1	1.2509765625
4250.6328125	0.00833333333333333	0	30	4.4875	2	0.76171875
4253.734375	0.00833333333333333	0	-30	-8.29375	2	0.6845703125
4256.9921875	0.00833333333333333	0	30	4.4875	2	0.73046875
4261.6083984375	0.00833333333333333	0	30	4.4875	2	1.482421875
4265.333984375	0.00833333333333333	0	-30	-8.29375	1	2.6767578125
4270.150390625	0.00833333333333333	0	-30	-8.29375	1	0.8291015625
4273.525390625	0.00833333333333333	0	-30	-8.29375	1	0.91796875
4276.900390625	0.00833333333333333	0	-30	-8.29375	1	0.8076171875
4279.9921875	0.00833333333333333	0	30	4.4875	1	1.259765625
4283.7744140625	0.00833333333333333	0	30	4.4875	1	1.8134765625
4287.69140625	0.00833333333333333	0	-30	-8.29375	1	0.7763671875
4290.5576171875	0.00833333333333333	0	-30	-8.16875	1	1.0703125
4293.9580078125	0.00833333333333333	0	30	4.4875	2	0.734375
4296.9326171875	0.00833333333333333	0	30	4.4875	2	1.19921875
4300.5166015625	0.00833333333333333	0	-30	-8.16875	1	1.087890625
4304.1162109375	0.00833333333333333	0	-30	-8.16875	2	0.80859375
4307.43359375	0.00833333333333333	0	30	4.4875	2	0.890625
4340.3740234375	0.00833333333333333	0	-30	-8.16875	1	1.84765625
4344.4326171875	0.00833333333333333	0	30	4.4875	2	1.1572265625
4347.8330078125	0.00833333333333333	0	30	4.4875	1	2.6689453125
4352.58203125	0.00833333333333333	0	30	4.4875	1	1.111328125
4355.9326171875	0.00833333333333333	0	30	4.4875	2	0.7294921875
4359.173828125	0.00833333333333333	0	30	4.4875	1	0.6083984375
4362.21484375	0.00833333333333333	0	-30	-8.16875	1	1.240234375
4365.681640625	0.00833333333333333	0	30	4.4875	1	0.716796875
4368.6318359375	0.00833333333333333	0	30	4.4875	1	0.7265625
4371.8740234375	0.00833333333333333	0	30	4.4875	2	0.7001953125
4375.1240234375	0.00833333333333333	0	30	4.4875	1	0.5947265625
4377.8408203125	0.00833333333333333	0	30	4.4875	1	0.6298828125
4380.6640625	0.00833333333333333	0	-30	-8.16875	1	0.54296875
4383.306640625	0.00833333333333333	0	30	4.4875	1	0.66015625
4386.09765625	0.00833333333333333	0	-30	-8.16875	1	0.5732421875
4388.7568359375	0.00833333333333333	0	30	4.4875	1	0.59375
4391.5400390625	0.00833333333333333	0	30	4.4875	2	0.6826171875
4394.4404296875	0.00833333333333333	0	-30	-8.16875	1	1.287109375
4397.96484375	0.00833333333333333	0	30	4.4875	2	1.7783203125
4402.0986328125	0.00833333333333333	0	30	4.4875	1	1.2763671875
4405.490234375	0.00833333333333333	0	-30	-8.04375	2	1.61328125
4409.6396484375	0.00833333333333333	0	30	4.4875	1	1.83203125
4413.9736328125	0.00833333333333333	0	30	4.4875	1	2.0263671875
4418.20703125	0.00833333333333333	0	30	4.4875	2	0.7607421875
4421.22265625	0.00833333333333333	0	-30	-8.04375	1	0.76953125
4424.439453125	0.00833333333333333	0	30	4.4875	2	1.705078125
4428.47265625	0.00833333333333333	0	-30	-8.04375	1	1.6796875
4432.21484375	0.00833333333333333	0	-30	-8.04375	1	1.9140625
4436.5478515625	0.00833333333333333	0	30	4.4875	1	0.845703125
4439.7392578125	0.00833333333333333	0	30	4.4875	2	1.26953125
4443.306640625	0.00833333333333333	0	-30	-8.04375	2	1.822265625
4447.447265625	0.00833333333333333	0	30	4.4875	2	1.08203125
4450.822265625	0.00833333333333333	0	30	4.4875	2	1.5390625
4454.9560546875	0.00833333333333333	0	-30	-8.04375	1	0.9970703125
4458.2890625	0.00833333333333333	0	30	4.4875	2	1.6396484375
4462.439453125	0.00833333333333333	0	-30	-8.04375	1	1.009765625
4465.9970703125	0.00833333333333333	0	-30	-8.04375	2	0.8759765625
4469.09765625	0.00833333333333333	0	30	4.4875	1	1.263671875
4472.8310546875	0.00833333333333333	0	-30	-8.04375	1	1.4033203125
4476.322265625	0.00833333333333333	0	-30	-8.04375	1	1.119140625
4479.72265625	0.00833333333333333	0	30	4.4875	1	1.287109375
4483.255859375	0.00833333333333333	0	30	4.4875	2	0.890625
4486.2890625	0.00833333333333333	0	30	4.4875	1	0.9775390625
4489.60546875	0.00833333333333333	0	30	4.4875	2	0.7890625
4492.9384765625	0.00833333333333333	0	-30	-8.04375	1	0.8955078125
4495.8974609375	0.00833333333333333	0	-30	-8.04375	1	0.79296875
4498.9052734375	0.00833333333333333	0	30	4.4875	1	1.025390625
4502.0556640625	0.00833333333333333	0	-30	-8.04375	2	2.5947265625
4506.98046875	0.00833333333333333	0	-30	-8.04375	1	0.646484375
4509.9638671875	0.00833333333333333	0	-30	-8.04375	1	0.86328125
4513.330078125	0.00833333333333333	0	30	4.4875	2	0.4892578125
4516.23828125	0.00833333333333333	0	-30	-8.04375	1	0.4931640625
4518.896484375	0.00833333333333333	0	30	4.4875	1	0.634765625
4521.9794921875	0.00833333333333333	0	-30	-8.04375	1	0.5673828125
4524.98046875	0.00833333333333333	0	-30	-8.04375	2	0.798828125
4527.955078125	0.00833333333333333	0	30	4.4875	2	0.736328125
4531.0537109375	0.00833333333333333	0	30	4.4875	2	0.6142578125
4534.146484375	0.00833333333333333	0	-30	-8.04375	1	0.6572265625
4537.171875	0.00833333333333333	0	30	4.4875	1	0.8876953125
4540.404296875	0.00833333333333333	0	-30	-8.04375	2	2.095703125
4544.712890625	0.00833333333333333	0	30	4.4875	2	1.04296875
4548.3212890625	0.00833333333333333	0	30	4.4875	1	0.6748046875
4551.154296875	0.00833333333333333	0	-30	-8.04375	2	1.017578125
4554.2216796875	0.00833333333333333	0	30	4.4875	2	0.7421875
4557.5625	0.00833333333333333	0	-30	-8.04375	1	0.6181640625
4560.1875	0.00833333333333333	0	-30	-8.04375	1	1.041015625
4563.5458984375	0.00833333333333333	0	-30	-8.04375	1	1.5791015625
4567.5126953125	0.00833333333333333	0	30	4.4875	2	0.7080078125
4570.75390625	0.00833333333333333	0	30	4.4875	2	0.875
4574.1123046875	0.00833333333333333	0	-30	-8.04375	2	3.125
4579.6708984375	0.00833333333333333	0	-30	-8.04375	1	1.0224609375
4582.9873046875	0.00833333333333333	0	30	4.4875	2	0.681640625
4586.2041015625	0.00833333333333333	0	-30	-8.04375	1	0.9052734375
4589.2705078125	0.00833333333333333	0	30	4.4875	2	0.8544921875
4592.7275390625	0.00833333333333333	0	-30	-8.04375	1	1.078125
4595.9208984375	0.00833333333333333	0	-30	-8.04375	1	0.94921875
4599.3291015625	0.00833333333333333	0	-30	-8.04375	2	1.541015625
4603.14453125	0.00833333333333333	0	30	4.3625	2	0.876953125
4606.5947265625	0.00833333333333333	0	-30	-8.04375	2	0.71484375
4609.4541015625	0.00833333333333333	0	30	4.3625	2	0.6640625
4620.3525390625	0.00833333333333333	0	-30	-8.04375	1	1.75
4624.2119140625	0.00833333333333333	0	30	4.3625	2	0.642578125
4627.1025390625	0.00833333333333333	0	-30	-8.04375	1	0.8720703125
4630.1455078125	0.00833333333333333	0	30	4.3625	2	0.6611328125
4633.294921875	0.00833333333333333	0	30	4.3625	2	0.6796875
4636.3203125	0.00833333333333333	0	-30	-8.04375	2	0.57421875
4639.0029296875	0.00833333333333333	0	30	4.2375	2	1.1318359375
4642.5615234375	0.00833333333333333	0	-30	-8.04375	2	0.8056640625
4645.669921875	0.00833333333333333	0	30	4.2375	2	2.3212890625
4650.169921875	0.00833333333333333	0	30	4.2375	2	4.4296875
4657.0859375	0.00833333333333333	0	-30	-8.04375	1	0.7060546875
4660.328125	0.00833333333333333	0	30	4.2375	2	0.7431640625
4663.5283203125	0.00833333333333333	0	30	4.2375	1	0.599609375
4666.26953125	0.00833333333333333	0	-30	-8.04375	1	1.3701171875
4669.884765625	0.00833333333333333	0	-30	-8.04375	1	0.6748046875
4673.0693359375	0.00833333333333333	0	30	4.2375	1	1.0263671875
4676.3857421875	0.00833333333333333	0	30	4.2375	1	1.55078125
4680.1943359375	0.00833333333333333	0	30	4.2375	2	1.494140625
4684.01953125	0.00833333333333333	0	-30	-8.04375	2	1.9326171875
4688.2275390625	0.00833333333333333	0	30	4.2375	1	1.4931640625
4691.9111328125	0.00833333333333333	0	-30	-8.04375	2	4.0498046875
4698.4443359375	0.00833333333333333	0	30	4.2375	1	2.3408203125
4702.9521484375	0.00833333333333333	0	30	4.2375	2	1.888671875
4706.9931640625	0.00833333333333333	0	30	4.2375	1	1.17578125
4710.59375	0.00833333333333333	0	-30	-8.04375	1	0.9111328125
4713.80078125	0.00833333333333333	0	-30	-8.04375	2	1.2568359375
4717.193359375	0.00833333333333333	0	30	4.2375	1	0.9365234375
4720.376953125	0.00833333333333333	0	30	4.2375	2	0.80859375
4723.501953125	0.00833333333333333	0	30	4.2375	1	0.8115234375
4726.435546875	0.00833333333333333	0	30	4.2375	1	3.0859375
4731.8173828125	0.00833333333333333	0	-30	-8.04375	1	1.4091796875
4735.685546875	0.00833333333333333	0	-30	-8.04375	1	0.95703125
4739.0185546875	0.00833333333333333	0	30	4.2375	2	1.5361328125
4743.0595703125	0.00833333333333333	0	-30	-8.04375	1	0.7431640625
4745.9931640625	0.00833333333333333	0	30	4.2375	2	0.705078125
4749.0595703125	0.00833333333333333	0	-30	-8.04375	1	1.8388671875
4752.9853515625	0.00833333333333333	0	-30	-8.04375	2	0.76171875
4756.193359375	0.00833333333333333	0	30	4.2375	2	1.4814453125
4760.0263671875	0.00833333333333333	0	-30	-8.04375	2	0.9921875
4763.5419921875	0.00833333333333333	0	30	4.2375	1	1.1005859375
4767.04296875	0.00833333333333333	0	-30	-8.04375	1	1.0078125
4770.6259765625	0.00833333333333333	0	-30	-8.04375	2	1.1298828125
4774.4013671875	0.00833333333333333	0	-30	-8.04375	1	0.90625
4777.9091796875	0.00833333333333333	0	30	4.2375	1	0.89453125
4781.30078125	0.00833333333333333	0	30	4.2375	2	1.5751953125
4785.1845703125	0.00833333333333333	0	-30	-8.04375	1	1.7392578125
4789.1259765625	0.00833333333333333	0	-30	-8.04375	1	2.1904296875
4793.759765625	0.00833333333333333	0	-30	-8.04375	1	1.30859375
4797.1591796875	0.00833333333333333	0	-30	-8.04375	2	0.861328125
4800.17578125	0.00833333333333333	0	-30	-8.04375	1	0.828125
4803.1923828125	0.00833333333333333	0	30	4.2375	1	0.828125
4806.3173828125	0.00833333333333333	0	30	4.2375	1	2.302734375
4811.0673828125	0.00833333333333333	0	-30	-8.04375	1	0.7294921875
4813.9091796875	0.00833333333333333	0	30	4.2375	1	0.7998046875
4816.8251953125	0.00833333333333333	0	-30	-8.04375	1	0.69921875
4819.974609375	0.00833333333333333	0	30	4.2375	2	0.58203125
4822.9501953125	0.00833333333333333	0	30	4.2375	1	0.6943359375
4825.92578125	0.00833333333333333	0	30	4.2375	2	0.5751953125
4828.7919921875	0.00833333333333333	0	30	4.2375	1	0.9814453125
4832.2666015625	0.00833333333333333	0	-30	-8.04375	2	0.5947265625
4835.3251953125	0.00833333333333333	0	-30	-8.04375	1	0.736328125
4838.5673828125	0.00833333333333333	0	-30	-8.04375	2	0.8779296875
4841.775390625	0.00833333333333333	0	-30	-8.04375	2	0.58984375
4844.9248046875	0.00833333333333333	0	-30	-8.04375	2	0.7607421875
4847.80859375	0.00833333333333333	0	-30	-8.04375	1	0.7333984375
4851.0419921875	0.00833333333333333	0	-30	-8.04375	2	0.67578125
4853.900390625	0.00833333333333333	0	30	4.2375	2	0.7783203125
4857.2587890625	0.00833333333333333	0	30	4.2375	2	0.7392578125
4860.2333984375	0.00833333333333333	0	30	4.2375	2	0.7490234375
4863.4501953125	0.00833333333333333	0	-30	-8.04375	2	0.67578125
4866.2666015625	0.00833333333333333	0	30	4.2375	2	0.7080078125
4869.107421875	0.00833333333333333	0	30	4.2375	2	0.8916015625
4872.5830078125	0.00833333333333333	0	-30	-8.04375	2	0.8154296875
4875.6748046875	0.00833333333333333	0	30	4.1125	2	0.7080078125
4878.7080078125	0.00833333333333333	0	-30	-8.04375	2	0.8505859375
4881.8583984375	0.00833333333333333	0	30	4.1125	2	1.076171875
4885.5732421875	0.00833333333333333	0	30	4.1125	2	1.76171875
4889.8330078125	0.00833333333333333	0	-30	-8.04375	2	0.830078125
4892.974609375	0.00833333333333333	0	-30	-8.16875	1	0.80078125
4896.1416015625	0.00833333333333333	0	30	4.1125	2	0.666015625
