onset	duration	titr	surround	centre	response	rt
10.41015625	0.00833333333333333	1	NaN	-15	1	2.77734375
15.302734375	0.00833333333333333	1	30	15	2	0.837890625
18.3603515625	0.00833333333333333	1	-30	15	2	0.8359375
21.3447265625	0.00833333333333333	1	30	14	2	0.859375
24.4287109375	0.00833333333333333	1	30	-15	1	0.7353515625
27.5009765625	0.00833333333333333	1	NaN	15	2	0.86328125
30.65234375	0.00833333333333333	1	-30	-15	1	0.919921875
33.7177734375	0.00833333333333333	1	30	13	2	0.7109375
36.77734375	0.00833333333333333	1	30	-14	1	0.7548828125
39.619140625	0.00833333333333333	1	NaN	-14	1	0.6572265625
42.7265625	0.00833333333333333	1	NaN	-13	1	0.7021484375
45.5107421875	0.00833333333333333	1	NaN	-12	1	0.677734375
48.52734375	0.00833333333333333	1	30	12	2	0.7177734375
51.4521484375	0.00833333333333333	1	NaN	-11	1	0.689453125
54.15234375	0.00833333333333333	1	30	11	2	0.5810546875
56.96875	0.00833333333333333	1	NaN	-10	1	0.6123046875
59.759765625	0.00833333333333333	1	30	10	2	0.7333984375
62.6181640625	0.00833333333333333	1	30	9	2	0.5478515625
65.4765625	0.00833333333333333	1	NaN	-9	1	0.640625
68.2431640625	0.00833333333333333	1	-30	-14	1	0.8505859375
71.46875	0.00833333333333333	1	-30	-13	1	0.7373046875
74.41796875	0.00833333333333333	1	NaN	14	2	0.6279296875
77.1181640625	0.00833333333333333	1	-30	-12	1	0.6640625
80.1513671875	0.00833333333333333	1	NaN	-8	1	0.5830078125
83.0517578125	0.00833333333333333	1	30	8	2	0.6904296875
86.068359375	0.00833333333333333	1	NaN	-7	1	0.6259765625
88.9423828125	0.00833333333333333	1	NaN	-6	1	0.6474609375
91.9091796875	0.00833333333333333	1	-30	-11	1	0.75390625
94.7841796875	0.00833333333333333	1	30	7	2	0.646484375
97.517578125	0.00833333333333333	1	NaN	13	2	0.5771484375
100.2841796875	0.00833333333333333	1	-30	-10	1	0.5947265625
103.009765625	0.00833333333333333	1	NaN	-5	1	0.5087890625
105.509765625	0.00833333333333333	1	NaN	12	2	0.529296875
108.1591796875	0.00833333333333333	1	NaN	11	2	0.51953125
110.7509765625	0.00833333333333333	1	-30	-9	1	0.599609375
113.4423828125	0.00833333333333333	1	30	-13	1	0.5322265625
116.083984375	0.00833333333333333	1	NaN	10	2	0.5634765625
118.8427734375	0.00833333333333333	1	NaN	9	2	0.533203125
121.701171875	0.00833333333333333	1	-30	-8	1	0.5947265625
124.3427734375	0.00833333333333333	1	-30	14	2	0.6005859375
127.4169921875	0.00833333333333333	1	-30	-7	1	1.0146484375
130.6259765625	0.00833333333333333	1	-30	-6	1	0.669921875
133.4833984375	0.00833333333333333	1	30	-12	1	0.5166015625
136.0341796875	0.00833333333333333	1	-30	13	2	0.509765625
138.7001953125	0.00833333333333333	1	30	-11	1	0.515625
141.3505859375	0.00833333333333333	1	30	6	2	0.521484375
144.0009765625	0.00833333333333333	1	NaN	8	2	0.5029296875
146.9169921875	0.00833333333333333	1	30	5	2	0.634765625
149.6923828125	0.00833333333333333	1	30	-10	1	0.4677734375
152.2255859375	0.00833333333333333	1	NaN	7	2	0.5107421875
154.900390625	0.00833333333333333	1	-30	12	2	0.4599609375
157.68359375	0.00833333333333333	1	NaN	-4	1	0.5732421875
160.3505859375	0.00833333333333333	1	30	4	2	0.6259765625
163.5166015625	0.00833333333333333	1	-30	-5	1	0.6357421875
166.3330078125	0.00833333333333333	1	-30	-4	1	0.6357421875
169.2421875	0.00833333333333333	1	-30	-3	1	0.6943359375
171.9501953125	0.00833333333333333	1	-30	11	2	0.5546875
174.548828125	0.00833333333333333	1	30	3	2	1.0517578125
178.0751953125	0.00833333333333333	1	-30	-2	2	1.2216796875
181.3994140625	0.00833333333333333	1	NaN	-3	1	0.673828125
184.283203125	0.00833333333333333	1	-30	10	2	0.58203125
187.2578125	0.00833333333333333	1	-30	9	2	0.591796875
190.2490234375	0.00833333333333333	1	NaN	6	2	0.65625
193.0986328125	0.00833333333333333	1	NaN	-2	1	0.52734375
196.107421875	0.00833333333333333	1	NaN	-1	1	0.57421875
198.8330078125	0.00833333333333333	1	30	2	1	0.640625
201.9833984375	0.00833333333333333	1	30	-9	1	0.5703125
204.9326171875	0.00833333333333333	1	30	-8	1	0.5654296875
207.9912109375	0.00833333333333333	1	NaN	5	2	0.603515625
210.6650390625	0.00833333333333333	1	NaN	4	2	0.689453125
213.82421875	0.00833333333333333	1	30	3	2	0.73828125
216.865234375	0.00833333333333333	1	-30	8	2	0.5849609375
219.7900390625	0.00833333333333333	1	NaN	3	2	0.6044921875
222.423828125	0.00833333333333333	1	30	-7	1	0.4990234375
225.0830078125	0.00833333333333333	1	NaN	2	2	0.615234375
228.015625	0.00833333333333333	1	30	2	1	0.5146484375
230.939453125	0.00833333333333333	1	30	-6	1	0.52734375
233.95703125	0.00833333333333333	1	-30	-3	2	0.654296875
236.666015625	0.00833333333333333	1	-30	7	2	0.5537109375
239.3408203125	0.00833333333333333	1	30	-5	1	0.4150390625
242.0234375	0.00833333333333333	1	NaN	0	1	0.916015625
245.3740234375	0.00833333333333333	1	-30	-4	1	0.5810546875
248.4736328125	0.00833333333333333	1	NaN	1	1	0.74609375
251.265625	0.00833333333333333	1	30	-4	1	0.513671875
254.1474609375	0.00833333333333333	1	30	-3	1	0.50390625
256.8486328125	0.00833333333333333	1	NaN	2	2	0.71484375
259.9736328125	0.00833333333333333	1	30	-2	1	0.4697265625
262.70703125	0.00833333333333333	1	-30	-3	1	0.728515625
265.7822265625	0.00833333333333333	1	-30	6	2	0.533203125
268.390625	0.00833333333333333	1	NaN	1	1	0.8056640625
271.5400390625	0.00833333333333333	1	NaN	2	2	0.4560546875
274.490234375	0.00833333333333333	1	30	3	2	0.673828125
277.59765625	0.00833333333333333	1	30	2	2	0.9267578125
280.8896484375	0.00833333333333333	1	-30	5	2	0.5712890625
283.5400390625	0.00833333333333333	1	-30	4	2	0.46484375
286.45703125	0.00833333333333333	1	-30	3	2	0.5
289.240234375	0.00833333333333333	1	NaN	1	2	0.66796875
292.0986328125	0.00833333333333333	1	30	1	2	0.921875
295.556640625	0.00833333333333333	1	NaN	0	2	0.9443359375
298.5478515625	0.00833333333333333	1	NaN	1	2	0.59375
301.5732421875	0.00833333333333333	1	-30	2	2	0.5283203125
304.6064453125	0.00833333333333333	1	30	0	1	0.6865234375
307.71484375	0.00833333333333333	1	-30	-2	2	0.5302734375
320.2314453125	0.00833333333333333	1	NaN	0	1	0.8623046875
323.189453125	0.00833333333333333	1	NaN	1	2	0.583984375
325.939453125	0.00833333333333333	1	-30	-3	2	0.578125
328.8564453125	0.00833333333333333	1	-30	1	2	0.5419921875
331.814453125	0.00833333333333333	1	NaN	0	2	0.6962890625
334.6806640625	0.00833333333333333	1	NaN	-1	2	0.701171875
337.5966796875	0.00833333333333333	1	-30	-4	2	0.6650390625
340.40625	0.00833333333333333	1	NaN	-1	2	0.640625
343.09765625	0.00833333333333333	1	-30	0	2	0.6611328125
345.947265625	0.00833333333333333	1	-30	-1	2	0.626953125
348.947265625	0.00833333333333333	1	30	-1	1	0.67578125
352.072265625	0.00833333333333333	1	NaN	-2	1	0.5029296875
355.0380859375	0.00833333333333333	1	-30	-2	2	0.705078125
357.7890625	0.00833333333333333	1	-30	-3	2	0.6337890625
360.8056640625	0.00833333333333333	1	-30	-5	2	0.712890625
363.8134765625	0.00833333333333333	1	NaN	-1	2	0.609375
366.4716796875	0.00833333333333333	1	-30	-4	2	0.6875
369.4140625	0.00833333333333333	1	NaN	-2	2	0.7373046875
372.447265625	0.00833333333333333	1	NaN	-2	1	0.7763671875
375.546875	0.00833333333333333	1	30	0	1	0.6845703125
378.4384765625	0.00833333333333333	1	-30	-6	1	0.5693359375
381.36328125	0.00833333333333333	1	30	1	1	0.484375
384.2880859375	0.00833333333333333	1	NaN	-3	1	0.4560546875
386.9638671875	0.00833333333333333	1	-30	-5	1	0.5556640625
389.8212890625	0.00833333333333333	1	NaN	-2	1	0.474609375
392.48046875	0.00833333333333333	1	NaN	-1	1	0.4873046875
395.2880859375	0.00833333333333333	1	30	2	1	0.4560546875
398.037109375	0.00833333333333333	1	-30	-4	1	0.5390625
401.0966796875	0.00833333333333333	1	NaN	0	1	0.4638671875
403.9130859375	0.00833333333333333	1	30	3	1	1.03125
407.1953125	0.00833333333333333	1	-30	-3	1	1.1328125
410.75390625	0.00833333333333333	1	NaN	1	1	0.638671875
413.8046875	0.00833333333333333	1	-30	-2	1	0.7158203125
416.6298828125	0.00833333333333333	1	30	1	1	0.6357421875
419.705078125	0.00833333333333333	1	30	4	1	0.935546875
423.1962890625	0.00833333333333333	1	-30	-1	1	0.94921875
426.3212890625	0.00833333333333333	1	NaN	2	1	0.775390625
429.529296875	0.00833333333333333	1	NaN	3	1	0.7197265625
432.4208984375	0.00833333333333333	1	30	5	1	0.796875
435.49609375	0.00833333333333333	1	NaN	4	1	1.0498046875
438.62109375	0.00833333333333333	1	30	6	1	0.8359375
441.8955078125	0.00833333333333333	1	NaN	5	2	0.578125
444.5791015625	0.00833333333333333	1	30	7	2	0.55859375
447.1875	0.00833333333333333	1	-30	-5	1	1.0546875
450.3125	0.00833333333333333	1	30	2	1	0.7373046875
453.3046875	0.00833333333333333	1	30	3	1	0.76953125
456.3046875	0.00833333333333333	1	-30	0	2	0.625
459.00390625	0.00833333333333333	1	NaN	4	2	0.6298828125
462.0947265625	0.00833333333333333	1	NaN	3	2	0.5556640625
464.6787109375	0.00833333333333333	1	-30	-1	2	0.68359375
467.404296875	0.00833333333333333	1	-30	-2	2	0.6865234375
470.4541015625	0.00833333333333333	1	-30	-4	2	0.580078125
473.3291015625	0.00833333333333333	1	NaN	2	2	0.4736328125
476.0791015625	0.00833333333333333	1	NaN	1	2	0.5400390625
478.9873046875	0.00833333333333333	1	-30	-5	2	0.6474609375
482.0458984375	0.00833333333333333	1	-30	-6	1	0.693359375
485.13671875	0.00833333333333333	1	30	6	2	0.6181640625
488.2275390625	0.00833333333333333	1	-30	-3	2	0.5439453125
490.9365234375	0.00833333333333333	1	NaN	-1	1	0.8271484375
494.0107421875	0.00833333333333333	1	30	4	1	0.7529296875
497.2705078125	0.00833333333333333	1	-30	-4	1	0.693359375
500.2197265625	0.00833333333333333	1	30	5	1	1.0556640625
503.3623046875	0.00833333333333333	1	-30	-3	1	0.689453125
506.13671875	0.00833333333333333	1	NaN	0	2	0.8759765625
509.3955078125	0.00833333333333333	1	30	6	1	1.240234375
512.8115234375	0.00833333333333333	1	-30	-5	1	0.5439453125
515.7529296875	0.00833333333333333	1	-30	-4	1	0.71484375
519.001953125	0.00833333333333333	1	30	5	1	0.890625
522.41015625	0.00833333333333333	1	-30	-2	1	0.73828125
525.3369140625	0.00833333333333333	1	30	6	1	0.8837890625
528.6533203125	0.00833333333333333	1	30	7	1	1.015625
531.861328125	0.00833333333333333	1	30	8	1	0.8876953125
535.0859375	0.00833333333333333	1	30	7	2	0.55078125
538.14453125	0.00833333333333333	1	-30	-3	1	1.1162109375
541.369140625	0.00833333333333333	1	-30	-1	2	0.67578125
544.203125	0.00833333333333333	1	30	9	2	0.5380859375
547.1357421875	0.00833333333333333	1	-30	-2	1	0.62109375
549.927734375	0.00833333333333333	1	30	6	2	0.60546875
552.9111328125	0.00833333333333333	1	-30	-1	2	0.6142578125
556.0107421875	0.00833333333333333	1	NaN	-1	1	0.658203125
558.8193359375	0.00833333333333333	1	NaN	0	1	0.658203125
561.5107421875	0.00833333333333333	1	-30	-2	1	0.5751953125
564.53515625	0.00833333333333333	1	NaN	0	1	0.6865234375
567.5947265625	0.00833333333333333	1	30	5	1	0.794921875
570.5693359375	0.00833333333333333	1	30	6	1	0.7646484375
573.634765625	0.00833333333333333	1	NaN	1	1	0.634765625
576.4443359375	0.00833333333333333	1	30	8	2	0.849609375
579.3095703125	0.00833333333333333	1	30	7	1	0.9931640625
582.494140625	0.00833333333333333	1	NaN	2	1	0.7919921875
585.3271484375	0.00833333333333333	1	30	8	1	0.798828125
588.1435546875	0.00833333333333333	1	30	9	1	0.791015625
591.0771484375	0.00833333333333333	1	NaN	1	1	0.609375
594.142578125	0.00833333333333333	1	NaN	3	1	0.84765625
597.2275390625	0.00833333333333333	1	NaN	4	1	0.794921875
600.4853515625	0.00833333333333333	1	30	10	1	0.7373046875
603.4599609375	0.00833333333333333	1	NaN	2	1	0.6025390625
606.369140625	0.00833333333333333	1	30	11	1	0.7255859375
609.568359375	0.00833333333333333	1	NaN	5	1	0.6064453125
612.3271484375	0.00833333333333333	1	NaN	6	1	0.6396484375
615.0107421875	0.00833333333333333	1	NaN	3	1	0.7080078125
617.8271484375	0.00833333333333333	1	NaN	7	1	0.6044921875
626.0517578125	0.00833333333333333	1	30	12	1	0.7158203125
628.9345703125	0.00833333333333333	1	30	7	1	0.5458984375
631.8681640625	0.00833333333333333	1	NaN	4	1	0.53125
634.6513671875	0.00833333333333333	1	NaN	5	1	0.6201171875
637.43359375	0.00833333333333333	1	30	13	1	0.783203125
640.693359375	0.00833333333333333	1	-30	-2	1	0.5791015625
643.4677734375	0.00833333333333333	1	30	14	1	0.6044921875
646.16015625	0.00833333333333333	1	NaN	8	1	0.6162109375
649.2431640625	0.00833333333333333	1	NaN	6	1	0.5732421875
651.884765625	0.00833333333333333	1	30	8	1	0.580078125
654.9931640625	0.00833333333333333	1	NaN	7	1	0.7353515625
658.0263671875	0.00833333333333333	1	30	15	2	0.5498046875
660.951171875	0.00833333333333333	1	NaN	9	2	0.5615234375
664.0263671875	0.00833333333333333	1	-30	-1	2	0.646484375
667.091796875	0.00833333333333333	1	NaN	8	1	0.7734375
670.2841796875	0.00833333333333333	1	NaN	9	2	0.548828125
673.29296875	0.00833333333333333	1	30	9	1	0.5400390625
676.2763671875	0.00833333333333333	1	-30	-2	1	0.6044921875
679.2841796875	0.00833333333333333	1	NaN	8	1	0.6455078125
682.326171875	0.00833333333333333	1	NaN	8	1	0.619140625
685.2587890625	0.00833333333333333	1	30	14	1	0.87109375
688.359375	0.00833333333333333	1	NaN	9	1	0.5859375
691.4091796875	0.00833333333333333	1	-30	-1	1	0.552734375
694.3505859375	0.00833333333333333	1	30	10	1	0.787109375
697.6181640625	0.00833333333333333	1	NaN	10	1	0.599609375
700.3759765625	0.00833333333333333	1	30	11	1	0.5380859375
702.9423828125	0.00833333333333333	1	30	15	1	0.5556640625
705.583984375	0.00833333333333333	1	30	12	1	0.513671875
708.1923828125	0.00833333333333333	1	NaN	11	1	0.6337890625
711.17578125	0.00833333333333333	1	30	16	2	0.5869140625
713.8837890625	0.00833333333333333	1	30	13	2	0.654296875
716.583984375	0.00833333333333333	1	-30	0	1	0.5703125
719.5908203125	0.00833333333333333	1	NaN	12	2	0.5322265625
722.3837890625	0.00833333333333333	1	NaN	11	2	0.5390625
725.0009765625	0.00833333333333333	1	NaN	10	2	0.5537109375
727.783203125	0.00833333333333333	1	NaN	9	2	0.9150390625
730.966796875	0.00833333333333333	1	NaN	8	2	0.5322265625
733.80859375	0.00833333333333333	1	30	15	2	0.5380859375
736.5166015625	0.00833333333333333	1	-30	1	2	0.638671875
739.44921875	0.00833333333333333	1	NaN	7	2	0.73828125
742.2919921875	0.00833333333333333	1	30	14	2	0.8310546875
745.466796875	0.00833333333333333	1	30	13	2	0.689453125
748.650390625	0.00833333333333333	1	-30	0	1	0.78515625
751.5078125	0.00833333333333333	1	NaN	6	2	0.48828125
754.0498046875	0.00833333333333333	1	-30	1	1	0.6015625
756.716796875	0.00833333333333333	1	30	12	2	0.55859375
759.5322265625	0.00833333333333333	1	-30	2	2	0.5439453125
762.408203125	0.00833333333333333	1	-30	1	1	0.8359375
765.6318359375	0.00833333333333333	1	-30	2	1	0.7080078125
768.4580078125	0.00833333333333333	1	30	11	2	0.59375
771.482421875	0.00833333333333333	1	30	10	2	0.5703125
774.5166015625	0.00833333333333333	1	NaN	5	1	0.4716796875
777.283203125	0.00833333333333333	1	-30	3	1	0.849609375
780.283203125	0.00833333333333333	1	30	9	1	0.841796875
783.3408203125	0.00833333333333333	1	-30	4	1	0.751953125
786.533203125	0.00833333333333333	1	NaN	6	1	0.623046875
789.666015625	0.00833333333333333	1	-30	5	2	0.5146484375
792.32421875	0.00833333333333333	1	30	10	2	0.560546875
794.9248046875	0.00833333333333333	1	30	9	2	0.5048828125
797.7578125	0.00833333333333333	1	NaN	7	2	0.4873046875
800.6494140625	0.00833333333333333	1	30	8	2	0.5322265625
803.482421875	0.00833333333333333	1	30	7	1	0.5146484375
806.1982421875	0.00833333333333333	1	30	8	1	0.6708984375
809.2236328125	0.00833333333333333	1	30	9	1	0.501953125
812.173828125	0.00833333333333333	1	30	10	1	0.599609375
815.19921875	0.00833333333333333	1	30	11	1	0.646484375
817.94921875	0.00833333333333333	1	30	12	1	0.5048828125
820.94921875	0.00833333333333333	1	30	13	1	0.6083984375
823.7734375	0.00833333333333333	1	30	14	2	0.5927734375
826.5322265625	0.00833333333333333	1	30	13	2	0.5302734375
829.2646484375	0.00833333333333333	1	30	12	2	0.6376953125
832.20703125	0.00833333333333333	1	30	11	2	0.52734375
835.0986328125	0.00833333333333333	1	30	10	2	0.53125
837.6484375	0.00833333333333333	1	30	9	2	0.56640625
840.46484375	0.00833333333333333	1	30	8	2	0.7021484375
843.298828125	0.00833333333333333	1	30	7	1	1.4921875
846.95703125	0.00833333333333333	1	30	8.83333333333333	1	0.7138671875
850.1982421875	0.00833333333333333	1	NaN	5.16666666666667	2	0.9443359375
853.2470703125	0.00833333333333333	1	NaN	4.16666666666667	1	0.9677734375
856.2900390625	0.00833333333333333	1	30	7.83333333333333	2	0.884765625
859.6162109375	0.00833333333333333	1	NaN	4.29166666666667	1	0.6708984375
862.5654296875	0.00833333333333333	1	-30	0.25	1	0.689453125
865.6474609375	0.00833333333333333	1	NaN	4.41666666666667	1	0.80078125
868.7236328125	0.00833333333333333	1	-30	-0.75	1	0.7001953125
871.5986328125	0.00833333333333333	1	-30	-0.625	1	0.5771484375
874.6728515625	0.00833333333333333	1	NaN	4.54166666666667	1	0.8955078125
877.71484375	0.00833333333333333	1	-30	0.375	1	0.869140625
880.72265625	0.00833333333333333	1	NaN	4.66666666666667	2	0.693359375
883.4892578125	0.00833333333333333	1	-30	0.5	2	0.6630859375
886.58984375	0.00833333333333333	1	NaN	4.54166666666667	2	0.73828125
889.58984375	0.00833333333333333	1	30	8.95833333333333	2	0.6904296875
892.40625	0.00833333333333333	1	NaN	5.04166666666667	2	0.658203125
895.455078125	0.00833333333333333	1	NaN	4.91666666666667	2	0.5849609375
898.248046875	0.00833333333333333	1	-30	-0.5	1	0.984375
901.380859375	0.00833333333333333	1	30	7.70833333333333	2	0.6279296875
904.1142578125	0.00833333333333333	1	30	7.58333333333333	2	0.646484375
907.0556640625	0.00833333333333333	1	NaN	4.41666666666667	2	0.4892578125
909.5390625	0.00833333333333333	1	30	7.45833333333333	2	0.61328125
912.3720703125	0.00833333333333333	1	-30	0.375	2	0.6044921875
915.2060546875	0.00833333333333333	1	NaN	4.29166666666667	2	0.4345703125
917.8720703125	0.00833333333333333	1	NaN	4.79166666666667	2	0.4892578125
920.6552734375	0.00833333333333333	1	-30	0.25	2	0.59375
923.35546875	0.00833333333333333	1	30	7.33333333333333	2	0.5576171875
930.388671875	0.00833333333333333	1	NaN	4.66666666666667	2	0.6767578125
933.0634765625	0.00833333333333333	1	NaN	4.16666666666667	2	0.482421875
935.572265625	0.00833333333333333	1	NaN	4.54166666666667	2	0.4775390625
938.3974609375	0.00833333333333333	1	-30	0.125	2	0.6923828125
941.5390625	0.00833333333333333	1	-30	0	2	0.53515625
944.4794921875	0.00833333333333333	1	30	7.20833333333333	2	0.546875
947.4892578125	0.00833333333333333	1	30	7.08333333333333	1	0.78515625
950.3466796875	0.00833333333333333	1	NaN	4.41666666666667	2	0.6630859375
953.421875	0.00833333333333333	1	-30	-0.125	2	0.66015625
956.4970703125	0.00833333333333333	1	NaN	4.29166666666667	2	0.47265625
959.35546875	0.00833333333333333	1	NaN	4.16666666666667	2	0.55859375
961.9970703125	0.00833333333333333	1	-30	-0.375	2	0.517578125
964.912109375	0.00833333333333333	1	NaN	4.04166666666667	2	0.505859375
967.73828125	0.00833333333333333	1	NaN	4.04166666666667	2	0.5205078125
970.7705078125	0.00833333333333333	1	NaN	3.91666666666667	2	0.4638671875
973.3369140625	0.00833333333333333	1	30	8.83333333333333	2	0.5380859375
976.25390625	0.00833333333333333	1	30	7.20833333333333	2	0.4765625
979.0634765625	0.00833333333333333	1	NaN	3.79166666666667	2	0.4111328125
981.86328125	0.00833333333333333	1	30	7.08333333333333	2	0.4677734375
984.7802734375	0.00833333333333333	1	NaN	3.91666666666667	2	0.4150390625
987.4384765625	0.00833333333333333	1	NaN	3.79166666666667	2	0.5087890625
990.1630859375	0.00833333333333333	1	30	6.95833333333333	2	0.537109375
993.095703125	0.00833333333333333	1	30	8.70833333333333	2	0.4521484375
995.896484375	0.00833333333333333	1	30	8.58333333333333	2	0.443359375
998.4208984375	0.00833333333333333	1	NaN	3.66666666666667	2	0.486328125
1001.24609375	0.00833333333333333	1	-30	-0.5	2	0.4453125
1004.1044921875	0.00833333333333333	1	-30	-0.625	2	0.37109375
1006.654296875	0.00833333333333333	1	30	6.83333333333333	2	0.453125
1009.23828125	0.00833333333333333	1	30	8.45833333333333	2	0.4375
1012.1044921875	0.00833333333333333	1	30	8.33333333333333	2	0.4033203125
1014.779296875	0.00833333333333333	1	-30	-0.75	2	0.4404296875
1017.462890625	0.00833333333333333	1	NaN	3.66666666666667	2	0.373046875
1020.154296875	0.00833333333333333	1	-30	-0.875	2	0.3779296875
1022.9873046875	0.00833333333333333	1	30	8.20833333333333	2	0.353515625
1025.6875	0.00833333333333333	1	NaN	3.54166666666667	2	0.3251953125
1028.5380859375	0.00833333333333333	1	-30	-1	1	0.6748046875
1031.3369140625	0.00833333333333333	1	NaN	3.54166666666667	2	0.556640625
1034.3212890625	0.00833333333333333	1	NaN	3.41666666666667	2	0.427734375
1037.0869140625	0.00833333333333333	1	-30	-0.875	2	0.509765625
1039.62890625	0.00833333333333333	1	-30	-1	2	0.4560546875
1042.4794921875	0.00833333333333333	1	NaN	3.41666666666667	2	0.4453125
1045.2529296875	0.00833333333333333	1	-30	-1.125	2	0.4560546875
1048.1376953125	0.00833333333333333	1	30	6.70833333333333	2	0.4833984375
1051.0869140625	0.00833333333333333	1	NaN	3.29166666666667	2	0.501953125
1053.8955078125	0.00833333333333333	1	30	6.58333333333333	2	0.421875
1056.5791015625	0.00833333333333333	1	-30	-0.25	2	0.3701171875
1059.26171875	0.00833333333333333	1	30	8.08333333333333	2	0.48828125
1062.095703125	0.00833333333333333	1	-30	-1.25	2	0.3818359375
1064.603515625	0.00833333333333333	1	30	7.95833333333333	2	0.482421875
1067.4541015625	0.00833333333333333	1	30	7.83333333333333	2	0.51171875
1070.3115234375	0.00833333333333333	1	-30	-1.375	2	0.4384765625
1072.8955078125	0.00833333333333333	1	-30	-1.5	2	0.6943359375
1076.0859375	0.00833333333333333	1	30	6.45833333333333	2	0.576171875
1078.87890625	0.00833333333333333	1	30	7.70833333333333	2	0.4716796875
1081.5615234375	0.00833333333333333	1	30	6.33333333333333	2	0.716796875
1084.3369140625	0.00833333333333333	1	30	6.20833333333333	2	1.0537109375
1087.7119140625	0.00833333333333333	1	-30	-0.375	2	0.654296875
1090.453125	0.00833333333333333	1	-30	-1.625	2	1.3935546875
1093.986328125	0.00833333333333333	1	30	6.08333333333333	2	0.892578125
1096.953125	0.00833333333333333	1	-30	-1.75	2	0.5732421875
1099.7783203125	0.00833333333333333	1	30	5.95833333333333	2	0.548828125
1102.4619140625	0.00833333333333333	1	NaN	3.16666666666667	2	0.5771484375
1105.26953125	0.00833333333333333	1	-30	-0.5	2	0.529296875
1107.927734375	0.00833333333333333	1	NaN	3.04166666666667	2	0.52734375
1110.6025390625	0.00833333333333333	1	30	5.83333333333333	2	0.6845703125
1113.552734375	0.00833333333333333	1	-30	-1.875	2	0.53515625
1116.5029296875	0.00833333333333333	1	-30	-0.625	2	0.537109375
1119.111328125	0.00833333333333333	1	NaN	2.91666666666667	2	0.9765625
1122.5361328125	0.00833333333333333	1	-30	-0.75	2	0.53515625
1125.552734375	0.00833333333333333	1	30	5.70833333333333	2	0.51171875
1128.361328125	0.00833333333333333	1	-30	-0.875	2	0.58203125
1131.3115234375	0.00833333333333333	1	NaN	2.79166666666667	2	0.48828125
1134.1103515625	0.00833333333333333	1	NaN	2.66666666666667	2	0.41015625
1136.77734375	0.00833333333333333	1	-30	-2	2	0.4150390625
1139.361328125	0.00833333333333333	1	30	7.58333333333333	2	0.4228515625
1142.1689453125	0.00833333333333333	1	NaN	2.54166666666667	2	0.462890625
1144.6943359375	0.00833333333333333	1	NaN	2.41666666666667	2	0.42578125
1147.4443359375	0.00833333333333333	1	30	5.58333333333333	2	0.931640625
1150.4443359375	0.00833333333333333	1	NaN	2.29166666666667	2	0.484375
1153.201171875	0.00833333333333333	1	-30	-2.125	2	0.6796875
1156.0361328125	0.00833333333333333	1	NaN	2.16666666666667	2	0.4921875
1158.560546875	0.00833333333333333	1	30	5.45833333333333	2	0.5439453125
1161.4853515625	0.00833333333333333	1	NaN	2.04166666666667	1	0.931640625
1164.9189453125	0.00833333333333333	1	NaN	3.29166666666667	2	0.4736328125
1167.509765625	0.00833333333333333	1	30	5.33333333333333	2	0.5634765625
1170.392578125	0.00833333333333333	1	NaN	2.16666666666667	2	0.49609375
1173.04296875	0.00833333333333333	1	30	7.45833333333333	2	0.494140625
1175.5439453125	0.00833333333333333	1	NaN	2.04166666666667	2	0.43359375
1178.0771484375	0.00833333333333333	1	NaN	1.91666666666667	2	0.4365234375
1180.9931640625	0.00833333333333333	1	NaN	3.16666666666667	2	0.47265625
1183.4765625	0.00833333333333333	1	NaN	1.79166666666667	2	0.701171875
1186.6005859375	0.00833333333333333	1	NaN	3.04166666666667	2	0.5458984375
1189.2685546875	0.00833333333333333	1	-30	-1	2	0.517578125
1191.9521484375	0.00833333333333333	1	-30	-1.125	2	0.4814453125
1194.7021484375	0.00833333333333333	1	30	7.33333333333333	2	0.5478515625
1197.568359375	0.00833333333333333	1	-30	-1.25	2	1.76953125
1201.4765625	0.00833333333333333	1	NaN	1.66666666666667	2	0.5576171875
1204.400390625	0.00833333333333333	1	30	7.20833333333333	2	0.5615234375
1207.326171875	0.00833333333333333	1	30	5.20833333333333	2	0.7958984375
1210.3935546875	0.00833333333333333	1	NaN	2.91666666666667	2	0.521484375
1213.400390625	0.00833333333333333	1	-30	-2.25	2	1.0498046875
1216.517578125	0.00833333333333333	1	30	5.08333333333333	2	0.6533203125
1219.28515625	0.00833333333333333	1	30	7.08333333333333	2	0.6611328125
1222.384765625	0.00833333333333333	1	NaN	1.54166666666667	2	1.009765625
1225.67578125	0.00833333333333333	1	30	6.95833333333333	2	0.53515625
1228.2177734375	0.00833333333333333	1	30	6.83333333333333	2	0.505859375
1238.67578125	0.00833333333333333	1	30	4.95833333333333	2	1.1435546875
1242.1181640625	0.00833333333333333	1	-30	-1.375	2	1.2451171875
1245.55078125	0.00833333333333333	1	30	6.70833333333333	2	0.7333984375
1248.2841796875	0.00833333333333333	1	30	6.58333333333333	2	0.7431640625
1251.076171875	0.00833333333333333	1	30	4.83333333333333	2	0.6953125
1254.0751953125	0.00833333333333333	1	NaN	1.41666666666667	2	1.625
1257.767578125	0.00833333333333333	1	-30	-1.5	2	1.2607421875
1261.16796875	0.00833333333333333	1	-30	-1.625	2	0.8447265625
1264.1005859375	0.00833333333333333	1	30	4.70833333333333	2	0.6552734375
1266.92578125	0.00833333333333333	1	30	6.45833333333333	2	0.7666015625
1270.033203125	0.00833333333333333	1	30	6.33333333333333	2	0.8916015625
1273.18359375	0.00833333333333333	1	NaN	2.79166666666667	2	0.5166015625
1276.05078125	0.00833333333333333	1	-30	-2.375	2	0.5302734375
1278.7001953125	0.00833333333333333	1	30	4.58333333333333	2	0.50390625
1281.5341796875	0.00833333333333333	1	-30	-2.5	2	0.5185546875
1284.17578125	0.00833333333333333	1	-30	-2.625	2	0.4931640625
1286.68359375	0.00833333333333333	1	-30	-2.75	2	0.4814453125
1289.2919921875	0.00833333333333333	1	30	4.45833333333333	2	0.521484375
1292.3251953125	0.00833333333333333	1	-30	-2.875	2	0.51171875
1295.091796875	0.00833333333333333	1	NaN	1.29166666666667	2	0.505859375
1297.716796875	0.00833333333333333	1	-30	-3	2	0.46484375
1300.55078125	0.00833333333333333	1	30	4.33333333333333	2	0.494140625
1303.18359375	0.00833333333333333	1	NaN	1.16666666666667	2	0.4619140625
1305.958984375	0.00833333333333333	1	-30	-3.125	2	0.5263671875
1309.0166015625	0.00833333333333333	1	-30	-1.75	2	0.7890625
1311.908203125	0.00833333333333333	1	30	4.20833333333333	2	0.5458984375
1314.83203125	0.00833333333333333	1	-30	-3.25	2	0.58203125
1317.55859375	0.00833333333333333	1	30	6.20833333333333	2	0.455078125
1320.25	0.00833333333333333	1	NaN	1.04166666666667	2	0.4521484375
1322.875	0.00833333333333333	1	NaN	0.916666666666666	2	0.458984375
1325.5498046875	0.00833333333333333	1	-30	-1.875	2	0.416015625
1328.1083984375	0.00833333333333333	1	-30	-3.375	2	0.490234375
1330.982421875	0.00833333333333333	1	NaN	0.791666666666666	2	0.4560546875
1333.716796875	0.00833333333333333	1	NaN	0.666666666666666	2	0.3291015625
1336.283203125	0.00833333333333333	1	30	6.08333333333333	2	0.435546875
1338.9736328125	0.00833333333333333	1	NaN	2.66666666666667	2	0.3291015625
1341.349609375	0.00833333333333333	1	NaN	0.541666666666666	2	0.4091796875
1343.783203125	0.00833333333333333	1	NaN	0.416666666666666	2	0.447265625
1346.5986328125	0.00833333333333333	1	-30	-2	2	0.5927734375
1349.2822265625	0.00833333333333333	1	NaN	2.54166666666667	2	0.556640625
1351.94140625	0.00833333333333333	1	30	5.95833333333333	2	0.5693359375
1354.806640625	0.00833333333333333	1	-30	-3.5	2	0.576171875
1357.44140625	0.00833333333333333	1	NaN	0.291666666666666	2	0.4775390625
1360.1494140625	0.00833333333333333	1	30	5.83333333333333	2	0.5703125
1362.8818359375	0.00833333333333333	1	30	5.70833333333333	2	0.4697265625
1365.3662109375	0.00833333333333333	1	-30	-2.125	2	0.609375
1368.224609375	0.00833333333333333	1	-30	-3.625	2	0.8310546875
1371.3740234375	0.00833333333333333	1	-30	-2.25	2	0.4501953125
1373.923828125	0.00833333333333333	1	-30	-2.375	2	0.3955078125
1376.673828125	0.00833333333333333	1	NaN	2.41666666666667	2	0.7421875
1379.640625	0.00833333333333333	1	30	5.58333333333333	2	0.5673828125
1382.673828125	0.00833333333333333	1	NaN	2.29166666666667	2	0.4306640625
1385.2236328125	0.00833333333333333	1	NaN	0.166666666666666	2	0.6484375
1388.1162109375	0.00833333333333333	1	30	4.08333333333333	2	0.564453125
1391.107421875	0.00833333333333333	1	30	3.95833333333333	2	0.564453125
1394.1240234375	0.00833333333333333	1	30	3.83333333333333	2	0.5166015625
1396.70703125	0.00833333333333333	1	30	3.70833333333333	2	0.421875
1399.6484375	0.00833333333333333	1	30	5.45833333333333	2	0.5048828125
1402.4150390625	0.00833333333333333	1	NaN	2.16666666666667	2	0.5458984375
1405.265625	0.00833333333333333	1	-30	-3.75	2	0.5986328125
1408.390625	0.00833333333333333	1	-30	-2.5	2	0.5146484375
1411.4072265625	0.00833333333333333	1	-30	-3.875	2	0.521484375
1414.181640625	0.00833333333333333	1	NaN	2.04166666666667	1	0.939453125
1417.6240234375	0.00833333333333333	1	30	3.58333333333333	1	0.8896484375
1420.9814453125	0.00833333333333333	1	-30	-4	1	0.5966796875
1423.65625	0.00833333333333333	1	NaN	0.0416666666666661	1	0.4248046875
1426.5146484375	0.00833333333333333	1	-30	-3.875	1	0.4794921875
1429.20703125	0.00833333333333333	1	30	5.33333333333333	1	1.05859375
1432.7470703125	0.00833333333333333	1	30	5.45833333333333	1	1.703125
1436.7568359375	0.00833333333333333	1	30	5.58333333333333	1	0.861328125
1439.7978515625	0.00833333333333333	1	30	5.70833333333333	1	0.6201171875
1442.8486328125	0.00833333333333333	1	30	5.83333333333333	1	0.625
1445.78125	0.00833333333333333	1	30	3.70833333333333	1	0.708984375
1448.65625	0.00833333333333333	1	30	3.83333333333333	1	0.6015625
1451.3310546875	0.00833333333333333	1	NaN	0.166666666666666	1	0.599609375
1454.181640625	0.00833333333333333	1	30	5.95833333333333	1	0.6923828125
1457.3896484375	0.00833333333333333	1	NaN	0.291666666666666	1	0.63671875
1460.205078125	0.00833333333333333	1	-30	-3.75	1	0.58984375
1462.939453125	0.00833333333333333	1	30	3.95833333333333	1	0.5908203125
1466.013671875	0.00833333333333333	1	NaN	0.416666666666666	1	0.8935546875
1469.2890625	0.00833333333333333	1	30	6.08333333333333	2	0.681640625
1472.498046875	0.00833333333333333	1	30	5.95833333333333	2	0.873046875
1475.6396484375	0.00833333333333333	1	-30	-2.625	1	0.70703125
1478.873046875	0.00833333333333333	1	NaN	2.16666666666667	1	0.818359375
1481.8798828125	0.00833333333333333	1	NaN	0.541666666666666	1	0.7470703125
1484.72265625	0.00833333333333333	1	-30	-2.5	1	0.6484375
1487.5810546875	0.00833333333333333	1	-30	-3.625	1	0.630859375
1490.630859375	0.00833333333333333	1	-30	-3.5	1	0.548828125
1493.6142578125	0.00833333333333333	1	30	5.83333333333333	1	0.677734375
1496.5810546875	0.00833333333333333	1	-30	-3.375	1	0.5830078125
1499.2470703125	0.00833333333333333	1	NaN	0.666666666666666	1	0.556640625
1501.98046875	0.00833333333333333	1	30	5.95833333333333	2	0.8232421875
1505.2802734375	0.00833333333333333	1	-30	-3.25	1	0.6123046875
1508.3212890625	0.00833333333333333	1	30	5.83333333333333	2	0.603515625
1511.072265625	0.00833333333333333	1	-30	-3.125	1	0.603515625
1513.763671875	0.00833333333333333	1	30	4.08333333333333	2	0.576171875
1516.7802734375	0.00833333333333333	1	NaN	2.29166666666667	2	0.6240234375
1519.9208984375	0.00833333333333333	1	NaN	0.791666666666666	2	0.5634765625
1522.7392578125	0.00833333333333333	1	-30	-2.375	1	0.673828125
1525.671875	0.00833333333333333	1	-30	-2.25	1	0.5966796875
1528.5302734375	0.00833333333333333	1	30	3.95833333333333	2	0.8427734375
1531.4130859375	0.00833333333333333	1	30	3.83333333333333	2	0.65625
1534.138671875	0.00833333333333333	1	NaN	0.666666666666666	2	0.818359375
1537.154296875	0.00833333333333333	1	NaN	2.16666666666667	2	0.5947265625
1554.5625	0.00833333333333333	1	-30	-2.125	2	0.962890625
1557.4970703125	0.00833333333333333	1	-30	-3	1	0.828125
1560.5634765625	0.00833333333333333	1	30	5.70833333333333	1	1.0107421875
1564.046875	0.00833333333333333	1	-30	-2.25	1	0.6630859375
1567.12109375	0.00833333333333333	1	30	3.70833333333333	1	0.6044921875
1569.8876953125	0.00833333333333333	1	NaN	0.541666666666666	1	0.6865234375
1573.00390625	0.00833333333333333	1	NaN	2.04166666666667	1	0.72265625
1576.1298828125	0.00833333333333333	1	-30	-2.125	1	0.716796875
1579.2373046875	0.00833333333333333	1	30	5.83333333333333	1	0.6650390625
1582.2705078125	0.00833333333333333	1	NaN	2.16666666666667	1	1.087890625
1585.4794921875	0.00833333333333333	1	-30	-2	1	0.53515625
1588.4208984375	0.00833333333333333	1	-30	-1.875	1	0.8017578125
1591.470703125	0.00833333333333333	1	30	3.83333333333333	1	0.5205078125
1594.4951171875	0.00833333333333333	1	30	3.95833333333333	1	0.8076171875
1597.8291015625	0.00833333333333333	1	NaN	0.666666666666666	1	0.74609375
1600.7958984375	0.00833333333333333	1	NaN	2.29166666666667	1	0.8916015625
1604.1875	0.00833333333333333	1	-30	-1.75	1	1.2763671875
1607.462890625	0.00833333333333333	1	NaN	2.41666666666667	1	1.5927734375
1611.5625	0.00833333333333333	1	NaN	0.791666666666666	1	0.62890625
1614.404296875	0.00833333333333333	1	NaN	0.916666666666666	1	0.6591796875
1617.412109375	0.00833333333333333	1	-30	-1.625	1	0.755859375
1620.5625	0.00833333333333333	1	NaN	1.04166666666667	1	0.7734375
1623.662109375	0.00833333333333333	1	30	4.08333333333333	1	0.7939453125
1626.904296875	0.00833333333333333	1	NaN	1.16666666666667	2	0.8876953125
1630.00390625	0.00833333333333333	1	30	4.20833333333333	2	0.7802734375
1632.8125	0.00833333333333333	1	30	4.08333333333333	2	0.7392578125
1635.828125	0.00833333333333333	1	30	3.95833333333333	2	0.7158203125
1638.7451171875	0.00833333333333333	1	30	5.95833333333333	2	0.5595703125
1641.5615234375	0.00833333333333333	1	NaN	1.04166666666667	2	0.7109375
1644.38671875	0.00833333333333333	1	NaN	2.54166666666667	2	0.525390625
1647.095703125	0.00833333333333333	1	NaN	0.916666666666666	2	0.4970703125
1649.7783203125	0.00833333333333333	1	-30	-1.5	2	0.5263671875
1652.4619140625	0.00833333333333333	1	NaN	2.41666666666667	2	0.451171875
1655.0947265625	0.00833333333333333	1	30	5.83333333333333	2	0.6025390625
1658.01171875	0.00833333333333333	1	NaN	0.791666666666666	2	0.4931640625
1660.662109375	0.00833333333333333	1	NaN	0.666666666666666	2	0.6748046875
1663.8369140625	0.00833333333333333	1	NaN	2.29166666666667	2	0.572265625
1666.853515625	0.00833333333333333	1	NaN	0.541666666666666	2	0.4599609375
1669.6533203125	0.00833333333333333	1	-30	-1.625	2	0.4599609375
1672.611328125	0.00833333333333333	1	-30	-2.875	1	0.7099609375
1675.6953125	0.00833333333333333	1	NaN	2.16666666666667	2	0.6025390625
1678.7607421875	0.00833333333333333	1	NaN	0.416666666666666	2	0.6806640625
1681.6025390625	0.00833333333333333	1	-30	-2.75	2	0.55078125
1684.6201171875	0.00833333333333333	1	-30	-2.875	2	1.2138671875
1688.2109375	0.00833333333333333	1	-30	-1.75	2	1.1279296875
1691.7275390625	0.00833333333333333	1	NaN	2.04166666666667	2	0.5703125
1694.4775390625	0.00833333333333333	1	30	5.70833333333333	2	0.8291015625
1697.8115234375	0.00833333333333333	1	NaN	0.291666666666666	2	1.478515625
1701.677734375	0.00833333333333333	1	30	3.83333333333333	2	0.62109375
1704.4775390625	0.00833333333333333	1	30	5.58333333333333	2	0.5732421875
1707.4443359375	0.00833333333333333	1	NaN	0.166666666666666	2	0.53515625
1710.4033203125	0.00833333333333333	1	NaN	1.91666666666667	2	1.0556640625
1713.6611328125	0.00833333333333333	1	-30	-3	2	0.60546875
1716.5361328125	0.00833333333333333	1	-30	-1.875	2	0.546875
1719.4365234375	0.00833333333333333	1	30	3.70833333333333	2	0.5185546875
1722.0029296875	0.00833333333333333	1	NaN	0.0416666666666661	2	0.576171875
1725.060546875	0.00833333333333333	1	30	3.58333333333333	2	0.646484375
1727.8193359375	0.00833333333333333	1	NaN	-0.0833333333333339	2	0.8720703125
1731.001953125	0.00833333333333333	1	30	3.45833333333333	2	0.609375
1734.0693359375	0.00833333333333333	1	30	3.33333333333333	2	0.5419921875
1736.77734375	0.00833333333333333	1	30	3.20833333333333	2	0.73046875
1739.84375	0.00833333333333333	1	30	3.08333333333333	2	0.576171875
1742.7841796875	0.00833333333333333	1	NaN	-0.208333333333334	2	0.5390625
1745.5185546875	0.00833333333333333	1	-30	-3.125	2	0.93359375
1748.91015625	0.00833333333333333	1	-30	-3.25	2	0.7021484375
1751.9521484375	0.00833333333333333	1	-30	-2	2	1.419921875
1755.8525390625	0.00833333333333333	1	-30	-2.125	2	0.615234375
1758.8525390625	0.00833333333333333	1	NaN	1.79166666666667	2	0.5517578125
1761.693359375	0.00833333333333333	1	NaN	-0.333333333333334	2	0.623046875
1764.4091796875	0.00833333333333333	1	NaN	1.66666666666667	2	0.5244140625
1767.310546875	0.00833333333333333	1	30	2.95833333333333	2	0.60546875
1770.0263671875	0.00833333333333333	1	-30	-3.375	2	0.7626953125
1773.29296875	0.00833333333333333	1	30	5.45833333333333	2	0.82421875
1776.2353515625	0.00833333333333333	1	-30	-3.5	2	0.705078125
1779.275390625	0.00833333333333333	1	NaN	1.54166666666667	2	0.953125
1782.3095703125	0.00833333333333333	1	-30	-2.25	2	0.50390625
1784.958984375	0.00833333333333333	1	-30	-2.375	2	0.765625
1788.0517578125	0.00833333333333333	1	30	5.33333333333333	2	0.6494140625
1791.16015625	0.00833333333333333	1	-30	-3.625	1	0.708984375
1794.2421875	0.00833333333333333	1	NaN	-0.458333333333334	1	0.787109375
1797.3515625	0.00833333333333333	1	NaN	1.41666666666667	2	1.0537109375
1800.7509765625	0.00833333333333333	1	NaN	1.29166666666667	1	1.20703125
1804.0341796875	0.00833333333333333	1	-30	-2.5	1	0.587890625
1807.009765625	0.00833333333333333	1	30	5.20833333333333	2	0.63671875
1810.0341796875	0.00833333333333333	1	-30	-2.375	1	1.2998046875
1813.458984375	0.00833333333333333	1	30	2.83333333333333	1	0.7392578125
1816.267578125	0.00833333333333333	1	-30	-3.5	1	0.8828125
1819.3349609375	0.00833333333333333	1	30	2.95833333333333	1	0.615234375
1822.458984375	0.00833333333333333	1	30	3.08333333333333	1	0.7158203125
1825.484375	0.00833333333333333	1	30	3.20833333333333	1	0.6181640625
1828.6181640625	0.00833333333333333	1	30	5.08333333333333	1	0.63671875
1831.80078125	0.00833333333333333	1	NaN	-0.333333333333334	1	0.58203125
1834.54296875	0.00833333333333333	1	30	5.20833333333333	1	0.583984375
1837.54296875	0.00833333333333333	1	30	3.33333333333333	1	0.52734375
1840.6259765625	0.00833333333333333	1	30	5.33333333333333	1	0.63671875
1843.6923828125	0.00833333333333333	1	-30	-3.375	1	0.546875
1846.650390625	0.00833333333333333	1	30	5.45833333333333	1	0.8447265625
1850.033203125	0.00833333333333333	1	NaN	-0.208333333333334	1	0.6220703125
1852.8076171875	0.00833333333333333	1	NaN	1.41666666666667	1	0.7275390625
1869.5166015625	0.00833333333333333	1	30	5.58333333333333	2	0.9873046875
1873	0.00833333333333333	1	30	3.45833333333333	1	0.6796875
1875.8916015625	0.00833333333333333	1	NaN	1.54166666666667	1	0.97265625
1879.0673828125	0.00833333333333333	1	30	5.45833333333333	1	0.8681640625
1882.0673828125	0.00833333333333333	1	-30	-2.25	1	0.62109375
1884.8583984375	0.00833333333333333	1	NaN	-0.0833333333333339	1	0.5986328125
1887.80859375	0.00833333333333333	1	30	5.58333333333333	2	0.84765625
1890.9169921875	0.00833333333333333	1	30	5.45833333333333	1	0.68359375
1893.9501953125	0.00833333333333333	1	-30	-3.25	1	0.546875
1896.9580078125	0.00833333333333333	1	30	5.58333333333333	2	0.810546875
1900.0087890625	0.00833333333333333	1	30	3.58333333333333	1	0.591796875
1902.966796875	0.00833333333333333	1	NaN	1.66666666666667	1	0.642578125
1905.80859375	0.00833333333333333	1	30	3.70833333333333	1	0.48828125
1908.44140625	0.00833333333333333	1	30	3.83333333333333	1	0.6162109375
1911.541015625	0.00833333333333333	1	30	3.95833333333333	1	0.4521484375
1914.408203125	0.00833333333333333	1	30	5.45833333333333	1	0.689453125
1917.5	0.00833333333333333	1	NaN	0.0416666666666661	1	0.517578125
1920.408203125	0.00833333333333333	1	30	5.58333333333333	1	0.78515625
1923.6494140625	0.00833333333333333	1	NaN	0.166666666666666	1	0.5283203125
1926.57421875	0.00833333333333333	1	NaN	0.291666666666666	1	0.69140625
1929.791015625	0.00833333333333333	1	-30	-3.125	1	0.5869140625
1932.4912109375	0.00833333333333333	1	-30	-2.125	1	0.638671875
1935.3330078125	0.00833333333333333	1	-30	-2	1	0.564453125
1937.9658203125	0.00833333333333333	1	30	4.08333333333333	1	0.5322265625
1940.5244140625	0.00833333333333333	1	30	5.70833333333333	1	0.6142578125
1943.607421875	0.00833333333333333	1	NaN	1.79166666666667	1	0.6103515625
1946.32421875	0.00833333333333333	1	NaN	0.416666666666666	1	0.5185546875
1949.28125	0.00833333333333333	1	30	4.20833333333333	1	0.521484375
1952.32421875	0.00833333333333333	1	-30	-3	1	0.56640625
1955.099609375	0.00833333333333333	1	-30	-2.875	1	0.5830078125
1958.1826171875	0.00833333333333333	1	-30	-1.875	1	0.64453125
1961.166015625	0.00833333333333333	1	-30	-2.75	1	0.5888671875
1964.0244140625	0.00833333333333333	1	NaN	0.541666666666666	1	0.6748046875
1967.048828125	0.00833333333333333	1	30	4.33333333333333	1	0.6025390625
1969.7236328125	0.00833333333333333	1	NaN	0.666666666666666	1	0.51953125
1972.482421875	0.00833333333333333	1	-30	-1.75	1	0.6650390625
1975.53125	0.00833333333333333	1	NaN	0.791666666666666	1	0.6240234375
1978.5576171875	0.00833333333333333	1	NaN	0.916666666666666	1	0.6142578125
1981.556640625	0.00833333333333333	1	30	4.45833333333333	1	0.5673828125
1984.3232421875	0.00833333333333333	1	-30	-1.625	1	0.640625
1987.1904296875	0.00833333333333333	1	-30	-2.625	1	0.5810546875
1990.306640625	0.00833333333333333	1	NaN	1.91666666666667	1	0.6728515625
1993.4990234375	0.00833333333333333	1	-30	-1.5	1	0.712890625
1996.681640625	0.00833333333333333	1	-30	-1.375	1	0.626953125
1999.45703125	0.00833333333333333	1	NaN	2.04166666666667	2	1.1865234375
2003.0068359375	0.00833333333333333	1	NaN	1.91666666666667	2	0.4853515625
2005.60546875	0.00833333333333333	1	-30	-1.25	2	0.5830078125
2008.33984375	0.00833333333333333	1	30	4.58333333333333	2	0.6884765625
2011.08984375	0.00833333333333333	1	-30	-2.5	2	0.5302734375
2014.03125	0.00833333333333333	1	NaN	1.79166666666667	2	0.4697265625
2016.8564453125	0.00833333333333333	1	-30	-1.375	2	0.4921875
2019.8232421875	0.00833333333333333	1	NaN	1.66666666666667	2	0.4130859375
2022.3486328125	0.00833333333333333	1	NaN	1.54166666666667	2	0.4716796875
2025.2646484375	0.00833333333333333	1	-30	-2.625	2	0.404296875
2027.97265625	0.00833333333333333	1	-30	-1.5	2	0.408203125
2030.6484375	0.00833333333333333	1	30	4.45833333333333	2	0.62890625
2033.7060546875	0.00833333333333333	1	NaN	1.41666666666667	2	0.5146484375
2036.455078125	0.00833333333333333	1	-30	-2.75	2	0.4462890625
2039.1064453125	0.00833333333333333	1	-30	-1.625	2	0.4990234375
2041.9560546875	0.00833333333333333	1	30	4.33333333333333	2	0.4970703125
2044.46484375	0.00833333333333333	1	30	4.20833333333333	2	0.5322265625
2047.2890625	0.00833333333333333	1	30	5.83333333333333	2	0.412109375
2050.0224609375	0.00833333333333333	1	-30	-1.75	2	0.5830078125
2053.0146484375	0.00833333333333333	1	NaN	1.04166666666667	2	0.4951171875
2055.9306640625	0.00833333333333333	1	NaN	1.29166666666667	2	0.5546875
2058.6298828125	0.00833333333333333	1	-30	-2.875	2	0.51953125
2061.4560546875	0.00833333333333333	1	30	4.08333333333333	2	0.5576171875
2064.28125	0.00833333333333333	1	-30	-3	2	0.4443359375
2066.9140625	0.00833333333333333	1	-30	-3.125	2	0.587890625
2069.822265625	0.00833333333333333	1	30	3.95833333333333	2	0.4482421875
2072.73046875	0.00833333333333333	1	-30	-3.25	2	0.484375
2075.3974609375	0.00833333333333333	1	-30	-1.875	2	0.537109375
2078.2890625	0.00833333333333333	1	NaN	0.916666666666666	2	0.40625
2081.013671875	0.00833333333333333	1	NaN	1.16666666666667	2	0.44140625
2083.505859375	0.00833333333333333	1	NaN	1.04166666666667	2	0.548828125
2086.5556640625	0.00833333333333333	1	-30	-3.375	2	0.443359375
2089.2216796875	0.00833333333333333	1	NaN	0.791666666666666	2	0.6015625
2091.830078125	0.00833333333333333	1	NaN	0.916666666666666	2	0.5048828125
2094.3720703125	0.00833333333333333	1	-30	-2	2	0.5068359375
2097.35546875	0.00833333333333333	1	-30	-3.5	2	0.515625
2100.1884765625	0.00833333333333333	1	NaN	0.791666666666666	2	0.458984375
2103.080078125	0.00833333333333333	1	-30	-2.125	2	0.447265625
2105.86328125	0.00833333333333333	1	-30	-2.25	2	0.3837890625
2108.2890625	0.00833333333333333	1	NaN	0.666666666666666	2	0.4462890625
2111.0888671875	0.00833333333333333	1	NaN	0.541666666666666	2	0.439453125
2113.5625	0.00833333333333333	1	-30	-2.375	2	0.708984375
2116.4716796875	0.00833333333333333	1	NaN	0.666666666666666	2	0.4482421875
2119.2216796875	0.00833333333333333	1	-30	-3.625	2	0.3544921875
2121.7470703125	0.00833333333333333	1	NaN	0.541666666666666	2	0.373046875
2124.337890625	0.00833333333333333	1	-30	-2.5	2	0.3984375
2127.24609375	0.00833333333333333	1	30	3.83333333333333	2	0.40234375
2129.7548828125	0.00833333333333333	1	-30	-2.625	2	0.541015625
2132.3798828125	0.00833333333333333	1	-30	-2.75	2	0.5244140625
2134.978515625	0.00833333333333333	1	-30	-2.875	2	0.4619140625
2137.6044921875	0.00833333333333333	1	30	3.70833333333333	2	0.5
2140.1298828125	0.00833333333333333	1	NaN	0.416666666666666	2	0.6708984375
2142.955078125	0.00833333333333333	1	NaN	0.291666666666666	2	0.5419921875
2145.5380859375	0.00833333333333333	1	NaN	0.166666666666666	2	0.4951171875
2148.2880859375	0.00833333333333333	1	30	3.58333333333333	2	0.5849609375
2151.220703125	0.00833333333333333	1	-30	-3.75	2	0.7802734375
2154.0966796875	0.00833333333333333	1	NaN	0.0416666666666661	2	0.583984375
2156.830078125	0.00833333333333333	1	NaN	0.416666666666666	2	0.5146484375
2159.7548828125	0.00833333333333333	1	NaN	-0.0833333333333339	2	0.56640625
2162.654296875	0.00833333333333333	1	NaN	-0.208333333333334	2	0.9794921875
2166.087890625	0.00833333333333333	1	30	3.45833333333333	2	0.5537109375
2168.646484375	0.00833333333333333	1	NaN	0.291666666666666	2	0.634765625
2203.6513671875	0.00833333333333333	1	-30	-3.875	2	0.798828125
2206.5	0.00833333333333333	1	NaN	0.166666666666666	1	0.7587890625
2209.583984375	0.00833333333333333	1	-30	-4	1	0.5703125
2212.5341796875	0.00833333333333333	1	30	3.33333333333333	1	0.4609375
2215.234375	0.00833333333333333	1	NaN	-0.333333333333334	1	0.48828125
2218.0673828125	0.00833333333333333	1	-30	-3.875	1	0.583984375
2220.8837890625	0.00833333333333333	1	-30	-3	1	0.630859375
2223.7001953125	0.00833333333333333	1	30	3.45833333333333	1	0.654296875
2226.8505859375	0.00833333333333333	1	-30	-2.875	1	0.5283203125
2229.5751953125	0.00833333333333333	1	30	3.58333333333333	1	0.5400390625
2232.2509765625	0.00833333333333333	1	-30	-2.75	1	0.5439453125
2235.0087890625	0.00833333333333333	1	NaN	0.291666666666666	1	0.5947265625
2238.150390625	0.00833333333333333	1	30	3.70833333333333	1	0.4775390625
2241.0341796875	0.00833333333333333	1	-30	-3.75	1	0.4970703125
2243.650390625	0.00833333333333333	1	-30	-3.625	1	0.544921875
2246.416015625	0.00833333333333333	1	NaN	-0.208333333333334	1	0.66796875
2249.6337890625	0.00833333333333333	1	-30	-2.625	1	0.5859375
2252.5166015625	0.00833333333333333	1	-30	-3.5	1	0.4716796875
2255.3837890625	0.00833333333333333	1	-30	-3.375	1	0.5078125
2258.2998046875	0.00833333333333333	1	-30	-3.25	1	0.45703125
2261.19140625	0.00833333333333333	1	NaN	0.416666666666666	1	0.62890625
2264.341796875	0.00833333333333333	1	-30	-3.125	1	0.486328125
2266.9736328125	0.00833333333333333	1	NaN	-0.0833333333333339	1	0.55078125
2270.0322265625	0.00833333333333333	1	30	3.83333333333333	1	0.3798828125
2272.607421875	0.00833333333333333	1	-30	-2.5	1	0.5732421875
2275.5830078125	0.00833333333333333	1	-30	-2.375	1	0.5576171875
2278.5166015625	0.00833333333333333	1	NaN	0.0416666666666661	1	0.576171875
2281.1162109375	0.00833333333333333	1	30	3.95833333333333	1	0.4560546875
2284.0908203125	0.00833333333333333	1	30	4.08333333333333	1	0.498046875
2286.974609375	0.00833333333333333	1	30	4.20833333333333	1	0.58203125
2289.8408203125	0.00833333333333333	1	-30	-2.25	1	0.580078125
2292.8408203125	0.00833333333333333	1	NaN	0.541666666666666	1	0.5322265625
2295.6162109375	0.00833333333333333	1	-30	-3	1	0.533203125
2298.3662109375	0.00833333333333333	1	-30	-2.125	1	0.52734375
2301.0830078125	0.00833333333333333	1	NaN	0.666666666666666	1	0.5712890625
2304.1494140625	0.00833333333333333	1	30	4.33333333333333	1	0.736328125
2307.291015625	0.00833333333333333	1	30	4.45833333333333	1	0.5546875
2310.232421875	0.00833333333333333	1	NaN	0.166666666666666	1	0.4775390625
2312.8154296875	0.00833333333333333	1	NaN	0.291666666666666	1	0.4306640625
2315.666015625	0.00833333333333333	1	NaN	0.791666666666666	1	0.6923828125
2318.548828125	0.00833333333333333	1	-30	-2	1	0.376953125
2321.390625	0.00833333333333333	1	-30	-1.875	1	0.5595703125
2324.1494140625	0.00833333333333333	1	-30	-2.875	1	0.45703125
2327.140625	0.00833333333333333	1	NaN	0.416666666666666	1	0.3291015625
2329.6572265625	0.00833333333333333	1	-30	-2.75	1	0.453125
2332.2158203125	0.00833333333333333	1	NaN	0.916666666666666	1	0.375
2335.0078125	0.00833333333333333	1	NaN	0.541666666666666	1	0.4228515625
2338.1064453125	0.00833333333333333	1	-30	-1.75	1	0.5
2340.8486328125	0.00833333333333333	1	30	4.58333333333333	1	0.4296875
2343.7568359375	0.00833333333333333	1	NaN	1.04166666666667	1	0.474609375
2346.3154296875	0.00833333333333333	1	NaN	0.666666666666666	1	0.5
2349.0146484375	0.00833333333333333	1	NaN	1.16666666666667	1	0.3759765625
2351.798828125	0.00833333333333333	1	-30	-2.625	1	0.4404296875
2354.640625	0.00833333333333333	1	30	4.70833333333333	1	0.55078125
2357.556640625	0.00833333333333333	1	-30	-1.625	1	0.4345703125
2360.380859375	0.00833333333333333	1	NaN	1.29166666666667	1	0.4990234375
2363.1904296875	0.00833333333333333	1	-30	-2.5	1	0.544921875
2365.990234375	0.00833333333333333	1	NaN	1.41666666666667	1	0.9208984375
2369.1318359375	0.00833333333333333	1	NaN	0.791666666666666	1	0.4921875
2372.1318359375	0.00833333333333333	1	30	4.83333333333333	1	0.5234375
2375.056640625	0.00833333333333333	1	-30	-2.375	1	0.5361328125
2377.7734375	0.00833333333333333	1	30	4.95833333333333	1	0.5224609375
2380.5234375	0.00833333333333333	1	-30	-2.25	1	0.5322265625
2383.4228515625	0.00833333333333333	1	30	5.08333333333333	1	0.6171875
2386.5146484375	0.00833333333333333	1	-30	-1.5	1	0.4453125
2389.4482421875	0.00833333333333333	1	NaN	0.916666666666666	1	0.423828125
2391.9814453125	0.00833333333333333	1	30	5.20833333333333	1	0.458984375
2394.5732421875	0.00833333333333333	1	-30	-2.125	1	0.4990234375
2397.373046875	0.00833333333333333	1	NaN	1.04166666666667	1	0.923828125
2400.806640625	0.00833333333333333	1	NaN	1.54166666666667	2	0.59375
2403.888671875	0.00833333333333333	1	NaN	1.41666666666667	2	0.49609375
2406.4892578125	0.00833333333333333	1	-30	-1.375	1	0.7998046875
2409.4892578125	0.00833333333333333	1	NaN	1.16666666666667	2	0.52734375
2412.5146484375	0.00833333333333333	1	-30	-2	2	0.470703125
2415.2724609375	0.00833333333333333	1	-30	-1.25	2	0.4970703125
2418.1474609375	0.00833333333333333	1	NaN	1.04166666666667	2	0.3974609375
2420.6064453125	0.00833333333333333	1	-30	-2.125	2	0.4912109375
2423.3388671875	0.00833333333333333	1	NaN	0.916666666666666	2	0.3662109375
2425.880859375	0.00833333333333333	1	-30	-1.375	2	0.408203125
2428.3896484375	0.00833333333333333	1	NaN	1.29166666666667	2	0.443359375
2430.98046875	0.00833333333333333	1	-30	-1.5	2	0.4609375
2433.572265625	0.00833333333333333	1	-30	-1.625	2	0.4052734375
2436.1474609375	0.00833333333333333	1	NaN	1.16666666666667	2	0.654296875
2439.005859375	0.00833333333333333	1	-30	-1.75	2	0.4521484375
2441.5478515625	0.00833333333333333	1	NaN	0.791666666666666	2	0.4619140625
2444.513671875	0.00833333333333333	1	NaN	1.04166666666667	2	0.384765625
2446.880859375	0.00833333333333333	1	-30	-2.25	2	0.697265625
2449.763671875	0.00833333333333333	1	30	5.33333333333333	2	0.455078125
2452.2392578125	0.00833333333333333	1	-30	-2.375	2	0.8115234375
2455.5126953125	0.00833333333333333	1	NaN	0.916666666666666	1	1.0654296875
2458.888671875	0.00833333333333333	1	-30	-2.5	1	1.177734375
2462.4716796875	0.00833333333333333	1	NaN	1.04166666666667	1	0.68359375
2465.546875	0.00833333333333333	1	-30	-1.875	2	0.591796875
2468.3974609375	0.00833333333333333	1	NaN	1.16666666666667	2	0.4697265625
2471.2470703125	0.00833333333333333	1	NaN	0.666666666666666	2	0.5
2474.2470703125	0.00833333333333333	1	-30	-2	2	0.5244140625
2476.771484375	0.00833333333333333	1	30	5.20833333333333	2	0.416015625
2479.4384765625	0.00833333333333333	1	-30	-2.375	2	0.30859375
2481.98046875	0.00833333333333333	1	-30	-2.5	2	0.3515625
2484.513671875	0.00833333333333333	1	NaN	1.04166666666667	2	0.505859375
2487.37890625	0.00833333333333333	1	NaN	0.541666666666666	2	0.384765625
2490.0546875	0.00833333333333333	1	NaN	0.916666666666666	2	0.453125
2492.9384765625	0.00833333333333333	1	30	5.08333333333333	2	0.4970703125
2495.771484375	0.00833333333333333	1	-30	-2.625	2	0.408203125
2498.4296875	0.00833333333333333	1	NaN	0.416666666666666	2	0.4619140625
2501.3466796875	0.00833333333333333	1	NaN	0.791666666666666	2	0.47265625
2509.1298828125	0.00833333333333333	1	NaN	0.666666666666666	2	0.970703125
2512.529296875	0.00833333333333333	1	30	4.95833333333333	2	0.466796875
2515.271484375	0.00833333333333333	1	-30	-2.75	2	0.4775390625
2518.0625	0.00833333333333333	1	NaN	0.541666666666666	1	0.998046875
2521.1884765625	0.00833333333333333	1	-30	-2.125	2	0.583984375
2524.11328125	0.00833333333333333	1	-30	-2.875	1	0.6591796875
2526.794921875	0.00833333333333333	1	NaN	0.666666666666666	2	0.609375
2529.521484375	0.00833333333333333	1	-30	-2.25	2	0.5078125
2532.1962890625	0.00833333333333333	1	-30	-2.375	2	0.8486328125
2535.521484375	0.00833333333333333	1	NaN	0.291666666666666	1	0.8837890625
2538.4873046875	0.00833333333333333	1	-30	-2.75	1	0.58984375
2541.3291015625	0.00833333333333333	1	30	4.83333333333333	2	0.5166015625
2544.00390625	0.00833333333333333	1	30	4.70833333333333	2	0.5771484375
2547.095703125	0.00833333333333333	1	NaN	0.416666666666666	1	0.6220703125
2550.1044921875	0.00833333333333333	1	NaN	0.541666666666666	2	0.5966796875
2553.13671875	0.00833333333333333	1	NaN	0.541666666666666	2	0.5009765625
2555.62109375	0.00833333333333333	1	-30	-2.625	2	0.5361328125
2558.2294921875	0.00833333333333333	1	-30	-2.75	1	0.720703125
2561.078125	0.00833333333333333	1	NaN	0.416666666666666	2	0.6396484375
2564.103515625	0.00833333333333333	1	-30	-2.5	1	1.0146484375
2567.5458984375	0.00833333333333333	1	-30	-2.625	1	0.6923828125
2570.470703125	0.00833333333333333	1	NaN	0.416666666666666	2	0.671875
2573.38671875	0.00833333333333333	1	NaN	0.291666666666666	1	0.748046875
2576.2783203125	0.00833333333333333	1	NaN	0.291666666666666	1	0.9677734375
2579.76171875	0.00833333333333333	1	NaN	0.416666666666666	1	0.64453125
2582.912109375	0.00833333333333333	1	-30	-2.375	1	0.5986328125
2585.6123046875	0.00833333333333333	1	NaN	0.541666666666666	1	0.986328125
2588.9873046875	0.00833333333333333	1	NaN	0.666666666666666	1	0.7236328125
2591.970703125	0.00833333333333333	1	-30	-2.5	1	0.580078125
2595.01171875	0.00833333333333333	1	-30	-2.25	1	0.515625
2597.8193359375	0.00833333333333333	1	-30	-2.375	1	0.4033203125
2600.3701171875	0.00833333333333333	1	30	4.58333333333333	1	0.4609375
2603.1787109375	0.00833333333333333	1	-30	-2.125	1	0.4443359375
2605.8359375	0.00833333333333333	1	-30	-2.25	1	0.427734375
2608.51171875	0.00833333333333333	1	-30	-2	1	0.51171875
2611.39453125	0.00833333333333333	1	30	4.70833333333333	1	0.380859375
2614.103515625	0.00833333333333333	1	-30	-2.125	1	0.3916015625
2616.853515625	0.00833333333333333	1	30	4.83333333333333	1	0.330078125
2619.3447265625	0.00833333333333333	1	30	4.95833333333333	1	0.4150390625
2621.9521484375	0.00833333333333333	1	30	5.08333333333333	1	0.3994140625
2624.861328125	0.00833333333333333	1	NaN	0.791666666666666	1	0.37890625
2627.76953125	0.00833333333333333	1	NaN	0.916666666666666	1	0.3740234375
2630.3369140625	0.00833333333333333	1	30	5.20833333333333	1	0.4150390625
2633.0859375	0.00833333333333333	1	30	5.33333333333333	1	0.3701171875
2635.7607421875	0.00833333333333333	1	NaN	1.04166666666667	1	0.3837890625
2638.677734375	0.00833333333333333	1	30	5.45833333333333	1	0.38671875
2641.34375	0.00833333333333333	1	30	5.58333333333333	2	0.625
2644.01953125	0.00833333333333333	1	NaN	1.16666666666667	2	0.5966796875
2646.869140625	0.00833333333333333	1	30	5.45833333333333	2	0.5556640625
2649.5029296875	0.00833333333333333	1	-30	-2	2	0.578125
2652.1025390625	0.00833333333333333	1	-30	-1.875	1	0.6103515625
2654.8447265625	0.00833333333333333	1	NaN	1.04166666666667	1	0.5478515625
2657.59375	0.00833333333333333	1	-30	-1.75	1	0.6474609375
2660.7685546875	0.00833333333333333	1	-30	-1.625	1	0.560546875
2663.76953125	0.00833333333333333	1	30	5.33333333333333	1	0.7998046875
2666.744140625	0.00833333333333333	1	30	5.45833333333333	1	0.9609375
2669.8427734375	0.00833333333333333	1	NaN	1.16666666666667	1	0.5986328125
2672.9189453125	0.00833333333333333	1	-30	-1.5	1	0.5380859375
2675.927734375	0.00833333333333333	1	NaN	1.29166666666667	1	0.513671875
2678.6181640625	0.00833333333333333	1	-30	-1.375	1	0.623046875
2681.34375	0.00833333333333333	1	NaN	1.41666666666667	2	0.8740234375
2684.609375	0.00833333333333333	1	-30	-1.25	2	0.4482421875
2687.251953125	0.00833333333333333	1	30	5.58333333333333	2	0.494140625
2690.185546875	0.00833333333333333	1	30	5.45833333333333	2	0.5048828125
2693.060546875	0.00833333333333333	1	30	5.33333333333333	2	0.4853515625
2695.7607421875	0.00833333333333333	1	-30	-1.375	2	0.3857421875
2698.5263671875	0.00833333333333333	1	-30	-1.5	2	0.3955078125
2701.3271484375	0.00833333333333333	1	-30	-1.625	2	0.3955078125
2703.943359375	0.00833333333333333	1	-30	-1.75	2	0.4833984375
2706.5439453125	0.00833333333333333	1	-30	-1.875	2	0.4501953125
2709.193359375	0.00833333333333333	1	-30	-2	2	0.4091796875
2712.001953125	0.00833333333333333	1	-30	-2.125	2	0.5849609375
2715.068359375	0.00833333333333333	1	-30	-2.25	2	0.2939453125
2717.7265625	0.00833333333333333	1	-30	-2.375	2	0.2841796875
2720.1435546875	0.00833333333333333	1	-30	-2.5	2	0.4599609375
2723.009765625	0.00833333333333333	1	30	5.20833333333333	2	0.4013671875
2725.759765625	0.00833333333333333	1	30	5.08333333333333	2	0.4033203125
2728.5849609375	0.00833333333333333	1	-30	-2.625	2	0.39453125
2731.216796875	0.00833333333333333	1	30	4.95833333333333	2	0.4267578125
2733.734375	0.00833333333333333	1	-30	-2.75	1	0.876953125
2736.6845703125	0.00833333333333333	1	30	4.83333333333333	2	0.7353515625
2739.67578125	0.00833333333333333	1	30	4.70833333333333	2	0.599609375
2742.4013671875	0.00833333333333333	1	-30	-2.625	2	0.5224609375
2745.0595703125	0.00833333333333333	1	-30	-2.75	2	0.416015625
2747.5009765625	0.00833333333333333	1	30	4.58333333333333	2	0.55078125
2750.4345703125	0.00833333333333333	1	30	4.45833333333333	2	0.5537109375
2753.3173828125	0.00833333333333333	1	-30	-2.875	2	0.88671875
2756.509765625	0.00833333333333333	1	30	4.33333333333333	2	0.5263671875
2759.4013671875	0.00833333333333333	1	-30	-3	2	0.37109375
2762.142578125	0.00833333333333333	1	-30	-3.125	2	0.3740234375
2764.634765625	0.00833333333333333	1	-30	-3.25	2	0.4091796875
2767.091796875	0.00833333333333333	1	-30	-3.375	2	0.4658203125
2769.734375	0.00833333333333333	1	30	4.20833333333333	2	0.509765625
2772.6005859375	0.00833333333333333	1	30	4.08333333333333	2	0.4365234375
2775.2421875	0.00833333333333333	1	-30	-3.5	2	0.5546875
2778.017578125	0.00833333333333333	1	-30	-3.625	2	1.0029296875
2781.30859375	0.00833333333333333	1	30	3.95833333333333	2	0.6572265625
2784.0009765625	0.00833333333333333	1	30	3.83333333333333	2	0.5
2786.9248046875	0.00833333333333333	1	-30	-3.75	2	0.48046875
2789.7412109375	0.00833333333333333	1	30	3.70833333333333	2	0.7119140625
2792.7744140625	0.00833333333333333	1	30	3.58333333333333	2	0.7353515625
2795.8828125	0.00833333333333333	1	30	3.45833333333333	2	0.658203125
2798.6171875	0.00833333333333333	1	-30	-3.875	2	0.412109375
2801.3583984375	0.00833333333333333	1	30	3.33333333333333	2	0.5029296875
2804.2255859375	0.00833333333333333	1	30	3.20833333333333	2	0.6044921875
2807.3583984375	0.00833333333333333	1	30	3.08333333333333	2	0.5673828125
2815.533203125	0.00833333333333333	1	30	2.95833333333333	2	0.81640625
2818.3837890625	0.00833333333333333	1	30	2.83333333333333	2	0.55078125
2821.2333984375	0.00833333333333333	1	-30	-4	2	0.5009765625
2824.0576171875	0.00833333333333333	1	-30	-4.125	2	0.541015625
2827.0078125	0.00833333333333333	1	30	2.70833333333333	1	0.8388671875
2830.0166015625	0.00833333333333333	1	-30	-4.25	2	0.5419921875
2832.974609375	0.00833333333333333	1	-30	-4.375	2	0.3681640625
2835.658203125	0.00833333333333333	1	-30	-4.5	2	1.0361328125
2838.9169921875	0.00833333333333333	1	-30	-4.625	1	0.7705078125
2842.0419921875	0.00833333333333333	1	-30	-4.5	1	0.60546875
2844.93359375	0.00833333333333333	1	-30	-4.375	1	0.5849609375
2847.974609375	0.00833333333333333	1	-30	-4.25	1	0.583984375
2850.9404296875	0.00833333333333333	1	-30	-4.125	1	0.546875
2853.9912109375	0.00833333333333333	1	-30	-4	1	0.6796875
2857.166015625	0.00833333333333333	1	-30	-3.875	1	0.609375
2860.2744140625	0.00833333333333333	1	-30	-3.75	1	0.525390625
2863.25	0.00833333333333333	1	-30	-3.625	1	0.5419921875
2865.8486328125	0.00833333333333333	1	-30	-3.5	1	0.478515625
2868.474609375	0.00833333333333333	1	-30	-3.375	1	0.541015625
2871.2744140625	0.00833333333333333	1	-30	-3.25	1	0.4775390625
2873.857421875	0.00833333333333333	1	-30	-3.125	1	0.57421875
2876.6572265625	0.00833333333333333	1	-30	-3	1	0.478515625
2879.5400390625	0.00833333333333333	1	-30	-2.875	1	0.5322265625
2882.44921875	0.00833333333333333	1	-30	-2.75	1	0.5986328125
2885.1484375	0.00833333333333333	1	-30	-2.625	1	0.572265625
2887.82421875	0.00833333333333333	1	-30	-2.5	1	0.6162109375
2890.7568359375	0.00833333333333333	1	-30	-2.375	1	0.7080078125
2893.95703125	0.00833333333333333	1	-30	-2.25	1	0.5390625
2896.9228515625	0.00833333333333333	1	-30	-2.125	1	0.5263671875
2899.6494140625	0.00833333333333333	1	-30	-2	1	0.5673828125
2902.5322265625	0.00833333333333333	1	-30	-1.875	1	0.5966796875
2905.390625	0.00833333333333333	1	-30	-1.75	1	0.5703125
2908.20703125	0.00833333333333333	1	-30	-1.625	1	0.5380859375
2910.923828125	0.00833333333333333	1	-30	-1.5	1	0.5498046875
2913.8818359375	0.00833333333333333	1	-30	-1.375	1	0.5673828125
2916.6484375	0.00833333333333333	1	-30	-1.25	1	0.48046875
2919.33203125	0.00833333333333333	1	-30	-1.125	1	0.509765625
2921.8740234375	0.00833333333333333	1	-30	-1	1	0.84765625
2925.20703125	0.00833333333333333	1	-30	-0.875	1	0.4501953125
2928.1982421875	0.00833333333333333	1	-30	-0.75	1	0.435546875
2931.115234375	0.00833333333333333	1	-30	-0.625	1	0.2626953125
2933.798828125	0.00833333333333333	1	-30	-0.5	1	0.4111328125
2936.47265625	0.00833333333333333	1	-30	-0.375	1	0.384765625
2939.240234375	0.00833333333333333	1	-30	-0.25	1	0.3134765625
2941.85546875	0.00833333333333333	1	-30	-0.125	1	0.37890625
2944.6484375	0.00833333333333333	1	-30	0	1	0.3134765625
2947.4482421875	0.00833333333333333	1	-30	0.125	1	0.2421875
2950.0234375	0.00833333333333333	1	-30	0.25	1	0.466796875
2952.9228515625	0.00833333333333333	1	-30	0.375	1	0.3759765625
2955.4814453125	0.00833333333333333	1	-30	0.5	1	0.3212890625
2958.03125	0.00833333333333333	1	-30	0.625	1	0.37109375
2960.681640625	0.00833333333333333	1	-30	0.75	1	2.4970703125
2965.4150390625	0.00833333333333333	1	-30	0.875	1	0.6435546875
2968.5068359375	0.00833333333333333	1	-30	1	1	0.576171875
2971.34765625	0.00833333333333333	1	-30	1.125	1	0.4951171875
2974.1982421875	0.00833333333333333	1	-30	1.25	1	0.5009765625
2977.0146484375	0.00833333333333333	1	-30	1.375	1	0.388671875
2979.7470703125	0.00833333333333333	1	-30	1.5	1	0.34375
2982.2060546875	0.00833333333333333	1	-30	1.625	1	0.3818359375
2984.7646484375	0.00833333333333333	1	-30	1.75	1	0.4951171875
2987.6474609375	0.00833333333333333	1	-30	1.875	1	0.2919921875
2990.2978515625	0.00833333333333333	1	-30	2	1	0.5693359375
2993.3388671875	0.00833333333333333	1	-30	2.125	1	0.537109375
2996.0810546875	0.00833333333333333	1	-30	2.25	1	0.474609375
2998.6396484375	0.00833333333333333	1	-30	2.375	1	0.4599609375
3001.1640625	0.00833333333333333	1	-30	2.5	1	0.3681640625
3003.7138671875	0.00833333333333333	1	-30	2.625	1	0.3779296875
3006.3974609375	0.00833333333333333	1	-30	2.75	1	0.40625
3008.9306640625	0.00833333333333333	1	-30	2.875	2	0.9052734375
3012.2890625	0.00833333333333333	0	-30	-2.30625	1	0.603515625
3015.255859375	0.00833333333333333	0	-30	-2.30625	1	0.5322265625
3018.0556640625	0.00833333333333333	0	-30	-2.30625	1	0.4765625
3020.9306640625	0.00833333333333333	0	30	4.98958333333333	1	0.4658203125
3023.7646484375	0.00833333333333333	0	-30	-2.30625	1	0.51171875
3026.755859375	0.00833333333333333	0	30	4.98958333333333	1	0.44921875
3029.580078125	0.00833333333333333	0	-30	-2.30625	1	0.369140625
3032.4052734375	0.00833333333333333	0	30	4.98958333333333	1	0.3916015625
3035.1806640625	0.00833333333333333	0	30	4.98958333333333	1	0.3046875
3037.5888671875	0.00833333333333333	0	30	4.98958333333333	1	0.392578125
3040.1376953125	0.00833333333333333	0	30	5.11458333333333	1	0.4755859375
3043.0048828125	0.00833333333333333	0	-30	-2.18125	1	0.2880859375
3045.48828125	0.00833333333333333	0	30	5.11458333333333	1	0.28515625
3048.212890625	0.00833333333333333	0	30	5.11458333333333	1	0.232421875
3050.921875	0.00833333333333333	0	-30	-2.18125	1	0.2919921875
3053.3046875	0.00833333333333333	0	-30	-2.18125	1	0.3173828125
3055.830078125	0.00833333333333333	0	-30	-2.18125	1	0.3115234375
3058.205078125	0.00833333333333333	0	-30	-2.18125	1	0.376953125
3060.720703125	0.00833333333333333	0	30	5.11458333333333	1	0.3251953125
3063.3798828125	0.00833333333333333	0	30	5.11458333333333	1	0.330078125
3066.1552734375	0.00833333333333333	0	30	5.23958333333333	1	0.3310546875
3068.779296875	0.00833333333333333	0	30	5.23958333333333	1	0.3310546875
3071.24609375	0.00833333333333333	0	30	5.23958333333333	1	0.4404296875
3073.74609375	0.00833333333333333	0	30	5.23958333333333	1	0.32421875
3076.146484375	0.00833333333333333	0	-30	-2.05625	1	0.3076171875
3078.6962890625	0.00833333333333333	0	30	5.23958333333333	1	0.2705078125
3081.37109375	0.00833333333333333	0	-30	-2.05625	1	0.2998046875
3084.021484375	0.00833333333333333	0	30	5.36458333333333	1	0.2890625
3086.6376953125	0.00833333333333333	0	-30	-2.05625	1	0.2646484375
3089.2958984375	0.00833333333333333	0	-30	-2.05625	1	0.294921875
3091.720703125	0.00833333333333333	0	-30	-2.05625	1	0.3583984375
3094.2958984375	0.00833333333333333	0	30	5.36458333333333	1	1.3193359375
3097.7294921875	0.00833333333333333	0	-30	-1.93125	1	0.62109375
3100.5712890625	0.00833333333333333	0	-30	-1.93125	1	0.4599609375
3103.529296875	0.00833333333333333	0	30	5.36458333333333	1	0.677734375
3106.4462890625	0.00833333333333333	0	30	5.36458333333333	1	0.384765625
3109.1123046875	0.00833333333333333	0	-30	-1.93125	1	0.439453125
3111.6708984375	0.00833333333333333	0	30	5.36458333333333	1	0.4892578125
3114.654296875	0.00833333333333333	0	30	5.48958333333333	1	0.369140625
3117.1875	0.00833333333333333	0	-30	-1.93125	1	0.3076171875
3119.6611328125	0.00833333333333333	0	-30	-1.93125	1	0.4267578125
3122.1376953125	0.00833333333333333	0	30	5.48958333333333	1	0.333984375
3124.6455078125	0.00833333333333333	0	30	5.48958333333333	1	0.490234375
3127.25390625	0.00833333333333333	0	-30	-1.80625	1	0.330078125
3129.8037109375	0.00833333333333333	0	30	5.48958333333333	1	0.3408203125
3132.3125	0.00833333333333333	0	30	5.48958333333333	1	0.3193359375
3134.9453125	0.00833333333333333	0	30	5.61458333333333	1	0.3271484375
3137.7373046875	0.00833333333333333	0	30	5.61458333333333	1	0.470703125
3140.720703125	0.00833333333333333	0	-30	-1.80625	1	0.3837890625
3143.37890625	0.00833333333333333	0	-30	-1.80625	1	0.421875
3146.14453125	0.00833333333333333	0	30	5.61458333333333	1	0.408203125
3148.76171875	0.00833333333333333	0	30	5.61458333333333	1	0.55859375
3151.662109375	0.00833333333333333	0	-30	-1.80625	1	0.3544921875
3154.3623046875	0.00833333333333333	0	-30	-1.80625	1	0.375
3157.228515625	0.00833333333333333	0	30	5.61458333333333	1	0.3720703125
3159.9365234375	0.00833333333333333	0	30	5.73958333333333	1	0.49609375
3162.8955078125	0.00833333333333333	0	30	5.73958333333333	1	0.4580078125
3165.8447265625	0.00833333333333333	0	-30	-1.68125	1	0.62890625
3168.6865234375	0.00833333333333333	0	30	5.73958333333333	1	0.5703125
3171.7529296875	0.00833333333333333	0	30	5.73958333333333	1	0.7373046875
3174.76171875	0.00833333333333333	0	-30	-1.68125	1	0.6640625
3177.51953125	0.00833333333333333	0	30	5.73958333333333	1	0.5625
3180.5185546875	0.00833333333333333	0	-30	-1.68125	1	0.5712890625
3183.611328125	0.00833333333333333	0	30	5.86458333333333	1	0.4140625
3186.3701171875	0.00833333333333333	0	30	5.86458333333333	2	0.6162109375
3189.4111328125	0.00833333333333333	0	-30	-1.68125	1	0.7509765625
3192.63671875	0.00833333333333333	0	30	5.86458333333333	1	1.6533203125
3196.568359375	0.00833333333333333	0	30	5.86458333333333	1	0.521484375
3199.5947265625	0.00833333333333333	0	-30	-1.68125	2	0.4794921875
3202.5693359375	0.00833333333333333	0	30	5.86458333333333	2	0.5771484375
3205.369140625	0.00833333333333333	0	-30	-1.68125	2	0.529296875
3208.2939453125	0.00833333333333333	0	-30	-1.68125	2	0.6767578125
3211.369140625	0.00833333333333333	0	30	5.86458333333333	2	0.5859375
3214.03515625	0.00833333333333333	0	-30	-1.68125	2	0.4951171875
3216.6025390625	0.00833333333333333	0	-30	-1.68125	2	0.4326171875
3219.1435546875	0.00833333333333333	0	30	5.86458333333333	2	0.4443359375
3221.8193359375	0.00833333333333333	0	30	5.86458333333333	2	0.431640625
3224.41015625	0.00833333333333333	0	30	5.86458333333333	2	0.47265625
3227.1357421875	0.00833333333333333	0	30	5.73958333333333	2	0.4833984375
3229.7939453125	0.00833333333333333	0	30	5.73958333333333	2	0.5537109375
3242.7431640625	0.00833333333333333	0	-30	-1.80625	2	0.8046875
3245.802734375	0.00833333333333333	0	30	5.73958333333333	2	0.6337890625
3248.501953125	0.00833333333333333	0	30	5.73958333333333	2	0.7578125
3251.6025390625	0.00833333333333333	0	-30	-1.80625	2	0.4736328125
3254.501953125	0.00833333333333333	0	30	5.73958333333333	2	0.654296875
3257.34375	0.00833333333333333	0	-30	-1.80625	2	0.4677734375
3260.0439453125	0.00833333333333333	0	30	5.61458333333333	2	0.416015625
3262.7607421875	0.00833333333333333	0	30	5.61458333333333	2	0.5
3265.583984375	0.00833333333333333	0	-30	-1.80625	2	0.3564453125
3267.9765625	0.00833333333333333	0	30	5.61458333333333	2	0.4677734375
3270.6767578125	0.00833333333333333	0	30	5.61458333333333	2	0.599609375
3273.7685546875	0.00833333333333333	0	30	5.61458333333333	2	0.3642578125
3276.41796875	0.00833333333333333	0	-30	-1.80625	2	0.4267578125
3279.1171875	0.00833333333333333	0	-30	-1.93125	2	0.3515625
3281.91015625	0.00833333333333333	0	-30	-1.93125	2	0.3349609375
3284.6435546875	0.00833333333333333	0	-30	-1.93125	2	0.4169921875
3287.376953125	0.00833333333333333	0	-30	-1.93125	2	0.2763671875
3289.9013671875	0.00833333333333333	0	30	5.48958333333333	2	0.34375
3292.3349609375	0.00833333333333333	0	30	5.48958333333333	2	0.4462890625
3294.9267578125	0.00833333333333333	0	-30	-1.93125	2	0.3583984375
3297.484375	0.00833333333333333	0	30	5.48958333333333	2	0.361328125
3299.91796875	0.00833333333333333	0	-30	-2.05625	2	0.6318359375
3302.7431640625	0.00833333333333333	0	-30	-2.05625	2	0.24609375
3305.109375	0.00833333333333333	0	-30	-2.05625	2	0.3681640625
3307.8515625	0.00833333333333333	0	30	5.48958333333333	2	0.330078125
3310.5263671875	0.00833333333333333	0	30	5.48958333333333	2	0.3271484375
3313.076171875	0.00833333333333333	0	30	5.36458333333333	2	0.3134765625
3315.634765625	0.00833333333333333	0	30	5.36458333333333	2	0.2275390625
3317.9931640625	0.00833333333333333	0	-30	-2.05625	2	0.30859375
3320.41796875	0.00833333333333333	0	-30	-2.05625	2	0.30859375
3322.7763671875	0.00833333333333333	0	30	5.36458333333333	2	0.326171875
3325.30078125	0.00833333333333333	0	30	5.36458333333333	2	0.2734375
3327.8505859375	0.00833333333333333	0	-30	-2.18125	2	0.3798828125
3330.583984375	0.00833333333333333	0	-30	-2.18125	2	0.40625
3333.158203125	0.00833333333333333	0	-30	-2.18125	2	0.4560546875
3335.826171875	0.00833333333333333	0	-30	-2.18125	2	0.4287109375
3338.6259765625	0.00833333333333333	0	30	5.36458333333333	2	0.4765625
3341.43359375	0.00833333333333333	0	30	5.23958333333333	2	0.453125
3344.208984375	0.00833333333333333	0	-30	-2.18125	2	0.318359375
3346.55859375	0.00833333333333333	0	-30	-2.30625	2	0.416015625
3349.3330078125	0.00833333333333333	0	-30	-2.30625	2	0.59375
3352.43359375	0.00833333333333333	0	-30	-2.30625	2	0.3818359375
3354.8837890625	0.00833333333333333	0	30	5.23958333333333	2	0.4599609375
3357.6923828125	0.00833333333333333	0	30	5.23958333333333	2	0.3955078125
3360.1669921875	0.00833333333333333	0	30	5.23958333333333	2	0.3603515625
3362.716796875	0.00833333333333333	0	30	5.23958333333333	2	0.3388671875
3365.1171875	0.00833333333333333	0	30	5.11458333333333	2	0.3388671875
3367.80078125	0.00833333333333333	0	30	5.11458333333333	2	0.2626953125
3370.17578125	0.00833333333333333	0	30	5.11458333333333	2	0.3359375
3372.775390625	0.00833333333333333	0	-30	-2.30625	2	0.3447265625
3375.208984375	0.00833333333333333	0	30	5.11458333333333	2	0.4951171875
3377.75	0.00833333333333333	0	-30	-2.30625	2	0.353515625
3380.3583984375	0.00833333333333333	0	30	5.11458333333333	2	0.6494140625
3383.2919921875	0.00833333333333333	0	-30	-2.43125	1	0.740234375
3386.4833984375	0.00833333333333333	0	30	4.98958333333333	1	0.556640625
3389.416015625	0.00833333333333333	0	-30	-2.43125	1	0.744140625
3392.2001953125	0.00833333333333333	0	-30	-2.43125	1	0.751953125
3395.4169921875	0.00833333333333333	0	30	4.98958333333333	1	1.2392578125
3398.775390625	0.00833333333333333	0	30	4.98958333333333	1	1.193359375
3402.349609375	0.00833333333333333	0	-30	-2.43125	1	0.6591796875
3405.525390625	0.00833333333333333	0	-30	-2.43125	2	1.115234375
3408.8916015625	0.00833333333333333	0	30	4.98958333333333	2	1.205078125
3412.2080078125	0.00833333333333333	0	30	4.98958333333333	2	0.6171875
3414.9833984375	0.00833333333333333	0	30	4.98958333333333	2	0.521484375
3417.6416015625	0.00833333333333333	0	-30	-2.43125	2	0.8720703125
3421.015625	0.00833333333333333	0	-30	-2.43125	2	0.4814453125
3423.908203125	0.00833333333333333	0	30	4.98958333333333	2	0.4697265625
3426.916015625	0.00833333333333333	0	-30	-2.43125	2	0.4453125
3429.69140625	0.00833333333333333	0	-30	-2.43125	2	0.8623046875
3432.791015625	0.00833333333333333	0	-30	-2.55625	2	0.6904296875
3435.724609375	0.00833333333333333	0	-30	-2.55625	2	0.517578125
3438.357421875	0.00833333333333333	0	-30	-2.55625	2	0.4921875
3441.283203125	0.00833333333333333	0	-30	-2.55625	2	0.646484375
3444.4658203125	0.00833333333333333	0	30	4.98958333333333	2	0.5283203125
3447.1328125	0.00833333333333333	0	-30	-2.55625	2	0.525390625
3450.041015625	0.00833333333333333	0	-30	-2.68125	2	0.3291015625
3452.7412109375	0.00833333333333333	0	30	4.86458333333333	2	0.29296875
3455.0654296875	0.00833333333333333	0	-30	-2.68125	2	0.392578125
3457.923828125	0.00833333333333333	0	30	4.86458333333333	2	0.390625
3460.4990234375	0.00833333333333333	0	30	4.86458333333333	2	0.3681640625
3466.291015625	0.00833333333333333	0	-30	-2.68125	2	0.5595703125
3469.240234375	0.00833333333333333	0	-30	-2.68125	2	0.4267578125
3471.7734375	0.00833333333333333	0	30	4.86458333333333	2	0.421875
3474.6240234375	0.00833333333333333	0	-30	-2.68125	2	0.451171875
3477.390625	0.00833333333333333	0	30	4.86458333333333	2	0.4365234375
3480.0234375	0.00833333333333333	0	30	4.73958333333333	2	0.3876953125
3482.7822265625	0.00833333333333333	0	30	4.73958333333333	2	0.4208984375
3485.69921875	0.00833333333333333	0	30	4.73958333333333	1	1.0009765625
3488.890625	0.00833333333333333	0	-30	-2.80625	1	0.6083984375
3491.7314453125	0.00833333333333333	0	30	4.73958333333333	1	0.6005859375
3494.548828125	0.00833333333333333	0	30	4.73958333333333	1	0.5029296875
3497.1982421875	0.00833333333333333	0	-30	-2.80625	1	0.4619140625
3499.72265625	0.00833333333333333	0	30	4.73958333333333	1	0.4013671875
3502.2060546875	0.00833333333333333	0	-30	-2.80625	1	0.3974609375
3504.740234375	0.00833333333333333	0	30	4.73958333333333	1	0.3759765625
3507.33984375	0.00833333333333333	0	-30	-2.80625	1	0.392578125
3510.09765625	0.00833333333333333	0	30	4.86458333333333	1	0.41015625
3513.0234375	0.00833333333333333	0	-30	-2.80625	1	0.4287109375
3515.6474609375	0.00833333333333333	0	30	4.86458333333333	1	0.373046875
3518.123046875	0.00833333333333333	0	30	4.86458333333333	1	0.345703125
3520.9560546875	0.00833333333333333	0	30	4.86458333333333	1	0.3125
3523.689453125	0.00833333333333333	0	-30	-2.68125	1	0.443359375
3526.3232421875	0.00833333333333333	0	-30	-2.68125	1	0.3779296875
3528.78125	0.00833333333333333	0	-30	-2.68125	1	0.3916015625
3531.6396484375	0.00833333333333333	0	30	4.86458333333333	1	0.4052734375
3534.380859375	0.00833333333333333	0	-30	-2.68125	1	0.3525390625
3537.2646484375	0.00833333333333333	0	-30	-2.68125	1	0.2685546875
3540.0400390625	0.00833333333333333	0	30	4.98958333333333	1	0.2294921875
3542.5732421875	0.00833333333333333	0	-30	-2.55625	1	0.34375
3545.1728515625	0.00833333333333333	0	-30	-2.55625	1	0.2802734375
3547.6064453125	0.00833333333333333	0	30	4.98958333333333	1	0.3193359375
3550.03125	0.00833333333333333	0	-30	-2.55625	1	0.3427734375
3552.72265625	0.00833333333333333	0	-30	-2.55625	1	0.5068359375
3555.53125	0.00833333333333333	0	-30	-2.55625	1	0.306640625
3558.11328125	0.00833333333333333	0	-30	-2.43125	1	0.4609375
3560.822265625	0.00833333333333333	0	30	4.98958333333333	1	0.3681640625
3563.439453125	0.00833333333333333	0	-30	-2.43125	1	0.4541015625
3566.15625	0.00833333333333333	0	30	4.98958333333333	1	0.41015625
3568.8388671875	0.00833333333333333	0	-30	-2.43125	1	0.462890625
3571.6142578125	0.00833333333333333	0	-30	-2.43125	1	0.4716796875
3574.3466796875	0.00833333333333333	0	-30	-2.43125	1	0.2841796875
3576.8720703125	0.00833333333333333	0	30	4.98958333333333	1	0.0625
3579.080078125	0.00833333333333333	0	-30	-2.30625	1	0.3740234375
3581.7890625	0.00833333333333333	0	-30	-2.30625	1	0.4091796875
3584.4970703125	0.00833333333333333	0	-30	-2.30625	1	0.4296875
3587.072265625	0.00833333333333333	0	30	5.11458333333333	1	0.3740234375
3589.6298828125	0.00833333333333333	0	-30	-2.30625	1	0.4892578125
3592.4052734375	0.00833333333333333	0	-30	-2.30625	1	0.3056640625
3594.9970703125	0.00833333333333333	0	30	5.11458333333333	1	0.40234375
3597.9052734375	0.00833333333333333	0	-30	-2.18125	1	0.357421875
3600.4970703125	0.00833333333333333	0	30	5.11458333333333	1	0.3896484375
3603.1552734375	0.00833333333333333	0	30	5.11458333333333	1	0.404296875
3605.697265625	0.00833333333333333	0	-30	-2.18125	1	0.3017578125
3608.080078125	0.00833333333333333	0	-30	-2.18125	1	0.3193359375
3610.6796875	0.00833333333333333	0	30	5.11458333333333	1	0.2880859375
3613.48828125	0.00833333333333333	0	-30	-2.18125	1	0.431640625
3616.3388671875	0.00833333333333333	0	30	5.23958333333333	1	0.3330078125
3619.11328125	0.00833333333333333	0	-30	-2.18125	1	0.40625
3621.7802734375	0.00833333333333333	0	30	5.23958333333333	1	0.37109375
3624.2216796875	0.00833333333333333	0	30	5.23958333333333	1	0.41015625
3627.00390625	0.00833333333333333	0	-30	-2.05625	1	0.267578125
3629.646484375	0.00833333333333333	0	30	5.23958333333333	1	0.353515625
3632.279296875	0.00833333333333333	0	30	5.23958333333333	1	0.392578125
3634.779296875	0.00833333333333333	0	-30	-2.05625	1	0.396484375
3637.49609375	0.00833333333333333	0	30	5.36458333333333	1	0.416015625
3640.2880859375	0.00833333333333333	0	-30	-2.05625	1	0.3037109375
3642.7705078125	0.00833333333333333	0	-30	-2.05625	1	0.4619140625
3645.771484375	0.00833333333333333	0	-30	-2.05625	1	0.453125
3648.5126953125	0.00833333333333333	0	30	5.36458333333333	1	0.5439453125
3651.1708984375	0.00833333333333333	0	-30	-1.93125	1	0.501953125
3654.11328125	0.00833333333333333	0	30	5.36458333333333	1	0.3837890625
3656.720703125	0.00833333333333333	0	30	5.36458333333333	1	0.392578125
3659.4296875	0.00833333333333333	0	30	5.36458333333333	1	0.3955078125
3662.0546875	0.00833333333333333	0	-30	-1.93125	1	0.322265625
3664.5703125	0.00833333333333333	0	30	5.48958333333333	1	0.3271484375
3667.25390625	0.00833333333333333	0	-30	-1.93125	1	0.34765625
3670.0126953125	0.00833333333333333	0	30	5.48958333333333	1	0.30078125
3672.3876953125	0.00833333333333333	0	-30	-1.93125	1	0.4541015625
3675.2705078125	0.00833333333333333	0	30	5.48958333333333	1	0.3466796875
3677.8212890625	0.00833333333333333	0	-30	-1.93125	1	0.396484375
3684.4033203125	0.00833333333333333	0	30	5.48958333333333	2	0.814453125
3687.5859375	0.00833333333333333	0	-30	-1.80625	1	0.83203125
3690.5625	0.00833333333333333	0	-30	-1.80625	2	0.50390625
3693.3193359375	0.00833333333333333	0	-30	-1.80625	2	0.634765625
3696.203125	0.00833333333333333	0	-30	-1.80625	2	0.5595703125
3698.845703125	0.00833333333333333	0	30	5.48958333333333	2	0.6845703125
3701.662109375	0.00833333333333333	0	-30	-1.80625	2	0.564453125
3704.6201171875	0.00833333333333333	0	30	5.48958333333333	2	0.7099609375
3707.4287109375	0.00833333333333333	0	30	5.48958333333333	2	0.4775390625
3710.169921875	0.00833333333333333	0	-30	-1.80625	2	0.46484375
3713.0869140625	0.00833333333333333	0	30	5.48958333333333	2	0.69140625
3716.3291015625	0.00833333333333333	0	30	5.36458333333333	2	0.5615234375
3719.3623046875	0.00833333333333333	0	30	5.36458333333333	2	0.5205078125
3722.1201171875	0.00833333333333333	0	-30	-1.93125	2	0.6669921875
3725.103515625	0.00833333333333333	0	-30	-1.93125	2	0.5556640625
3728.037109375	0.00833333333333333	0	30	5.36458333333333	2	0.3740234375
3730.7783203125	0.00833333333333333	0	30	5.36458333333333	2	0.46484375
3733.361328125	0.00833333333333333	0	30	5.36458333333333	2	0.5302734375
3736.3203125	0.00833333333333333	0	-30	-1.93125	2	0.435546875
3739.1865234375	0.00833333333333333	0	30	5.23958333333333	2	0.3134765625
3741.728515625	0.00833333333333333	0	-30	-1.93125	2	0.3955078125
3744.2197265625	0.00833333333333333	0	-30	-1.93125	2	0.5205078125
3746.8623046875	0.00833333333333333	0	30	5.23958333333333	2	0.6533203125
3749.703125	0.00833333333333333	0	-30	-2.05625	1	0.65234375
3752.869140625	0.00833333333333333	0	30	5.23958333333333	1	0.6630859375
3755.6279296875	0.00833333333333333	0	30	5.23958333333333	1	0.408203125
3758.552734375	0.00833333333333333	0	-30	-2.05625	1	0.3798828125
3761.1025390625	0.00833333333333333	0	-30	-2.05625	1	0.3974609375
3763.9111328125	0.00833333333333333	0	30	5.23958333333333	1	0.4375
3766.5615234375	0.00833333333333333	0	30	5.23958333333333	1	0.5146484375
3769.552734375	0.00833333333333333	0	30	5.23958333333333	1	0.419921875
3772.2197265625	0.00833333333333333	0	30	5.36458333333333	1	0.529296875
3775.126953125	0.00833333333333333	0	-30	-2.05625	1	0.4384765625
3777.8779296875	0.00833333333333333	0	30	5.36458333333333	1	0.375
3780.6689453125	0.00833333333333333	0	-30	-2.05625	1	0.3525390625
3783.193359375	0.00833333333333333	0	30	5.36458333333333	1	0.419921875
3786.0693359375	0.00833333333333333	0	30	5.36458333333333	1	0.423828125
3788.7939453125	0.00833333333333333	0	-30	-1.93125	1	0.3154296875
3791.4521484375	0.00833333333333333	0	-30	-1.93125	1	1.9208984375
3795.8017578125	0.00833333333333333	0	-30	-1.93125	2	0.748046875
3798.90234375	0.00833333333333333	0	-30	-1.93125	2	0.7109375
3801.677734375	0.00833333333333333	0	30	5.36458333333333	2	0.6396484375
3804.494140625	0.00833333333333333	0	-30	-1.93125	1	0.6953125
3807.66015625	0.00833333333333333	0	-30	-1.93125	1	0.689453125
3810.5693359375	0.00833333333333333	0	-30	-1.93125	1	0.6123046875
3813.244140625	0.00833333333333333	0	-30	-1.93125	1	0.41796875
3815.7607421875	0.00833333333333333	0	30	5.36458333333333	1	0.5576171875
3818.40234375	0.00833333333333333	0	-30	-1.93125	1	0.515625
3821.0771484375	0.00833333333333333	0	30	5.36458333333333	1	2.712890625
3826.2939453125	0.00833333333333333	0	-30	-1.80625	1	0.712890625
3829.27734375	0.00833333333333333	0	-30	-1.80625	2	0.5849609375
3832.15234375	0.00833333333333333	0	-30	-1.80625	2	0.57421875
3834.876953125	0.00833333333333333	0	30	5.36458333333333	2	0.6025390625
3837.6181640625	0.00833333333333333	0	-30	-1.80625	2	0.4287109375
3840.267578125	0.00833333333333333	0	-30	-1.80625	2	0.466796875
3843.126953125	0.00833333333333333	0	-30	-1.80625	2	0.4482421875
3846.0341796875	0.00833333333333333	0	-30	-1.93125	2	0.46875
3848.685546875	0.00833333333333333	0	30	5.36458333333333	2	0.3857421875
3851.134765625	0.00833333333333333	0	-30	-1.93125	2	0.4248046875
3853.93359375	0.00833333333333333	0	30	5.36458333333333	2	0.5380859375
3856.7353515625	0.00833333333333333	0	-30	-1.93125	2	0.3125
3859.09375	0.00833333333333333	0	-30	-1.93125	2	0.3857421875
3861.859375	0.00833333333333333	0	-30	-1.93125	2	0.404296875
3864.4931640625	0.00833333333333333	0	-30	-2.05625	2	0.3310546875
3867.2509765625	0.00833333333333333	0	-30	-2.05625	2	0.3408203125
3869.6845703125	0.00833333333333333	0	30	5.36458333333333	2	0.7548828125
3872.642578125	0.00833333333333333	0	30	5.36458333333333	2	0.4609375
3875.568359375	0.00833333333333333	0	-30	-2.05625	2	0.3515625
3878.0009765625	0.00833333333333333	0	30	5.23958333333333	2	0.4072265625
3880.7431640625	0.00833333333333333	0	30	5.23958333333333	2	0.3447265625
3883.1591796875	0.00833333333333333	0	30	5.23958333333333	2	0.353515625
3885.67578125	0.00833333333333333	0	30	5.23958333333333	2	0.2841796875
3888.4345703125	0.00833333333333333	0	-30	-2.05625	2	0.4853515625
3891.134765625	0.00833333333333333	0	-30	-2.05625	2	0.44140625
3893.8173828125	0.00833333333333333	0	30	5.23958333333333	2	0.4306640625
3896.42578125	0.00833333333333333	0	30	5.11458333333333	2	0.447265625
3899.3095703125	0.00833333333333333	0	30	5.11458333333333	2	0.4345703125
3901.9755859375	0.00833333333333333	0	-30	-2.18125	2	0.5048828125
3904.9677734375	0.00833333333333333	0	30	5.11458333333333	2	0.43359375
3907.8173828125	0.00833333333333333	0	-30	-2.18125	1	0.6953125
3919.9921875	0.00833333333333333	0	-30	-2.18125	2	0.880859375
3923.208984375	0.00833333333333333	0	30	5.11458333333333	2	0.96875
3926.466796875	0.00833333333333333	0	30	5.11458333333333	2	0.654296875
3929.4921875	0.00833333333333333	0	-30	-2.18125	1	0.541015625
3932.0341796875	0.00833333333333333	0	-30	-2.18125	1	0.51171875
3934.650390625	0.00833333333333333	0	-30	-2.18125	1	0.4150390625
3937.19140625	0.00833333333333333	0	-30	-2.18125	1	0.4111328125
3940.0498046875	0.00833333333333333	0	30	4.98958333333333	2	0.7197265625
3942.841796875	0.00833333333333333	0	-30	-2.18125	2	0.576171875
3945.6083984375	0.00833333333333333	0	-30	-2.18125	2	0.330078125
3948.1923828125	0.00833333333333333	0	30	4.98958333333333	1	0.74609375
3951.275390625	0.00833333333333333	0	30	4.98958333333333	2	1.0869140625
3954.44140625	0.00833333333333333	0	-30	-2.18125	2	0.5048828125
3957.43359375	0.00833333333333333	0	-30	-2.18125	1	0.560546875
3960.2080078125	0.00833333333333333	0	30	4.98958333333333	1	0.6025390625
3963.224609375	0.00833333333333333	0	-30	-2.18125	1	0.5703125
3966.2080078125	0.00833333333333333	0	30	4.98958333333333	1	0.9072265625
3969.474609375	0.00833333333333333	0	30	4.98958333333333	2	0.6884765625
3972.5576171875	0.00833333333333333	0	30	4.98958333333333	2	0.7021484375
3975.4501953125	0.00833333333333333	0	30	4.98958333333333	2	0.625
3978.4150390625	0.00833333333333333	0	30	4.98958333333333	2	0.580078125
3981.033203125	0.00833333333333333	0	-30	-2.18125	1	0.74609375
3983.93359375	0.00833333333333333	0	-30	-2.18125	1	1.2294921875
3987.7080078125	0.00833333333333333	0	-30	-2.18125	1	0.599609375
3990.4833984375	0.00833333333333333	0	30	4.98958333333333	2	0.671875
3993.408203125	0.00833333333333333	0	30	4.86458333333333	1	1.275390625
3996.94140625	0.00833333333333333	0	30	4.86458333333333	1	0.5185546875
3999.8994140625	0.00833333333333333	0	30	4.86458333333333	2	0.5048828125
4002.9248046875	0.00833333333333333	0	30	4.86458333333333	2	0.5029296875
4005.6826171875	0.00833333333333333	0	-30	-2.05625	1	0.76953125
4008.56640625	0.00833333333333333	0	-30	-2.05625	2	1.021484375
4011.8330078125	0.00833333333333333	0	-30	-2.05625	1	0.6435546875
4014.82421875	0.00833333333333333	0	30	4.86458333333333	1	0.4521484375
4017.4072265625	0.00833333333333333	0	30	4.86458333333333	2	1.205078125
4020.798828125	0.00833333333333333	0	-30	-2.05625	1	0.5732421875
4023.865234375	0.00833333333333333	0	-30	-2.05625	1	0.5234375
4026.69921875	0.00833333333333333	0	-30	-2.05625	1	0.6650390625
4029.6064453125	0.00833333333333333	0	30	4.86458333333333	1	1.3662109375
4033.298828125	0.00833333333333333	0	30	4.86458333333333	1	0.41015625
4035.8818359375	0.00833333333333333	0	-30	-2.05625	1	0.5390625
4038.615234375	0.00833333333333333	0	-30	-1.93125	1	0.4775390625
4041.1982421875	0.00833333333333333	0	-30	-1.93125	1	0.3349609375
4044.0068359375	0.00833333333333333	0	-30	-1.93125	1	0.5341796875
4046.7890625	0.00833333333333333	0	30	4.86458333333333	1	0.2802734375
4049.21484375	0.00833333333333333	0	-30	-1.93125	1	0.4228515625
4051.7822265625	0.00833333333333333	0	-30	-1.93125	1	0.4150390625
4054.47265625	0.00833333333333333	0	30	4.86458333333333	1	0.4609375
4057.4404296875	0.00833333333333333	0	-30	-1.80625	1	0.525390625
4060.2646484375	0.00833333333333333	0	-30	-1.80625	1	0.3330078125
4062.6904296875	0.00833333333333333	0	30	4.86458333333333	1	0.3955078125
4065.2392578125	0.00833333333333333	0	30	4.98958333333333	1	0.4228515625
4067.90625	0.00833333333333333	0	30	4.98958333333333	1	0.396484375
4070.615234375	0.00833333333333333	0	-30	-1.80625	1	0.3505859375
4073.0390625	0.00833333333333333	0	-30	-1.80625	1	0.53515625
4076.1064453125	0.00833333333333333	0	-30	-1.80625	2	0.587890625
4079.1142578125	0.00833333333333333	0	-30	-1.80625	2	0.6201171875
4082.0732421875	0.00833333333333333	0	-30	-1.80625	1	0.5498046875
4084.740234375	0.00833333333333333	0	30	4.98958333333333	2	1.07421875
4087.873046875	0.00833333333333333	0	-30	-1.80625	2	0.998046875
4090.9306640625	0.00833333333333333	0	-30	-1.80625	2	0.5400390625
4093.623046875	0.00833333333333333	0	30	4.98958333333333	1	0.5673828125
4096.380859375	0.00833333333333333	0	-30	-1.80625	1	0.7138671875
4099.248046875	0.00833333333333333	0	-30	-1.80625	2	0.7353515625
4102.1298828125	0.00833333333333333	0	30	4.98958333333333	2	0.533203125
4104.806640625	0.00833333333333333	0	30	4.98958333333333	2	0.5048828125
4107.4560546875	0.00833333333333333	0	-30	-1.80625	2	0.4716796875
4110.3310546875	0.00833333333333333	0	-30	-1.80625	2	0.404296875
4112.9228515625	0.00833333333333333	0	30	4.98958333333333	2	0.388671875
4115.705078125	0.00833333333333333	0	-30	-1.80625	2	0.4462890625
4118.322265625	0.00833333333333333	0	-30	-1.80625	2	0.421875
4120.822265625	0.00833333333333333	0	30	4.98958333333333	2	0.3134765625
4123.4892578125	0.00833333333333333	0	-30	-1.93125	2	0.2626953125
4125.8974609375	0.00833333333333333	0	30	4.98958333333333	2	0.2705078125
4128.59765625	0.00833333333333333	0	30	4.86458333333333	2	0.2666015625
4130.947265625	0.00833333333333333	0	-30	-1.93125	2	0.373046875
4133.40625	0.00833333333333333	0	-30	-1.93125	2	0.2978515625
4135.8310546875	0.00833333333333333	0	30	4.86458333333333	2	0.4169921875
4138.712890625	0.00833333333333333	0	30	4.86458333333333	2	0.447265625
4141.5888671875	0.00833333333333333	0	-30	-1.93125	2	0.419921875
4144.1552734375	0.00833333333333333	0	30	4.86458333333333	2	0.4130859375
4150.60546875	0.00833333333333333	0	30	4.86458333333333	2	0.5556640625
4153.60546875	0.00833333333333333	0	30	4.73958333333333	2	0.5712890625
4156.6220703125	0.00833333333333333	0	30	4.73958333333333	2	0.482421875
4159.2373046875	0.00833333333333333	0	-30	-1.93125	2	0.3720703125
4161.6806640625	0.00833333333333333	0	-30	-2.05625	2	0.3447265625
4164.0888671875	0.00833333333333333	0	-30	-2.05625	2	0.328125
4166.822265625	0.00833333333333333	0	-30	-2.05625	2	0.3388671875
4169.3056640625	0.00833333333333333	0	30	4.73958333333333	2	0.439453125
4172.1220703125	0.00833333333333333	0	30	4.73958333333333	2	0.455078125
4175.12109375	0.00833333333333333	0	30	4.73958333333333	2	0.3759765625
4177.75390625	0.00833333333333333	0	30	4.61458333333333	2	0.423828125
4180.5380859375	0.00833333333333333	0	30	4.61458333333333	2	0.3515625
4183.2802734375	0.00833333333333333	0	30	4.61458333333333	2	0.43359375
4186.205078125	0.00833333333333333	0	30	4.61458333333333	2	0.4609375
4188.9716796875	0.00833333333333333	0	-30	-2.05625	2	0.3740234375
4191.7216796875	0.00833333333333333	0	30	4.61458333333333	2	0.3046875
4194.0966796875	0.00833333333333333	0	30	4.48958333333333	2	0.44140625
4196.6455078125	0.00833333333333333	0	30	4.48958333333333	2	0.32421875
4199.521484375	0.00833333333333333	0	30	4.48958333333333	2	0.2646484375
4202.1552734375	0.00833333333333333	0	-30	-2.05625	2	0.279296875
4204.521484375	0.00833333333333333	0	-30	-2.18125	2	0.369140625
4207.1962890625	0.00833333333333333	0	30	4.48958333333333	2	0.24609375
4209.9794921875	0.00833333333333333	0	-30	-2.18125	2	0.294921875
4212.603515625	0.00833333333333333	0	-30	-2.18125	2	0.3271484375
4215.2626953125	0.00833333333333333	0	-30	-2.18125	2	0.3076171875
4218.154296875	0.00833333333333333	0	-30	-2.18125	2	0.3046875
4220.8798828125	0.00833333333333333	0	30	4.48958333333333	2	0.291015625
4223.2958984375	0.00833333333333333	0	30	4.36458333333333	2	0.35546875
4225.779296875	0.00833333333333333	0	30	4.36458333333333	2	0.248046875
4228.3212890625	0.00833333333333333	0	30	4.36458333333333	2	0.2255859375
4231.0546875	0.00833333333333333	0	-30	-2.30625	2	0.228515625
4233.720703125	0.00833333333333333	0	-30	-2.30625	2	0.38671875
4236.5625	0.00833333333333333	0	30	4.36458333333333	2	0.4169921875
4239.470703125	0.00833333333333333	0	30	4.36458333333333	2	0.27734375
4242.220703125	0.00833333333333333	0	-30	-2.30625	2	0.470703125
4245.162109375	0.00833333333333333	0	-30	-2.30625	2	0.3935546875
4247.7705078125	0.00833333333333333	0	-30	-2.30625	2	0.3935546875
4250.3955078125	0.00833333333333333	0	-30	-2.43125	2	0.369140625
4253.1708984375	0.00833333333333333	0	30	4.23958333333333	2	0.3212890625
4255.6455078125	0.00833333333333333	0	-30	-2.43125	2	0.310546875
4258.4375	0.00833333333333333	0	-30	-2.43125	2	0.3271484375
4261.0537109375	0.00833333333333333	0	30	4.23958333333333	2	0.4384765625
4263.6787109375	0.00833333333333333	0	30	4.23958333333333	1	0.494140625
4266.703125	0.00833333333333333	0	-30	-2.43125	1	0.59765625
4269.5537109375	0.00833333333333333	0	30	4.23958333333333	1	0.5224609375
4272.6533203125	0.00833333333333333	0	30	4.23958333333333	1	0.5517578125
4275.7451171875	0.00833333333333333	0	30	4.23958333333333	1	0.435546875
4278.5283203125	0.00833333333333333	0	-30	-2.43125	1	0.380859375
4281.0791015625	0.00833333333333333	0	30	4.23958333333333	1	0.3662109375
4283.9619140625	0.00833333333333333	0	30	4.36458333333333	1	0.451171875
4286.9453125	0.00833333333333333	0	30	4.36458333333333	1	0.3154296875
4289.5615234375	0.00833333333333333	0	-30	-2.43125	1	0.419921875
4292.4287109375	0.00833333333333333	0	-30	-2.43125	1	0.384765625
4295.236328125	0.00833333333333333	0	-30	-2.43125	1	0.521484375
4298.14453125	0.00833333333333333	0	-30	-2.30625	1	0.5732421875
4300.8115234375	0.00833333333333333	0	30	4.36458333333333	1	0.521484375
4303.6787109375	0.00833333333333333	0	-30	-2.30625	1	0.806640625
4306.7783203125	0.00833333333333333	0	30	4.36458333333333	1	0.458984375
4309.427734375	0.00833333333333333	0	30	4.36458333333333	1	0.474609375
4312.3359375	0.00833333333333333	0	30	4.48958333333333	1	0.478515625
4315.3447265625	0.00833333333333333	0	-30	-2.30625	1	0.4453125
4318.0693359375	0.00833333333333333	0	30	4.48958333333333	1	0.4326171875
4320.7783203125	0.00833333333333333	0	-30	-2.30625	1	0.412109375
4323.6767578125	0.00833333333333333	0	-30	-2.30625	1	0.5693359375
4326.703125	0.00833333333333333	0	-30	-2.18125	1	0.359375
4329.64453125	0.00833333333333333	0	30	4.48958333333333	1	0.322265625
4332.052734375	0.00833333333333333	0	-30	-2.18125	1	0.4267578125
4334.7861328125	0.00833333333333333	0	-30	-2.18125	1	0.46875
4337.427734375	0.00833333333333333	0	-30	-2.18125	1	0.4189453125
4340.078125	0.00833333333333333	0	30	4.48958333333333	1	0.28125
4342.52734375	0.00833333333333333	0	30	4.48958333333333	1	0.255859375
4345.244140625	0.00833333333333333	0	-30	-2.18125	1	0.2431640625
4347.7861328125	0.00833333333333333	0	-30	-2.05625	1	0.3330078125
4350.3271484375	0.00833333333333333	0	-30	-2.05625	1	0.232421875
4353.111328125	0.00833333333333333	0	30	4.61458333333333	1	0.0400390625
4355.1357421875	0.00833333333333333	0	30	4.61458333333333	1	0.599609375
4357.9853515625	0.00833333333333333	0	-30	-2.05625	2	0.470703125
4360.9609375	0.00833333333333333	0	-30	-2.05625	1	0.56640625
4363.7021484375	0.00833333333333333	0	-30	-2.05625	1	0.4970703125
4366.685546875	0.00833333333333333	0	-30	-2.05625	1	0.474609375
4372.9521484375	0.00833333333333333	0	-30	-2.05625	1	0.51953125
4375.869140625	0.00833333333333333	0	-30	-2.05625	1	0.322265625
4378.310546875	0.00833333333333333	0	-30	-1.93125	1	0.361328125
4380.943359375	0.00833333333333333	0	-30	-1.93125	1	0.2802734375
4383.71875	0.00833333333333333	0	-30	-1.93125	1	0.3134765625
4386.5859375	0.00833333333333333	0	-30	-1.93125	1	0.2939453125
4389.2353515625	0.00833333333333333	0	30	4.61458333333333	1	0.27734375
4391.84375	0.00833333333333333	0	30	4.61458333333333	1	0.28515625
4394.55078125	0.00833333333333333	0	30	4.61458333333333	1	0.330078125
4397.4267578125	0.00833333333333333	0	-30	-1.93125	1	0.23828125
4400.16015625	0.00833333333333333	0	-30	-1.80625	1	0.296875
4402.66015625	0.00833333333333333	0	30	4.73958333333333	1	0.2529296875
4405.34375	0.00833333333333333	0	-30	-1.80625	1	0.2734375
4408.126953125	0.00833333333333333	0	-30	-1.80625	1	0.2744140625
4410.759765625	0.00833333333333333	0	30	4.73958333333333	1	0.2412109375
4413.29296875	0.00833333333333333	0	30	4.73958333333333	1	0.244140625
4415.734375	0.00833333333333333	0	30	4.73958333333333	1	0.3310546875
4418.2099609375	0.00833333333333333	0	30	4.73958333333333	1	0.287109375
4420.8515625	0.00833333333333333	0	30	4.86458333333333	1	0.2939453125
4423.53515625	0.00833333333333333	0	-30	-1.80625	1	0.234375
4426.267578125	0.00833333333333333	0	-30	-1.80625	1	0.2939453125
4429.1015625	0.00833333333333333	0	30	4.86458333333333	1	0.236328125
4431.78515625	0.00833333333333333	0	-30	-1.68125	1	0.2646484375
4434.400390625	0.00833333333333333	0	-30	-1.68125	1	0.2734375
4437.201171875	0.00833333333333333	0	30	4.86458333333333	2	0.720703125
