onset	duration	titr	surround	centre	response	rt
53.15234375	0.00833333333333333	1	NaN	-15	1	3.2861328125
58.6357421875	0.00833333333333333	1	30	-15	2	0.9150390625
61.927734375	0.00833333333333333	1	NaN	-14	1	0.623046875
64.9443359375	0.00833333333333333	1	30	15	2	0.7431640625
68.103515625	0.00833333333333333	1	-30	15	1	0.7197265625
71.02734375	0.00833333333333333	1	-30	16	1	0.84375
74.16015625	0.00833333333333333	1	-30	-15	1	0.6240234375
77.310546875	0.00833333333333333	1	30	-16	1	0.720703125
80.3603515625	0.00833333333333333	1	NaN	15	2	1.7119140625
84.7353515625	0.00833333333333333	1	-30	-14	1	0.65625
87.6181640625	0.00833333333333333	1	NaN	14	2	1.1103515625
90.9345703125	0.00833333333333333	1	-30	-13	1	0.8974609375
94.3017578125	0.00833333333333333	1	NaN	13	2	0.8427734375
97.5849609375	0.00833333333333333	1	30	14	2	0.7109375
100.884765625	0.00833333333333333	1	NaN	12	2	0.763671875
104.1005859375	0.00833333333333333	1	-30	17	2	0.68359375
107.0419921875	0.00833333333333333	1	30	13	2	0.5908203125
110.201171875	0.00833333333333333	1	NaN	11	2	0.6474609375
113.193359375	0.00833333333333333	1	NaN	10	2	0.615234375
116.275390625	0.00833333333333333	1	NaN	-13	1	0.701171875
119.42578125	0.00833333333333333	1	30	12	2	0.8388671875
122.67578125	0.00833333333333333	1	-30	16	2	0.5888671875
125.7099609375	0.00833333333333333	1	-30	-12	1	0.5947265625
128.7509765625	0.00833333333333333	1	-30	-11	1	0.6982421875
131.759765625	0.00833333333333333	1	NaN	-12	1	0.6494140625
134.6845703125	0.00833333333333333	1	-30	-10	1	0.869140625
137.91796875	0.00833333333333333	1	NaN	9	2	0.66796875
140.9091796875	0.00833333333333333	1	-30	-9	2	0.724609375
143.8505859375	0.00833333333333333	1	-30	15	2	0.5107421875
146.79296875	0.00833333333333333	1	-30	14	2	0.552734375
149.6337890625	0.00833333333333333	1	-30	-10	1	0.7197265625
152.6005859375	0.00833333333333333	1	30	-15	1	0.5458984375
155.4423828125	0.00833333333333333	1	30	-14	1	0.5517578125
158.5419921875	0.00833333333333333	1	NaN	8	2	0.4921875
161.458984375	0.00833333333333333	1	30	-13	1	0.599609375
164.1669921875	0.00833333333333333	1	30	-12	1	0.611328125
167.3251953125	0.00833333333333333	1	30	-11	1	0.4775390625
170.267578125	0.00833333333333333	1	-30	-9	1	0.6865234375
173.3828125	0.00833333333333333	1	30	11	2	0.5078125
176.0751953125	0.00833333333333333	1	NaN	-11	1	0.5439453125
179.05859375	0.00833333333333333	1	NaN	-10	1	0.576171875
181.708984375	0.00833333333333333	1	NaN	7	2	0.669921875
184.5	0.00833333333333333	1	-30	13	2	0.54296875
187.42578125	0.00833333333333333	1	30	-10	1	0.4814453125
190.025390625	0.00833333333333333	1	-30	-8	1	0.8896484375
193.125	0.00833333333333333	1	NaN	6	2	0.5498046875
196.1337890625	0.00833333333333333	1	-30	-7	1	0.9736328125
199.4833984375	0.00833333333333333	1	-30	12	2	0.6328125
202.224609375	0.00833333333333333	1	30	-9	1	0.5546875
205.0244140625	0.00833333333333333	1	-30	11	2	0.4755859375
207.5830078125	0.00833333333333333	1	NaN	-9	1	0.533203125
210.6494140625	0.00833333333333333	1	30	10	1	1.0185546875
213.81640625	0.00833333333333333	1	30	11	2	0.5478515625
216.4326171875	0.00833333333333333	1	NaN	5	2	0.69140625
219.5078125	0.00833333333333333	1	NaN	4	2	0.4404296875
222.048828125	0.00833333333333333	1	NaN	-8	1	0.66015625
225.0498046875	0.00833333333333333	1	-30	10	2	0.5224609375
227.94140625	0.00833333333333333	1	NaN	3	2	0.8466796875
231.3916015625	0.00833333333333333	1	30	10	2	0.525390625
234.224609375	0.00833333333333333	1	30	-8	1	0.587890625
237.31640625	0.00833333333333333	1	-30	-6	1	0.736328125
240.240234375	0.00833333333333333	1	30	-7	1	0.572265625
243.1240234375	0.00833333333333333	1	30	-6	1	0.552734375
245.7822265625	0.00833333333333333	1	30	9	1	0.8154296875
248.8076171875	0.00833333333333333	1	NaN	-7	1	0.59765625
251.9248046875	0.00833333333333333	1	30	10	2	0.80078125
255.19921875	0.00833333333333333	1	-30	9	2	0.630859375
258.048828125	0.00833333333333333	1	-30	8	2	0.5322265625
260.9326171875	0.00833333333333333	1	NaN	2	2	0.625
264.1572265625	0.00833333333333333	1	30	9	2	0.96875
267.439453125	0.00833333333333333	1	30	8	2	0.654296875
270.666015625	0.00833333333333333	1	30	-5	1	0.515625
273.640625	0.00833333333333333	1	-30	7	2	0.6455078125
276.7744140625	0.00833333333333333	1	30	-4	1	0.6552734375
279.5654296875	0.00833333333333333	1	NaN	-6	1	0.5927734375
282.314453125	0.00833333333333333	1	NaN	1	2	1.01171875
285.5986328125	0.00833333333333333	1	NaN	0	2	0.5751953125
288.5078125	0.00833333333333333	1	-30	6	2	0.5068359375
291.314453125	0.00833333333333333	1	-30	-5	1	0.7158203125
294.4150390625	0.00833333333333333	1	-30	5	2	0.591796875
297.4990234375	0.00833333333333333	1	-30	4	2	0.4599609375
300.0654296875	0.00833333333333333	1	NaN	-1	1	0.59765625
302.72265625	0.00833333333333333	1	NaN	-5	1	0.7080078125
305.740234375	0.00833333333333333	1	30	-3	1	0.5791015625
308.806640625	0.00833333333333333	1	30	7	1	0.6328125
311.97265625	0.00833333333333333	1	30	-2	1	0.6025390625
315.03125	0.00833333333333333	1	30	-1	1	0.576171875
318.1484375	0.00833333333333333	1	NaN	-4	1	0.4267578125
321.0810546875	0.00833333333333333	1	NaN	-3	1	0.4228515625
323.5810546875	0.00833333333333333	1	30	8	1	0.73046875
326.40625	0.00833333333333333	1	NaN	-2	1	0.609375
329.40625	0.00833333333333333	1	30	9	2	0.5693359375
332.0478515625	0.00833333333333333	1	30	8	2	0.6962890625
335.1650390625	0.00833333333333333	1	-30	-4	2	0.71484375
337.97265625	0.00833333333333333	1	NaN	0	2	0.5634765625
340.5888671875	0.00833333333333333	1	30	7	2	0.5947265625
343.263671875	0.00833333333333333	1	NaN	-1	2	0.8642578125
346.6982421875	0.00833333333333333	1	30	0	2	1.2216796875
350.08984375	0.00833333333333333	1	NaN	-1	1	0.814453125
373.939453125	0.00833333333333333	1	30	6	2	1.197265625
377.388671875	0.00833333333333333	1	NaN	-2	1	0.97265625
380.888671875	0.00833333333333333	1	NaN	0	1	0.7607421875
383.9970703125	0.00833333333333333	1	-30	3	2	0.64453125
386.7138671875	0.00833333333333333	1	NaN	1	2	0.607421875
389.814453125	0.00833333333333333	1	-30	2	2	0.5634765625
392.796875	0.00833333333333333	1	NaN	-1	2	1.3408203125
396.421875	0.00833333333333333	1	NaN	-2	2	0.5556640625
399.130859375	0.00833333333333333	1	NaN	0	2	0.5751953125
402.2041015625	0.00833333333333333	1	-30	1	2	0.6376953125
404.9052734375	0.00833333333333333	1	30	-1	2	0.953125
408.263671875	0.00833333333333333	1	NaN	-3	1	0.9306640625
411.4970703125	0.00833333333333333	1	NaN	-1	1	0.9296875
414.572265625	0.00833333333333333	1	-30	0	2	0.806640625
417.85546875	0.00833333333333333	1	-30	-5	2	0.6435546875
420.896484375	0.00833333333333333	1	30	5	2	1.0341796875
424.1806640625	0.00833333333333333	1	-30	-6	2	0.7578125
427.412109375	0.00833333333333333	1	NaN	-2	1	0.8310546875
430.638671875	0.00833333333333333	1	30	-2	2	0.8134765625
433.6630859375	0.00833333333333333	1	NaN	-1	2	0.65234375
436.837890625	0.00833333333333333	1	-30	-7	2	1.212890625
440.5634765625	0.00833333333333333	1	30	-3	1	0.736328125
443.671875	0.00833333333333333	1	-30	-8	1	0.7158203125
446.61328125	0.00833333333333333	1	-30	-1	2	0.6865234375
449.37109375	0.00833333333333333	1	NaN	-2	2	0.705078125
452.4384765625	0.00833333333333333	1	30	4	2	0.62890625
455.3544921875	0.00833333333333333	1	30	3	1	0.8095703125
458.2705078125	0.00833333333333333	1	NaN	0	1	0.7890625
461.4375	0.00833333333333333	1	NaN	1	2	0.8388671875
464.48828125	0.00833333333333333	1	30	-2	1	0.8515625
467.6708984375	0.00833333333333333	1	NaN	-3	1	0.61328125
470.37109375	0.00833333333333333	1	30	-1	1	0.544921875
473.3876953125	0.00833333333333333	1	NaN	0	1	0.728515625
476.4130859375	0.00833333333333333	1	30	4	2	0.7431640625
479.5126953125	0.00833333333333333	1	-30	-7	2	0.65234375
482.654296875	0.00833333333333333	1	30	0	1	0.6630859375
485.6044921875	0.00833333333333333	1	NaN	-2	1	0.5927734375
488.2705078125	0.00833333333333333	1	30	3	2	0.7587890625
491.0791015625	0.00833333333333333	1	-30	-8	2	0.9501953125
494.4287109375	0.00833333333333333	1	30	2	2	1.0400390625
497.8876953125	0.00833333333333333	1	-30	-2	2	0.7255859375
500.9794921875	0.00833333333333333	1	30	1	2	0.666015625
503.779296875	0.00833333333333333	1	30	1	1	0.578125
506.5126953125	0.00833333333333333	1	-30	-3	2	1.0126953125
509.9873046875	0.00833333333333333	1	30	2	2	0.5380859375
512.6953125	0.00833333333333333	1	-30	-9	1	0.7744140625
515.595703125	0.00833333333333333	1	NaN	1	2	0.75390625
518.7958984375	0.00833333333333333	1	-30	-4	1	0.818359375
522.01171875	0.00833333333333333	1	NaN	-1	1	0.8427734375
524.978515625	0.00833333333333333	1	NaN	0	1	0.6279296875
527.6787109375	0.00833333333333333	1	NaN	0	2	0.6875
530.8623046875	0.00833333333333333	1	-30	-3	2	0.6318359375
533.9951171875	0.00833333333333333	1	NaN	1	2	0.4833984375
536.703125	0.00833333333333333	1	30	0	1	0.7998046875
539.8115234375	0.00833333333333333	1	NaN	-1	2	0.787109375
542.8955078125	0.00833333333333333	1	30	1	2	1.046875
545.986328125	0.00833333333333333	1	-30	-4	2	0.580078125
549.111328125	0.00833333333333333	1	NaN	0	2	0.6240234375
552.0869140625	0.00833333333333333	1	NaN	-1	2	0.5283203125
554.728515625	0.00833333333333333	1	-30	-5	2	0.6142578125
557.6865234375	0.00833333333333333	1	-30	-6	2	0.79296875
561.052734375	0.00833333333333333	1	NaN	-2	2	0.6103515625
564.13671875	0.00833333333333333	1	30	0	1	1.0791015625
567.6357421875	0.00833333333333333	1	NaN	-2	1	0.748046875
570.853515625	0.00833333333333333	1	-30	-8	1	0.6103515625
573.994140625	0.00833333333333333	1	30	1	1	0.9091796875
577.2109375	0.00833333333333333	1	-30	-7	1	0.7333984375
580.119140625	0.00833333333333333	1	-30	-6	1	0.392578125
582.6279296875	0.00833333333333333	1	-30	-7	1	0.572265625
585.501953125	0.00833333333333333	1	NaN	-3	1	0.5224609375
588.1943359375	0.00833333333333333	1	30	2	1	0.3662109375
591.0107421875	0.00833333333333333	1	-30	-6	1	0.6533203125
594.15234375	0.00833333333333333	1	NaN	-2	1	0.568359375
597.1611328125	0.00833333333333333	1	NaN	-1	1	0.7109375
600.0361328125	0.00833333333333333	1	30	3	1	0.63671875
602.810546875	0.00833333333333333	1	-30	-5	1	0.662109375
605.810546875	0.00833333333333333	1	-30	-5	1	0.3427734375
608.52734375	0.00833333333333333	1	30	4	1	0.673828125
611.685546875	0.00833333333333333	1	30	5	1	0.84375
614.96875	0.00833333333333333	1	NaN	0	1	0.7119140625
617.7939453125	0.00833333333333333	1	-30	-4	2	0.5107421875
620.802734375	0.00833333333333333	1	-30	-5	2	0.53515625
623.41015625	0.00833333333333333	1	NaN	-1	1	1.0634765625
626.751953125	0.00833333333333333	1	-30	-6	1	0.8251953125
630.0771484375	0.00833333333333333	1	NaN	1	1	0.884765625
633.28515625	0.00833333333333333	1	NaN	0	1	0.5888671875
636.318359375	0.00833333333333333	1	30	6	2	0.6591796875
639.185546875	0.00833333333333333	1	-30	-5	1	0.640625
642.068359375	0.00833333333333333	1	-30	-4	2	0.494140625
644.8603515625	0.00833333333333333	1	NaN	2	2	0.58203125
647.5185546875	0.00833333333333333	1	-30	-4	1	0.9072265625
650.4853515625	0.00833333333333333	1	-30	-3	2	0.6533203125
653.6591796875	0.00833333333333333	1	NaN	1	2	0.630859375
656.6181640625	0.00833333333333333	1	-30	-5	1	1.240234375
660.2763671875	0.00833333333333333	1	-30	-4	2	0.5263671875
663.134765625	0.00833333333333333	1	-30	-4	2	0.740234375
666.435546875	0.00833333333333333	1	30	5	2	0.7587890625
669.5595703125	0.00833333333333333	1	-30	-5	2	0.595703125
672.451171875	0.00833333333333333	1	-30	-6	2	0.576171875
687.8017578125	0.00833333333333333	1	-30	-5	2	1.1376953125
691.1513671875	0.00833333333333333	1	-30	-6	2	0.8037109375
694.3681640625	0.00833333333333333	1	-30	-7	2	0.8359375
697.4423828125	0.00833333333333333	1	NaN	1	1	1.1533203125
701.1005859375	0.00833333333333333	1	-30	-7	2	0.85546875
704.109375	0.00833333333333333	1	30	4	1	0.89453125
707.3505859375	0.00833333333333333	1	-30	-8	1	0.685546875
710.3671875	0.00833333333333333	1	-30	-8	1	1.0927734375
713.6845703125	0.00833333333333333	1	30	5	2	0.82421875
716.591796875	0.00833333333333333	1	-30	-7	1	0.828125
719.7421875	0.00833333333333333	1	-30	-6	2	0.7900390625
722.8759765625	0.00833333333333333	1	-30	-7	1	1.3291015625
726.3681640625	0.00833333333333333	1	-30	-5.41666666666667	1	0.484375
728.9755859375	0.00833333333333333	1	-30	-6.41666666666667	1	0.5654296875
731.8427734375	0.00833333333333333	1	30	4	1	0.826171875
735.0087890625	0.00833333333333333	1	NaN	0	1	0.580078125
738.068359375	0.00833333333333333	1	NaN	-1	1	0.9130859375
741.2255859375	0.00833333333333333	1	NaN	0.125	2	0.5478515625
744.025390625	0.00833333333333333	1	30	3	2	0.755859375
747.041015625	0.00833333333333333	1	30	4.125	2	0.5400390625
749.9755859375	0.00833333333333333	1	-30	-6.29166666666667	2	0.734375
753.0341796875	0.00833333333333333	1	NaN	0	1	0.6513671875
755.833984375	0.00833333333333333	1	NaN	-0.875	2	0.8994140625
758.8505859375	0.00833333333333333	1	30	2.875	2	0.6748046875
761.8251953125	0.00833333333333333	1	NaN	0.125	2	0.4765625
764.4169921875	0.00833333333333333	1	-30	-6.41666666666667	2	0.63671875
767.525390625	0.00833333333333333	1	NaN	-1	2	1.7607421875
771.5166015625	0.00833333333333333	1	-30	-6.54166666666667	1	0.8173828125
774.6083984375	0.00833333333333333	1	-30	-5.29166666666667	1	0.57421875
777.515625	0.00833333333333333	1	30	4	1	0.7314453125
780.7587890625	0.00833333333333333	1	-30	-6.41666666666667	1	0.5673828125
783.7421875	0.00833333333333333	1	-30	-6.29166666666667	2	0.6728515625
786.640625	0.00833333333333333	1	NaN	-1.125	2	0.6220703125
789.6748046875	0.00833333333333333	1	30	4.125	2	0.435546875
792.2333984375	0.00833333333333333	1	-30	-6.41666666666667	2	0.6376953125
795.30859375	0.00833333333333333	1	-30	-5.16666666666667	2	0.5625
798.224609375	0.00833333333333333	1	NaN	-1.25	2	0.478515625
801.2412109375	0.00833333333333333	1	NaN	0	2	0.3896484375
803.9833984375	0.00833333333333333	1	30	4	2	0.3837890625
806.849609375	0.00833333333333333	1	-30	-5.29166666666667	2	0.509765625
809.8330078125	0.00833333333333333	1	30	3.875	1	0.4140625
812.666015625	0.00833333333333333	1	30	4	2	0.4931640625
815.5908203125	0.00833333333333333	1	30	3.875	2	0.3603515625
818.1416015625	0.00833333333333333	1	-30	-5.41666666666667	2	0.5859375
821.0244140625	0.00833333333333333	1	-30	-6.54166666666667	1	0.87109375
824.3154296875	0.00833333333333333	1	NaN	-0.125	2	0.6767578125
827.19140625	0.00833333333333333	1	NaN	-1.375	2	0.82421875
830.173828125	0.00833333333333333	1	30	2.75	2	0.642578125
833.3154296875	0.00833333333333333	1	-30	-5.54166666666667	2	0.7890625
836.291015625	0.00833333333333333	1	NaN	-0.25	2	0.5810546875
839.3662109375	0.00833333333333333	1	-30	-6.41666666666667	2	0.5537109375
842.173828125	0.00833333333333333	1	30	2.625	1	0.578125
845.015625	0.00833333333333333	1	NaN	-1.5	1	0.4169921875
847.5322265625	0.00833333333333333	1	30	3.75	1	0.5966796875
850.439453125	0.00833333333333333	1	-30	-6.54166666666667	2	0.4892578125
853.2490234375	0.00833333333333333	1	-30	-6.66666666666667	1	0.6396484375
856.265625	0.00833333333333333	1	NaN	-1.375	1	0.423828125
859.07421875	0.00833333333333333	1	-30	-6.54166666666667	1	0.375
861.5234375	0.00833333333333333	1	30	2.75	1	0.3818359375
864.240234375	0.00833333333333333	1	NaN	-1.25	1	0.537109375
867.140625	0.00833333333333333	1	30	2.875	1	0.388671875
869.640625	0.00833333333333333	1	NaN	-1.125	1	0.47265625
872.240234375	0.00833333333333333	1	-30	-6.41666666666667	2	0.4169921875
875.0986328125	0.00833333333333333	1	30	3.875	2	0.5986328125
877.982421875	0.00833333333333333	1	NaN	-0.375	1	0.451171875
880.83203125	0.00833333333333333	1	-30	-6.54166666666667	2	0.345703125
883.615234375	0.00833333333333333	1	-30	-6.66666666666667	1	0.4189453125
886.1396484375	0.00833333333333333	1	NaN	-1	1	0.486328125
888.83984375	0.00833333333333333	1	NaN	-0.875	1	0.40234375
891.5400390625	0.00833333333333333	1	30	3.75	1	0.6298828125
894.5986328125	0.00833333333333333	1	30	3.875	1	0.67578125
897.7900390625	0.00833333333333333	1	-30	-6.54166666666667	1	0.6201171875
900.8564453125	0.00833333333333333	1	-30	-5.66666666666667	2	0.3935546875
903.5810546875	0.00833333333333333	1	30	3	1	0.60546875
906.431640625	0.00833333333333333	1	NaN	-0.75	2	0.6826171875
909.6728515625	0.00833333333333333	1	-30	-5.79166666666667	1	0.521484375
912.447265625	0.00833333333333333	1	30	3.125	2	0.6513671875
915.6064453125	0.00833333333333333	1	NaN	-0.875	2	0.4365234375
918.1650390625	0.00833333333333333	1	30	3	2	0.58984375
921.1640625	0.00833333333333333	1	-30	-6.41666666666667	2	0.87890625
924.1728515625	0.00833333333333333	1	-30	-6.54166666666667	1	0.6220703125
927.1396484375	0.00833333333333333	1	-30	-6.41666666666667	1	0.7197265625
930.263671875	0.00833333333333333	1	-30	-5.66666666666667	1	0.8837890625
933.3896484375	0.00833333333333333	1	30	4	1	0.7177734375
936.3056640625	0.00833333333333333	1	-30	-5.54166666666667	2	0.4501953125
939.171875	0.00833333333333333	1	30	4.125	2	0.51953125
941.9228515625	0.00833333333333333	1	NaN	-1	2	0.728515625
945.146484375	0.00833333333333333	1	30	4	1	0.76171875
948.314453125	0.00833333333333333	1	-30	-5.66666666666667	1	0.6650390625
951.248046875	0.00833333333333333	1	NaN	-1.125	2	0.3720703125
953.8720703125	0.00833333333333333	1	NaN	-1.25	2	0.4443359375
956.748046875	0.00833333333333333	1	NaN	-0.25	2	0.7041015625
959.689453125	0.00833333333333333	1	NaN	-0.375	2	0.546875
962.3134765625	0.00833333333333333	1	-30	-5.54166666666667	2	0.69921875
965.380859375	0.00833333333333333	1	NaN	-1.375	2	0.3837890625
967.84765625	0.00833333333333333	1	NaN	-1.5	2	0.3173828125
970.5556640625	0.00833333333333333	1	-30	-6.29166666666667	2	0.376953125
973.212890625	0.00833333333333333	1	30	4.125	2	0.3115234375
975.7724609375	0.00833333333333333	1	-30	-5.66666666666667	2	0.392578125
978.630859375	0.00833333333333333	1	30	4	2	0.5498046875
981.705078125	0.00833333333333333	1	30	2.875	2	0.4755859375
984.330078125	0.00833333333333333	1	30	2.75	2	0.37890625
986.98828125	0.00833333333333333	1	30	2.625	2	0.3525390625
1059.453125	0.00833333333333333	1	30	2.5	1	1.74609375
1063.3876953125	0.00833333333333333	1	NaN	-1.625	1	0.8525390625
1066.4462890625	0.00833333333333333	1	-30	-5.79166666666667	2	1.2177734375
1070.0625	0.00833333333333333	1	NaN	-1.5	1	0.7373046875
1072.9873046875	0.00833333333333333	1	NaN	-0.5	1	0.701171875
1075.87109375	0.00833333333333333	1	NaN	-0.375	2	0.9052734375
1078.9287109375	0.00833333333333333	1	-30	-6.41666666666667	2	1.2236328125
1082.353515625	0.00833333333333333	1	-30	-6.54166666666667	1	0.6064453125
1085.4619140625	0.00833333333333333	1	NaN	-1.375	1	0.5947265625
1088.4541015625	0.00833333333333333	1	30	2.625	2	0.5703125
1091.595703125	0.00833333333333333	1	-30	-5.91666666666667	1	0.796875
1094.5791015625	0.00833333333333333	1	30	2.5	1	0.4853515625
1097.419921875	0.00833333333333333	1	-30	-6.41666666666667	1	0.6767578125
1100.3779296875	0.00833333333333333	1	NaN	-1.25	2	0.5751953125
1103.294921875	0.00833333333333333	1	30	3.875	2	0.5458984375
1105.919921875	0.00833333333333333	1	NaN	-1.375	2	0.8896484375
1109.1201171875	0.00833333333333333	1	-30	-5.79166666666667	2	0.96875
1112.162109375	0.00833333333333333	1	NaN	-0.5	1	0.791015625
1115.4033203125	0.00833333333333333	1	-30	-6.29166666666667	1	1.2216796875
1118.7197265625	0.00833333333333333	1	-30	-5.91666666666667	1	0.6982421875
1121.7451171875	0.00833333333333333	1	-30	-6.16666666666667	1	0.6005859375
1124.5205078125	0.00833333333333333	1	-30	-6.04166666666667	1	0.6650390625
1127.4951171875	0.00833333333333333	1	NaN	-0.375	1	0.546875
1130.287109375	0.00833333333333333	1	-30	-5.91666666666667	1	0.6826171875
1133.3193359375	0.00833333333333333	1	30	3.75	2	0.474609375
1136.0361328125	0.00833333333333333	1	NaN	-1.5	2	0.7421875
1138.8603515625	0.00833333333333333	1	30	2.625	2	73.83984375
1215.0439453125	0.00833333333333333	1	NaN	-0.25	2	0.9443359375
1218.1181640625	0.00833333333333333	1	NaN	-1.625	2	0.806640625
1221.310546875	0.00833333333333333	1	NaN	-1.75	2	0.5419921875
1224.0517578125	0.00833333333333333	1	NaN	-0.375	1	0.625
1226.9267578125	0.00833333333333333	1	30	3.625	2	0.3740234375
1229.7939453125	0.00833333333333333	1	30	2.5	1	0.37109375
1232.3759765625	0.00833333333333333	1	30	2.625	2	0.3251953125
1234.9765625	0.00833333333333333	1	-30	-5.79166666666667	1	0.4609375
1237.8603515625	0.00833333333333333	1	30	3.5	1	0.4248046875
1240.42578125	0.00833333333333333	1	NaN	-1.875	1	0.419921875
1243.3017578125	0.00833333333333333	1	-30	-5.66666666666667	1	0.408203125
1245.9853515625	0.00833333333333333	1	-30	-5.54166666666667	2	0.396484375
1248.4501953125	0.00833333333333333	1	30	2.5	2	0.53125
1251.16796875	0.00833333333333333	1	NaN	-1.75	2	0.9658203125
1254.5595703125	0.00833333333333333	1	NaN	-1.875	2	0.333984375
1257.2685546875	0.00833333333333333	1	NaN	-0.25	2	0.6494140625
1260.1845703125	0.00833333333333333	1	-30	-5.66666666666667	2	0.3974609375
1263.076171875	0.00833333333333333	1	-30	-5.79166666666667	1	0.658203125
1266.0927734375	0.00833333333333333	1	30	2.375	1	0.6650390625
1269.125	0.00833333333333333	1	NaN	-0.375	1	0.673828125
1271.9013671875	0.00833333333333333	1	-30	-5.79166666666667	1	0.552734375
1274.7177734375	0.00833333333333333	1	30	3.625	2	0.3525390625
1277.091796875	0.00833333333333333	1	-30	-5.66666666666667	1	1.0830078125
1280.3759765625	0.00833333333333333	1	30	2.5	2	0.3583984375
1282.9345703125	0.00833333333333333	1	-30	-5.54166666666667	1	0.6484375
1285.6591796875	0.00833333333333333	1	-30	-5.41666666666667	2	0.5556640625
1288.6923828125	0.00833333333333333	1	NaN	-0.25	1	0.73046875
1291.4931640625	0.00833333333333333	1	-30	-5.54166666666667	1	0.4423828125
1294.0087890625	0.00833333333333333	1	-30	-5.41666666666667	1	0.462890625
1296.6923828125	0.00833333333333333	1	30	3.5	2	0.38671875
1299.5009765625	0.00833333333333333	1	NaN	-0.125	2	0.4423828125
1302.1259765625	0.00833333333333333	1	-30	-5.29166666666667	1	0.3935546875
1304.859375	0.00833333333333333	1	30	3.375	2	0.5
1307.734375	0.00833333333333333	1	30	3.25	1	0.2734375
1310.3828125	0.00833333333333333	1	-30	-5.16666666666667	2	0.3291015625
1312.900390625	0.00833333333333333	1	-30	-5.66666666666667	1	0.5712890625
1315.6005859375	0.00833333333333333	1	NaN	-2	1	0.630859375
1318.375	0.00833333333333333	1	-30	-5.54166666666667	2	0.560546875
1321.25	0.00833333333333333	1	30	2.375	1	0.3662109375
1323.732421875	0.00833333333333333	1	NaN	-1.875	1	0.267578125
1326.3916015625	0.00833333333333333	1	30	3.375	1	1.3046875
1329.9501953125	0.00833333333333333	1	30	3.5	1	0.642578125
1333.1162109375	0.00833333333333333	1	30	2.5	1	0.484375
1335.8505859375	0.00833333333333333	1	30	2.625	1	0.2861328125
1338.658203125	0.00833333333333333	1	30	2.75	1	0.4306640625
1341.224609375	0.00833333333333333	1	30	2.875	2	0.7919921875
1344.0751953125	0.00833333333333333	1	-30	-5.66666666666667	1	0.6533203125
1347.1337890625	0.00833333333333333	1	NaN	-0.25	2	0.603515625
1350.05859375	0.00833333333333333	1	30	3.625	2	0.5419921875
1352.68359375	0.00833333333333333	1	-30	-5.54166666666667	1	1.0458984375
1356.224609375	0.00833333333333333	1	30	2.75	2	0.3203125
1359.05859375	0.00833333333333333	1	-30	-5.41666666666667	2	0.0869140625
1380.3330078125	0.00833333333333333	1	-30	-5.54166666666667	1	0.7890625
1383.158203125	0.00833333333333333	1	30	2.625	1	0.595703125
1386.2578125	0.00833333333333333	1	NaN	-1.75	1	0.640625
1389.3916015625	0.00833333333333333	1	NaN	-0.375	1	0.642578125
1392.474609375	0.00833333333333333	1	NaN	-1.625	1	0.5517578125
1395.2998046875	0.00833333333333333	1	NaN	-1.5	2	0.6943359375
1398.349609375	0.00833333333333333	1	30	2.75	2	0.59765625
1401.33984375	0.00833333333333333	1	30	2.625	2	0.5908203125
1404.1240234375	0.00833333333333333	1	-30	-5.41666666666667	2	0.3984375
1406.740234375	0.00833333333333333	1	NaN	-1.625	1	0.4228515625
1409.6396484375	0.00833333333333333	1	NaN	-1.5	2	0.4111328125
1412.2568359375	0.00833333333333333	1	NaN	-1.625	2	0.4423828125
1414.857421875	0.00833333333333333	1	NaN	-0.25	1	0.3291015625
1417.640625	0.00833333333333333	1	NaN	-0.125	1	0.6103515625
1420.423828125	0.00833333333333333	1	NaN	-1.75	1	0.6591796875
1423.33203125	0.00833333333333333	1	NaN	0	2	0.623046875
1426.4326171875	0.00833333333333333	1	30	2.5	1	1.6669921875
1430.515625	0.00833333333333333	1	NaN	-1.625	1	0.599609375
1433.6240234375	0.00833333333333333	1	NaN	-1.5	1	0.5234375
1436.4150390625	0.00833333333333333	1	NaN	-1.375	1	0.5009765625
1439.4150390625	0.00833333333333333	1	NaN	-1.25	1	0.724609375
1442.2392578125	0.00833333333333333	1	NaN	-1.125	1	0.484375
1445.240234375	0.00833333333333333	1	NaN	-1	2	0.6513671875
1448.005859375	0.00833333333333333	1	NaN	-1.125	1	0.646484375
1450.70703125	0.00833333333333333	1	NaN	-1	2	0.9052734375
1453.82421875	0.00833333333333333	0	30	3.16875	1	0.9482421875
1457.1826171875	0.00833333333333333	0	-30	-5.91041666666667	1	0.990234375
1460.515625	0.00833333333333333	0	-30	-5.91041666666667	1	0.5771484375
1463.20703125	0.00833333333333333	0	30	3.16875	1	0.60546875
1466.064453125	0.00833333333333333	0	-30	-5.91041666666667	2	0.5478515625
1468.8154296875	0.00833333333333333	0	30	3.16875	2	0.60546875
1471.8818359375	0.00833333333333333	0	-30	-5.91041666666667	1	0.6591796875
1474.7568359375	0.00833333333333333	0	30	3.16875	1	0.6640625
1477.755859375	0.00833333333333333	0	30	3.16875	1	0.521484375
1480.6484375	0.00833333333333333	0	-30	-5.91041666666667	1	0.5009765625
1483.2568359375	0.00833333333333333	0	30	3.16875	2	0.7880859375
1486.3818359375	0.00833333333333333	0	30	3.16875	1	0.591796875
1489.33984375	0.00833333333333333	0	-30	-5.91041666666667	1	0.3701171875
1492.130859375	0.00833333333333333	0	-30	-5.91041666666667	2	0.458984375
1494.6728515625	0.00833333333333333	0	-30	-5.91041666666667	1	0.63671875
1497.72265625	0.00833333333333333	0	30	3.16875	1	3.2197265625
1503.439453125	0.00833333333333333	0	-30	-5.91041666666667	1	0.6142578125
1506.5556640625	0.00833333333333333	0	30	3.16875	1	0.5546875
1509.197265625	0.00833333333333333	0	-30	-5.91041666666667	1	0.552734375
1512.0146484375	0.00833333333333333	0	-30	-5.91041666666667	1	0.4794921875
1514.8466796875	0.00833333333333333	0	30	3.16875	1	0.4072265625
1517.5224609375	0.00833333333333333	0	-30	-5.91041666666667	2	0.412109375
1520.314453125	0.00833333333333333	0	-30	-5.91041666666667	1	0.419921875
1523.248046875	0.00833333333333333	0	-30	-5.91041666666667	1	0.55859375
1526.330078125	0.00833333333333333	0	30	3.16875	1	0.31640625
1528.8056640625	0.00833333333333333	0	30	3.29375	1	0.609375
1531.697265625	0.00833333333333333	0	-30	-5.91041666666667	1	0.58984375
1534.447265625	0.00833333333333333	0	30	3.29375	1	0.3837890625
1536.9638671875	0.00833333333333333	0	-30	-5.91041666666667	2	0.515625
1539.697265625	0.00833333333333333	0	30	3.29375	2	0.7099609375
1542.880859375	0.00833333333333333	0	-30	-5.91041666666667	1	0.638671875
1545.98828125	0.00833333333333333	0	-30	-5.91041666666667	1	0.939453125
1549.3720703125	0.00833333333333333	0	-30	-5.91041666666667	1	0.84375
1552.671875	0.00833333333333333	0	-30	-5.91041666666667	1	0.51953125
1555.3720703125	0.00833333333333333	0	-30	-5.91041666666667	1	0.5556640625
1558.2216796875	0.00833333333333333	0	-30	-5.78541666666667	1	0.666015625
1561.2138671875	0.00833333333333333	0	30	3.29375	1	0.3935546875
1564.11328125	0.00833333333333333	0	30	3.29375	2	0.654296875
1566.921875	0.00833333333333333	0	-30	-5.78541666666667	1	0.55078125
1569.6298828125	0.00833333333333333	0	30	3.29375	1	0.490234375
1572.322265625	0.00833333333333333	0	-30	-5.78541666666667	1	0.677734375
1575.2216796875	0.00833333333333333	0	30	3.29375	1	0.4501953125
1577.921875	0.00833333333333333	0	-30	-5.78541666666667	1	0.494140625
1580.6875	0.00833333333333333	0	-30	-5.78541666666667	1	0.384765625
1583.513671875	0.00833333333333333	0	-30	-5.66041666666667	1	0.4072265625
1586.205078125	0.00833333333333333	0	-30	-5.66041666666667	1	0.443359375
1589.0302734375	0.00833333333333333	0	-30	-5.66041666666667	1	0.5869140625
1592.013671875	0.00833333333333333	0	30	3.29375	2	0.68359375
1595.0546875	0.00833333333333333	0	30	3.29375	1	0.4423828125
1597.7626953125	0.00833333333333333	0	-30	-5.66041666666667	1	0.478515625
1600.73828125	0.00833333333333333	0	-30	-5.66041666666667	1	0.5029296875
1603.771484375	0.00833333333333333	0	30	3.29375	1	0.4619140625
1606.396484375	0.00833333333333333	0	-30	-5.53541666666667	1	0.5009765625
1608.962890625	0.00833333333333333	0	-30	-5.53541666666667	1	0.4228515625
1611.8212890625	0.00833333333333333	0	30	3.29375	1	0.580078125
1614.4541015625	0.00833333333333333	0	30	3.29375	1	0.443359375
1617.4208984375	0.00833333333333333	0	-30	-5.53541666666667	1	0.541015625
1620.279296875	0.00833333333333333	0	30	3.29375	1	0.5546875
1623.11328125	0.00833333333333333	0	30	3.41875	2	0.6806640625
1625.8544921875	0.00833333333333333	0	-30	-5.53541666666667	2	0.7158203125
1628.9296875	0.00833333333333333	0	-30	-5.53541666666667	2	0.6005859375
1631.962890625	0.00833333333333333	0	-30	-5.53541666666667	2	0.4873046875
1634.99609375	0.00833333333333333	0	-30	-5.53541666666667	2	1.26171875
1638.7705078125	0.00833333333333333	0	-30	-5.53541666666667	1	0.50390625
1641.462890625	0.00833333333333333	0	-30	-5.53541666666667	2	0.8193359375
1644.6044921875	0.00833333333333333	0	30	3.41875	2	0.501953125
1647.2294921875	0.00833333333333333	0	30	3.41875	1	0.5810546875
1649.87890625	0.00833333333333333	0	-30	-5.53541666666667	2	0.3642578125
1652.74609375	0.00833333333333333	0	-30	-5.53541666666667	1	0.2890625
1655.3125	0.00833333333333333	0	30	3.41875	1	0.40234375
1658.2451171875	0.00833333333333333	0	30	3.41875	2	0.5263671875
1661.2373046875	0.00833333333333333	0	30	3.41875	2	0.4541015625
1663.9208984375	0.00833333333333333	0	-30	-5.53541666666667	2	0.41015625
1666.4375	0.00833333333333333	0	30	3.41875	2	0.5654296875
1669.4873046875	0.00833333333333333	0	-30	-5.53541666666667	2	0.66796875
1672.5615234375	0.00833333333333333	0	-30	-5.53541666666667	2	0.490234375
1675.4619140625	0.00833333333333333	0	-30	-5.53541666666667	1	0.7578125
1678.4443359375	0.00833333333333333	0	30	3.41875	2	0.3515625
1681.0537109375	0.00833333333333333	0	-30	-5.53541666666667	1	0.4140625
1683.62890625	0.00833333333333333	0	-30	-5.53541666666667	2	0.4384765625
1710.26953125	0.00833333333333333	0	-30	-5.53541666666667	1	1.3115234375
1713.7783203125	0.00833333333333333	0	-30	-5.53541666666667	2	1.0908203125
1717.2939453125	0.00833333333333333	0	30	3.41875	2	0.646484375
1720.3779296875	0.00833333333333333	0	-30	-5.53541666666667	2	0.6748046875
1723.328125	0.00833333333333333	0	-30	-5.53541666666667	2	0.693359375
1726.46875	0.00833333333333333	0	30	3.29375	2	0.552734375
1729.3359375	0.00833333333333333	0	30	3.29375	2	0.765625
1732.703125	0.00833333333333333	0	30	3.29375	2	0.501953125
1735.486328125	0.00833333333333333	0	30	3.29375	2	0.3271484375
1738.1865234375	0.00833333333333333	0	-30	-5.53541666666667	2	0.3154296875
1740.953125	0.00833333333333333	0	30	3.29375	1	0.3408203125
1743.361328125	0.00833333333333333	0	-30	-5.53541666666667	2	0.2841796875
1745.8935546875	0.00833333333333333	0	-30	-5.66041666666667	2	0.3525390625
1748.7607421875	0.00833333333333333	0	-30	-5.66041666666667	2	0.716796875
1751.96875	0.00833333333333333	0	30	3.29375	1	0.3251953125
1754.7021484375	0.00833333333333333	0	30	3.29375	2	0.3681640625
1757.318359375	0.00833333333333333	0	-30	-5.66041666666667	2	0.4560546875
1760.0693359375	0.00833333333333333	0	30	3.29375	2	0.376953125
1762.6357421875	0.00833333333333333	0	30	3.29375	1	0.4912109375
1765.2353515625	0.00833333333333333	0	30	3.29375	2	0.4267578125
1768.060546875	0.00833333333333333	0	30	3.29375	2	0.2421875
1770.560546875	0.00833333333333333	0	30	3.29375	1	0.326171875
1773.4267578125	0.00833333333333333	0	30	3.29375	2	0.5556640625
1776.4189453125	0.00833333333333333	0	-30	-5.66041666666667	1	0.412109375
1779.28515625	0.00833333333333333	0	-30	-5.66041666666667	2	0.76171875
1782.4775390625	0.00833333333333333	0	30	3.29375	2	0.3291015625
1785.244140625	0.00833333333333333	0	30	3.29375	1	0.458984375
1788.16015625	0.00833333333333333	0	-30	-5.66041666666667	2	2.9111328125
1793.16015625	0.00833333333333333	0	30	3.29375	1	2.03125
1797.685546875	0.00833333333333333	0	30	3.29375	2	0.986328125
1801.15234375	0.00833333333333333	0	-30	-5.66041666666667	1	0.431640625
1803.96875	0.00833333333333333	0	-30	-5.66041666666667	2	0.88671875
1807.2099609375	0.00833333333333333	0	-30	-5.66041666666667	1	0.3896484375
1810.0341796875	0.00833333333333333	0	30	3.29375	1	0.830078125
1813.0185546875	0.00833333333333333	0	30	3.29375	1	0.6611328125
1816.2431640625	0.00833333333333333	0	-30	-5.66041666666667	1	0.388671875
1818.91015625	0.00833333333333333	0	30	3.29375	2	0.4736328125
1821.9267578125	0.00833333333333333	0	30	3.29375	1	0.2734375
1824.28515625	0.00833333333333333	0	30	3.29375	2	0.259765625
1827.076171875	0.00833333333333333	0	-30	-5.66041666666667	1	0.7158203125
1830.0849609375	0.00833333333333333	0	30	3.29375	1	0.603515625
1832.8427734375	0.00833333333333333	0	30	3.29375	2	0.3095703125
1835.701171875	0.00833333333333333	0	-30	-5.66041666666667	1	0.515625
1838.484375	0.00833333333333333	0	30	3.29375	2	0.3564453125
1841.025390625	0.00833333333333333	0	-30	-5.66041666666667	1	0.6953125
1844.2265625	0.00833333333333333	0	-30	-5.53541666666667	1	0.9345703125
1847.5927734375	0.00833333333333333	0	30	3.29375	2	0.6005859375
1850.3681640625	0.00833333333333333	0	30	3.29375	2	0.5849609375
1853.04296875	0.00833333333333333	0	30	3.29375	1	0.8388671875
1855.9755859375	0.00833333333333333	0	30	3.29375	1	0.6904296875
1859.17578125	0.00833333333333333	0	-30	-5.53541666666667	1	0.6494140625
1862.2841796875	0.00833333333333333	0	-30	-5.53541666666667	1	0.4296875
1864.8759765625	0.00833333333333333	0	-30	-5.53541666666667	2	0.6533203125
1867.9013671875	0.00833333333333333	0	30	3.29375	2	0.380859375
1870.41796875	0.00833333333333333	0	30	3.29375	1	0.408203125
1873.033203125	0.00833333333333333	0	-30	-5.53541666666667	2	0.2568359375
1875.55078125	0.00833333333333333	0	30	3.29375	2	0.5390625
1878.5341796875	0.00833333333333333	0	30	3.29375	2	0.4755859375
1881.1259765625	0.00833333333333333	0	30	3.29375	2	0.3486328125
1883.7587890625	0.00833333333333333	0	-30	-5.53541666666667	2	0.36328125
1886.400390625	0.00833333333333333	0	-30	-5.53541666666667	1	0.73046875
1889.359375	0.00833333333333333	0	-30	-5.53541666666667	2	0.443359375
1892.0009765625	0.00833333333333333	0	-30	-5.53541666666667	1	0.4658203125
1894.5927734375	0.00833333333333333	0	30	3.29375	1	0.4501953125
1897.4423828125	0.00833333333333333	0	30	3.29375	2	0.3447265625
1899.93359375	0.00833333333333333	0	30	3.29375	1	0.6611328125
1903.1259765625	0.00833333333333333	0	-30	-5.53541666666667	2	0.3408203125
1905.80859375	0.00833333333333333	0	30	3.29375	1	0.466796875
1908.708984375	0.00833333333333333	0	-30	-5.53541666666667	1	1.478515625
1912.3505859375	0.00833333333333333	0	-30	-5.53541666666667	1	0.8125
1915.3828125	0.00833333333333333	0	30	3.29375	2	0.6123046875
1918.3505859375	0.00833333333333333	0	-30	-5.53541666666667	1	0.62890625
1921.375	0.00833333333333333	0	-30	-5.53541666666667	1	0.5810546875
1924.0166015625	0.00833333333333333	0	-30	-5.53541666666667	1	0.4912109375
1926.7490234375	0.00833333333333333	0	30	3.29375	2	0.5107421875
1929.4921875	0.00833333333333333	0	30	3.29375	1	0.248046875
1931.8662109375	0.00833333333333333	0	30	3.29375	1	0.28125
1934.625	0.00833333333333333	0	-30	-5.41041666666667	1	0.35546875
1937.4248046875	0.00833333333333333	0	30	3.29375	1	0.291015625
1940.2919921875	0.00833333333333333	0	30	3.29375	2	0.3525390625
1965.0771484375	0.00833333333333333	0	-30	-5.41041666666667	1	0.9208984375
1968.0859375	0.00833333333333333	0	-30	-5.41041666666667	2	0.6796875
1971.259765625	0.00833333333333333	0	-30	-5.41041666666667	1	0.505859375
1973.8681640625	0.00833333333333333	0	-30	-5.41041666666667	1	0.609375
1976.8681640625	0.00833333333333333	0	-30	-5.41041666666667	1	0.41015625
1979.4013671875	0.00833333333333333	0	30	3.29375	1	0.548828125
1982.076171875	0.00833333333333333	0	30	3.29375	1	0.513671875
1984.943359375	0.00833333333333333	0	30	3.29375	2	0.294921875
1987.818359375	0.00833333333333333	0	30	3.29375	1	0.755859375
1990.6845703125	0.00833333333333333	0	30	3.29375	2	0.361328125
1993.16015625	0.00833333333333333	0	-30	-5.41041666666667	1	0.501953125
1995.9345703125	0.00833333333333333	0	-30	-5.41041666666667	1	0.5673828125
1998.734375	0.00833333333333333	0	-30	-5.28541666666667	1	0.50390625
2001.6357421875	0.00833333333333333	0	30	3.29375	1	0.4755859375
2004.443359375	0.00833333333333333	0	30	3.29375	1	0.4990234375
2007.03515625	0.00833333333333333	0	30	3.29375	2	0.4755859375
2009.6689453125	0.00833333333333333	0	30	3.29375	2	0.474609375
2012.693359375	0.00833333333333333	0	-30	-5.28541666666667	2	0.4580078125
2015.6845703125	0.00833333333333333	0	30	3.29375	1	0.5703125
2018.509765625	0.00833333333333333	0	30	3.29375	2	0.9130859375
2021.66796875	0.00833333333333333	0	-30	-5.28541666666667	1	0.5234375
2024.376953125	0.00833333333333333	0	30	3.29375	2	1.2783203125
2028.0927734375	0.00833333333333333	0	-30	-5.28541666666667	1	0.5224609375
2030.79296875	0.00833333333333333	0	-30	-5.28541666666667	1	0.6064453125
2033.7763671875	0.00833333333333333	0	30	3.29375	2	0.5673828125
2036.7431640625	0.00833333333333333	0	30	3.29375	2	0.6572265625
2039.91796875	0.00833333333333333	0	30	3.29375	2	0.5859375
2042.9755859375	0.00833333333333333	0	30	3.16875	2	0.48828125
2045.7841796875	0.00833333333333333	0	30	3.16875	2	0.3916015625
2048.4931640625	0.00833333333333333	0	30	3.16875	2	0.4111328125
2051.2177734375	0.00833333333333333	0	-30	-5.28541666666667	2	0.3349609375
2053.7431640625	0.00833333333333333	0	30	3.16875	2	0.681640625
2056.658203125	0.00833333333333333	0	-30	-5.28541666666667	1	0.4619140625
2059.3515625	0.00833333333333333	0	-30	-5.28541666666667	1	0.9052734375
2062.3837890625	0.00833333333333333	0	30	3.16875	2	0.552734375
2065.04296875	0.00833333333333333	0	-30	-5.28541666666667	2	0.5986328125
2067.8173828125	0.00833333333333333	0	-30	-5.28541666666667	2	0.4150390625
2070.6845703125	0.00833333333333333	0	-30	-5.28541666666667	1	0.5244140625
2073.708984375	0.00833333333333333	0	-30	-5.28541666666667	2	0.66015625
2076.583984375	0.00833333333333333	0	30	3.04375	1	0.2890625
2079.1591796875	0.00833333333333333	0	30	3.04375	2	0.3623046875
2081.6845703125	0.00833333333333333	0	-30	-5.28541666666667	2	0.564453125
2084.458984375	0.00833333333333333	0	-30	-5.28541666666667	1	1.1904296875
2087.7255859375	0.00833333333333333	0	-30	-5.28541666666667	2	0.5556640625
2090.708984375	0.00833333333333333	0	-30	-5.28541666666667	2	1.1484375
2094.3759765625	0.00833333333333333	0	30	3.04375	1	0.44140625
2096.8671875	0.00833333333333333	0	-30	-5.28541666666667	2	0.3427734375
2099.5673828125	0.00833333333333333	0	-30	-5.28541666666667	1	0.810546875
2102.8671875	0.00833333333333333	0	-30	-5.28541666666667	1	0.7666015625
2106.18359375	0.00833333333333333	0	-30	-5.28541666666667	1	0.3544921875
2108.8251953125	0.00833333333333333	0	-30	-5.28541666666667	1	0.361328125
2111.6083984375	0.00833333333333333	0	30	3.04375	1	1.345703125
2115.2421875	0.00833333333333333	0	-30	-5.28541666666667	1	1
2118.775390625	0.00833333333333333	0	-30	-5.16041666666667	1	0.4111328125
2121.4833984375	0.00833333333333333	0	-30	-5.16041666666667	1	0.5029296875
2124.3173828125	0.00833333333333333	0	30	3.04375	2	0.6376953125
2127.3916015625	0.00833333333333333	0	-30	-5.16041666666667	1	0.69140625
2130.408203125	0.00833333333333333	0	-30	-5.16041666666667	2	0.482421875
2133.4501953125	0.00833333333333333	0	-30	-5.16041666666667	2	0.4326171875
2136.05859375	0.00833333333333333	0	-30	-5.16041666666667	2	0.5849609375
2138.8330078125	0.00833333333333333	0	30	3.04375	1	0.5537109375
2141.5166015625	0.00833333333333333	0	-30	-5.16041666666667	1	0.88671875
2144.8916015625	0.00833333333333333	0	30	3.04375	2	3.423828125
2150.5498046875	0.00833333333333333	0	-30	-5.16041666666667	1	0.7734375
2153.716796875	0.00833333333333333	0	30	3.04375	2	0.9189453125
2157.166015625	0.00833333333333333	0	30	3.04375	1	0.3974609375
2159.8662109375	0.00833333333333333	0	30	3.04375	2	0.337890625
2162.4658203125	0.00833333333333333	0	30	3.04375	2	0.6103515625
2165.3154296875	0.00833333333333333	0	-30	-5.16041666666667	2	0.376953125
2168.0576171875	0.00833333333333333	0	30	3.04375	2	0.466796875
2171.107421875	0.00833333333333333	0	30	3.04375	2	0.6005859375
2173.94140625	0.00833333333333333	0	30	3.04375	2	0.390625
2176.5654296875	0.00833333333333333	0	-30	-5.16041666666667	2	0.5107421875
2179.232421875	0.00833333333333333	0	-30	-5.16041666666667	1	0.5966796875
2182.2822265625	0.00833333333333333	0	30	2.91875	2	0.7783203125
2185.140625	0.00833333333333333	0	30	2.91875	2	0.744140625
2187.9658203125	0.00833333333333333	0	-30	-5.16041666666667	1	0.8388671875
2190.8828125	0.00833333333333333	0	-30	-5.16041666666667	1	1.42578125
2194.57421875	0.00833333333333333	0	30	2.91875	1	0.56640625
2197.4658203125	0.00833333333333333	0	30	2.91875	2	0.546875
2205.5654296875	0.00833333333333333	0	-30	-5.16041666666667	2	0.4794921875
2208.33203125	0.00833333333333333	0	-30	-5.16041666666667	2	0.4658203125
2210.990234375	0.00833333333333333	0	30	2.91875	1	0.599609375
2213.8984375	0.00833333333333333	0	30	2.91875	2	0.7548828125
2217.1484375	0.00833333333333333	0	30	2.91875	1	0.77734375
2220.248046875	0.00833333333333333	0	-30	-5.16041666666667	2	0.349609375
2222.7900390625	0.00833333333333333	0	-30	-5.16041666666667	1	0.5595703125
2225.5732421875	0.00833333333333333	0	-30	-5.16041666666667	1	0.46484375
2228.2900390625	0.00833333333333333	0	-30	-5.16041666666667	1	0.580078125
2231.3984375	0.00833333333333333	0	30	2.91875	2	0.4873046875
2234.1650390625	0.00833333333333333	0	-30	-5.16041666666667	2	0.9287109375
2237.58203125	0.00833333333333333	0	-30	-5.16041666666667	1	0.3125
2239.9814453125	0.00833333333333333	0	30	2.91875	1	0.7607421875
2243.0224609375	0.00833333333333333	0	-30	-5.16041666666667	1	0.4716796875
2245.58984375	0.00833333333333333	0	-30	-5.16041666666667	1	0.2890625
2248.048828125	0.00833333333333333	0	-30	-5.16041666666667	1	0.26953125
2250.3984375	0.00833333333333333	0	30	2.91875	2	0.3046875
2253.0556640625	0.00833333333333333	0	-30	-5.16041666666667	2	0.4150390625
2255.65625	0.00833333333333333	0	30	2.91875	1	0.3271484375
2258.1318359375	0.00833333333333333	0	-30	-5.16041666666667	1	0.3388671875
2260.939453125	0.00833333333333333	0	30	2.91875	2	0.009765625
2263.0400390625	0.00833333333333333	0	-30	-5.16041666666667	1	0.5830078125
2265.9140625	0.00833333333333333	0	-30	-5.16041666666667	1	0.4052734375
2268.6982421875	0.00833333333333333	0	-30	-5.16041666666667	1	0.4609375
2271.498046875	0.00833333333333333	0	-30	-5.16041666666667	2	0.326171875
2274.2060546875	0.00833333333333333	0	-30	-5.16041666666667	1	0.4814453125
2276.9814453125	0.00833333333333333	0	30	2.91875	1	0.3701171875
2279.7646484375	0.00833333333333333	0	30	2.91875	2	0.283203125
2282.59765625	0.00833333333333333	0	30	2.91875	1	0.4423828125
2285.1640625	0.00833333333333333	0	30	2.91875	2	0.2919921875
2287.7646484375	0.00833333333333333	0	-30	-5.16041666666667	1	0.4833984375
2290.34765625	0.00833333333333333	0	-30	-5.16041666666667	2	0.30078125
2292.9306640625	0.00833333333333333	0	30	2.91875	2	0.341796875
2295.61328125	0.00833333333333333	0	-30	-5.16041666666667	1	0.4033203125
2298.2392578125	0.00833333333333333	0	-30	-5.16041666666667	2	0.2490234375
2300.763671875	0.00833333333333333	0	-30	-5.16041666666667	2	0.3564453125
2303.34765625	0.00833333333333333	0	-30	-5.16041666666667	1	0.5166015625
2306.130859375	0.00833333333333333	0	30	2.91875	1	0.4375
2308.8974609375	0.00833333333333333	0	-30	-5.16041666666667	1	0.5595703125
2311.755859375	0.00833333333333333	0	30	2.91875	2	0.78125
2314.7138671875	0.00833333333333333	0	30	2.91875	1	0.607421875
2317.73046875	0.00833333333333333	0	30	2.91875	1	0.623046875
2320.5888671875	0.00833333333333333	0	30	2.91875	1	0.572265625
2323.255859375	0.00833333333333333	0	-30	-5.16041666666667	2	0.5927734375
2326.1630859375	0.00833333333333333	0	-30	-5.16041666666667	1	0.7099609375
2329.2138671875	0.00833333333333333	0	-30	-5.16041666666667	2	0.4912109375
2331.9638671875	0.00833333333333333	0	-30	-5.16041666666667	2	0.533203125
2335.0556640625	0.00833333333333333	0	-30	-5.16041666666667	2	0.5859375
2337.9384765625	0.00833333333333333	0	30	2.91875	1	0.5908203125
2340.830078125	0.00833333333333333	0	30	2.91875	2	0.3876953125
2343.6220703125	0.00833333333333333	0	-30	-5.16041666666667	2	0.419921875
2346.1884765625	0.00833333333333333	0	-30	-5.16041666666667	2	0.4931640625
2348.830078125	0.00833333333333333	0	-30	-5.28541666666667	1	0.33984375
2351.4384765625	0.00833333333333333	0	30	2.91875	2	0.3154296875
2353.86328125	0.00833333333333333	0	-30	-5.28541666666667	1	0.283203125
2356.3134765625	0.00833333333333333	0	30	2.91875	2	0.2802734375
2358.921875	0.00833333333333333	0	30	2.91875	1	0.240234375
2361.5380859375	0.00833333333333333	0	-30	-5.28541666666667	2	0.2880859375
2363.9638671875	0.00833333333333333	0	-30	-5.28541666666667	2	0.3427734375
2366.830078125	0.00833333333333333	0	-30	-5.28541666666667	1	2.900390625
2372.0546875	0.00833333333333333	0	-30	-5.28541666666667	1	0.6123046875
2374.7880859375	0.00833333333333333	0	-30	-5.28541666666667	1	0.5908203125
2377.48828125	0.00833333333333333	0	30	2.91875	1	0.2666015625
2379.87109375	0.00833333333333333	0	-30	-5.28541666666667	1	0.3876953125
2382.5712890625	0.00833333333333333	0	30	2.91875	1	0.4794921875
2385.5712890625	0.00833333333333333	0	30	2.91875	1	0.3759765625
2388.1298828125	0.00833333333333333	0	-30	-5.28541666666667	1	0.296875
2390.9873046875	0.00833333333333333	0	-30	-5.16041666666667	1	2.8564453125
2396.3544921875	0.00833333333333333	0	-30	-5.16041666666667	1	0.44921875
2399.087890625	0.00833333333333333	0	30	2.91875	1	0.587890625
2401.87109375	0.00833333333333333	0	30	3.04375	2	0.6689453125
2404.8291015625	0.00833333333333333	0	-30	-5.16041666666667	1	0.40625
2407.5712890625	0.00833333333333333	0	-30	-5.16041666666667	1	0.3447265625
2410.3203125	0.00833333333333333	0	30	3.04375	1	0.34765625
2412.962890625	0.00833333333333333	0	30	3.04375	1	0.44921875
2415.521484375	0.00833333333333333	0	30	3.04375	1	0.5947265625
2418.4462890625	0.00833333333333333	0	30	3.04375	1	4.4140625
2425.2216796875	0.00833333333333333	0	30	3.04375	1	0.3671875
2427.7294921875	0.00833333333333333	0	30	3.16875	2	0.37890625
2430.1708984375	0.00833333333333333	0	30	3.16875	2	0.689453125
2463.328125	0.00833333333333333	0	-30	-5.16041666666667	1	1.2216796875
2466.9697265625	0.00833333333333333	0	-30	-5.03541666666667	1	0.64453125
2469.7529296875	0.00833333333333333	0	30	3.16875	2	0.548828125
2472.787109375	0.00833333333333333	0	30	3.16875	2	0.482421875
2475.685546875	0.00833333333333333	0	30	3.16875	1	0.376953125
2478.453125	0.00833333333333333	0	-30	-5.03541666666667	2	0.376953125
2481.1533203125	0.00833333333333333	0	30	3.16875	1	0.2685546875
2483.853515625	0.00833333333333333	0	-30	-5.03541666666667	1	0.2490234375
2486.4453125	0.00833333333333333	0	-30	-5.03541666666667	2	0.048828125
2488.953125	0.00833333333333333	0	30	3.16875	1	0.26171875
2491.578125	0.00833333333333333	0	-30	-5.03541666666667	1	0.46875
2494.3447265625	0.00833333333333333	0	30	3.16875	2	0.494140625
2497.236328125	0.00833333333333333	0	30	3.16875	2	0.490234375
2500.103515625	0.00833333333333333	0	-30	-5.03541666666667	2	0.5595703125
2503.2861328125	0.00833333333333333	0	30	3.16875	2	0.537109375
2506.01171875	0.00833333333333333	0	-30	-5.03541666666667	2	0.6435546875
2508.828125	0.00833333333333333	0	-30	-5.03541666666667	2	0.38671875
2511.76953125	0.00833333333333333	0	-30	-5.03541666666667	2	0.3095703125
2514.5859375	0.00833333333333333	0	-30	-5.03541666666667	2	1.5576171875
2518.51953125	0.00833333333333333	0	30	3.16875	2	0.51171875
2521.2607421875	0.00833333333333333	0	30	3.16875	2	0.306640625
2523.77734375	0.00833333333333333	0	-30	-5.16041666666667	2	0.3017578125
2526.486328125	0.00833333333333333	0	-30	-5.16041666666667	2	0.44140625
2529.3359375	0.00833333333333333	0	30	3.04375	2	0.34375
2531.828125	0.00833333333333333	0	-30	-5.16041666666667	2	0.2275390625
2534.1689453125	0.00833333333333333	0	-30	-5.16041666666667	2	0.294921875
2536.4775390625	0.00833333333333333	0	-30	-5.16041666666667	2	0.2900390625
2539.310546875	0.00833333333333333	0	-30	-5.28541666666667	2	0.3291015625
2541.8193359375	0.00833333333333333	0	30	3.04375	2	0.453125
2544.4521484375	0.00833333333333333	0	30	3.04375	2	0.3642578125
2546.927734375	0.00833333333333333	0	30	3.04375	2	0.46484375
2549.9521484375	0.00833333333333333	0	-30	-5.28541666666667	1	0.3125
2552.751953125	0.00833333333333333	0	-30	-5.28541666666667	2	0.3447265625
2555.2841796875	0.00833333333333333	0	-30	-5.28541666666667	2	0.3408203125
2557.8359375	0.00833333333333333	0	30	3.04375	2	0.548828125
2560.8271484375	0.00833333333333333	0	-30	-5.28541666666667	2	0.1259765625
2563.0517578125	0.00833333333333333	0	-30	-5.28541666666667	2	0.3974609375
2565.451171875	0.00833333333333333	0	-30	-5.28541666666667	2	0.4541015625
2568.3017578125	0.00833333333333333	0	30	2.91875	2	0.626953125
2571.1357421875	0.00833333333333333	0	-30	-5.41041666666667	2	0.697265625
2574.03515625	0.00833333333333333	0	-30	-5.41041666666667	2	0.501953125
2576.6025390625	0.00833333333333333	0	-30	-5.41041666666667	2	0.4462890625
2579.2685546875	0.00833333333333333	0	30	2.91875	2	0.3173828125
2581.91015625	0.00833333333333333	0	-30	-5.41041666666667	2	0.267578125
2584.251953125	0.00833333333333333	0	30	2.91875	2	0.4130859375
2586.8349609375	0.00833333333333333	0	30	2.91875	2	0.4150390625
2589.5419921875	0.00833333333333333	0	-30	-5.41041666666667	1	0.3720703125
2592.3017578125	0.00833333333333333	0	-30	-5.41041666666667	2	0.580078125
2595.2177734375	0.00833333333333333	0	-30	-5.41041666666667	1	1.2958984375
2598.6015625	0.00833333333333333	0	-30	-5.41041666666667	1	0.4404296875
2601.201171875	0.00833333333333333	0	-30	-5.41041666666667	2	0.6005859375
2603.9921875	0.00833333333333333	0	-30	-5.41041666666667	2	0.3056640625
2606.609375	0.00833333333333333	0	-30	-5.41041666666667	2	0.296875
2609.193359375	0.00833333333333333	0	30	2.91875	2	0.3125
2611.8681640625	0.00833333333333333	0	-30	-5.41041666666667	2	0.2939453125
2614.3681640625	0.00833333333333333	0	30	2.79375	2	0.05859375
2616.5517578125	0.00833333333333333	0	-30	-5.41041666666667	2	0.306640625
2619.193359375	0.00833333333333333	0	30	2.79375	2	0.78515625
2622.3427734375	0.00833333333333333	0	30	2.79375	2	0.2919921875
2625.05078125	0.00833333333333333	0	-30	-5.53541666666667	1	0.4482421875
2627.80078125	0.00833333333333333	0	-30	-5.53541666666667	2	0.74609375
2631.0927734375	0.00833333333333333	0	-30	-5.53541666666667	2	0.654296875
2634.076171875	0.00833333333333333	0	-30	-5.53541666666667	1	0.4794921875
2636.884765625	0.00833333333333333	0	-30	-5.53541666666667	1	0.5419921875
2639.509765625	0.00833333333333333	0	-30	-5.53541666666667	1	0.517578125
2642.2001953125	0.00833333333333333	0	-30	-5.53541666666667	2	0.298828125
2644.701171875	0.00833333333333333	0	-30	-5.53541666666667	2	0.5185546875
2647.31640625	0.00833333333333333	0	-30	-5.53541666666667	2	0.431640625
2650.0595703125	0.00833333333333333	0	30	2.79375	2	0.6396484375
2653.0009765625	0.00833333333333333	0	-30	-5.53541666666667	2	0.5947265625
2655.791015625	0.00833333333333333	0	30	2.79375	1	0.3330078125
2658.2255859375	0.00833333333333333	0	30	2.79375	2	0.2421875
2660.6083984375	0.00833333333333333	0	30	2.79375	2	0.3154296875
2663.525390625	0.00833333333333333	0	30	2.79375	2	0.375
2666.0087890625	0.00833333333333333	0	-30	-5.53541666666667	2	0.3154296875
2668.4580078125	0.00833333333333333	0	-30	-5.66041666666667	2	0.2744140625
2670.859375	0.00833333333333333	0	30	2.79375	1	0.5126953125
2673.7001953125	0.00833333333333333	0	30	2.79375	2	0.009765625
2675.7841796875	0.00833333333333333	0	30	2.79375	2	0.396484375
2678.7080078125	0.00833333333333333	0	-30	-5.66041666666667	2	0.5283203125
2698.083984375	0.00833333333333333	0	-30	-5.66041666666667	2	0.4736328125
2701.1337890625	0.00833333333333333	0	-30	-5.66041666666667	1	0.4560546875
2703.8251953125	0.00833333333333333	0	-30	-5.66041666666667	1	0.412109375
2706.5498046875	0.00833333333333333	0	30	2.79375	2	0.5439453125
2709.533203125	0.00833333333333333	0	30	2.79375	2	0.6171875
2712.375	0.00833333333333333	0	30	2.79375	2	0.6142578125
2715.4326171875	0.00833333333333333	0	30	2.66875	2	0.517578125
2718.4169921875	0.00833333333333333	0	-30	-5.66041666666667	1	1.708984375
2722.158203125	0.00833333333333333	0	30	2.66875	1	0.6240234375
2725.1494140625	0.00833333333333333	0	30	2.66875	2	0.3603515625
2727.7998046875	0.00833333333333333	0	-30	-5.66041666666667	2	0.646484375
2730.81640625	0.00833333333333333	0	30	2.66875	2	0.341796875
2733.70703125	0.00833333333333333	0	30	2.66875	2	0.291015625
2736.2158203125	0.00833333333333333	0	30	2.66875	1	0.4794921875
2739.19921875	0.00833333333333333	0	30	2.66875	1	0.6474609375
2742.291015625	0.00833333333333333	0	30	2.66875	2	0.2431640625
2744.8408203125	0.00833333333333333	0	-30	-5.66041666666667	2	0.2861328125
2747.4990234375	0.00833333333333333	0	30	2.66875	2	0.1962890625
2750.2080078125	0.00833333333333333	0	-30	-5.66041666666667	2	0.3671875
2753.0146484375	0.00833333333333333	0	-30	-5.66041666666667	1	0.009765625
2755.3564453125	0.00833333333333333	0	-30	-5.66041666666667	1	0.21875
2757.615234375	0.00833333333333333	0	-30	-5.66041666666667	1	0.34375
2760.25	0.00833333333333333	0	-30	-5.66041666666667	1	0.27734375
2762.849609375	0.00833333333333333	0	-30	-5.66041666666667	2	0.2138671875
2765.265625	0.00833333333333333	0	30	2.66875	1	0.3017578125
2767.724609375	0.00833333333333333	0	30	2.66875	1	0.5146484375
2770.482421875	0.00833333333333333	0	-30	-5.66041666666667	1	0.26953125
2773.0322265625	0.00833333333333333	0	30	2.66875	1	0.009765625
2775.0908203125	0.00833333333333333	0	-30	-5.66041666666667	2	0.2529296875
2777.95703125	0.00833333333333333	0	30	2.66875	2	0.3466796875
2780.69921875	0.00833333333333333	0	30	2.66875	1	0.1484375
2782.9990234375	0.00833333333333333	0	-30	-5.66041666666667	1	0.28125
2785.6494140625	0.00833333333333333	0	-30	-5.66041666666667	1	0.3828125
2788.53125	0.00833333333333333	0	30	2.66875	2	0.3330078125
2791.0234375	0.00833333333333333	0	-30	-5.66041666666667	1	0.384765625
2793.673828125	0.00833333333333333	0	30	2.66875	1	0.55078125
2796.46484375	0.00833333333333333	0	-30	-5.66041666666667	1	0.4873046875
2799.20703125	0.00833333333333333	0	30	2.66875	1	1.681640625
2803.2890625	0.00833333333333333	0	30	2.66875	1	0.6474609375
2806.20703125	0.00833333333333333	0	-30	-5.66041666666667	1	0.345703125
2809.0390625	0.00833333333333333	0	30	2.66875	1	0.1220703125
2811.6982421875	0.00833333333333333	0	-30	-5.53541666666667	2	0.4150390625
2814.615234375	0.00833333333333333	0	-30	-5.53541666666667	1	0.498046875
2817.498046875	0.00833333333333333	0	30	2.66875	1	0.2470703125
2820.0068359375	0.00833333333333333	0	-30	-5.53541666666667	1	0.02734375
2822.548828125	0.00833333333333333	0	-30	-5.53541666666667	1	0.4208984375
2825.2734375	0.00833333333333333	0	30	2.79375	1	1.5283203125
2829.15625	0.00833333333333333	0	-30	-5.53541666666667	1	0.685546875
2831.90625	0.00833333333333333	0	30	2.79375	1	0.85546875
2835.056640625	0.00833333333333333	0	30	2.79375	1	0.12109375
2837.2900390625	0.00833333333333333	0	-30	-5.53541666666667	1	0.3837890625
2840.1650390625	0.00833333333333333	0	30	2.79375	1	0.2607421875
2842.9150390625	0.00833333333333333	0	30	2.79375	1	0.615234375
2845.931640625	0.00833333333333333	0	-30	-5.41041666666667	1	0.5908203125
2848.6728515625	0.00833333333333333	0	-30	-5.41041666666667	1	1.5537109375
2852.5810546875	0.00833333333333333	0	30	2.91875	1	0.29296875
2855.1484375	0.00833333333333333	0	30	2.91875	1	0.5341796875
2857.9970703125	0.00833333333333333	0	-30	-5.41041666666667	1	0.3896484375
2860.505859375	0.00833333333333333	0	-30	-5.41041666666667	1	2.1689453125
2865.1396484375	0.00833333333333333	0	30	2.91875	1	0.85546875
2868.5224609375	0.00833333333333333	0	-30	-5.41041666666667	1	4.1201171875
2875.1064453125	0.00833333333333333	0	30	2.91875	2	0.48828125
2878.1640625	0.00833333333333333	0	30	2.91875	1	0.3994140625
2880.689453125	0.00833333333333333	0	-30	-5.28541666666667	1	0.4013671875
2883.4970703125	0.00833333333333333	0	-30	-5.28541666666667	1	0.306640625
2885.9140625	0.00833333333333333	0	30	2.91875	2	2.4658203125
2890.61328125	0.00833333333333333	0	30	2.91875	1	0.4306640625
2893.1806640625	0.00833333333333333	0	30	2.91875	2	0.4951171875
2895.796875	0.00833333333333333	0	-30	-5.28541666666667	2	0.40625
2898.5888671875	0.00833333333333333	0	-30	-5.28541666666667	1	0.23046875
2900.947265625	0.00833333333333333	0	30	2.91875	2	0.2880859375
2903.2880859375	0.00833333333333333	0	-30	-5.28541666666667	2	0.33203125
2906.0302734375	0.00833333333333333	0	-30	-5.28541666666667	1	0.26953125
2908.60546875	0.00833333333333333	0	30	2.91875	2	0.009765625
2910.7802734375	0.00833333333333333	0	30	2.91875	1	3.3203125
2916.205078125	0.00833333333333333	0	30	2.91875	2	0.6708984375
2919.072265625	0.00833333333333333	0	30	2.91875	2	0.396484375
2921.822265625	0.00833333333333333	0	30	2.91875	2	0.7265625
2925.1044921875	0.00833333333333333	0	30	2.91875	2	1.99609375
2929.4130859375	0.00833333333333333	0	-30	-5.28541666666667	1	0.7275390625
2950.6962890625	0.00833333333333333	0	30	2.91875	2	1.0048828125
2954.212890625	0.00833333333333333	0	30	2.79375	1	1.7763671875
2958.2119140625	0.00833333333333333	0	30	2.79375	1	0.7294921875
2961.3134765625	0.00833333333333333	0	30	2.79375	1	0.8759765625
2964.3212890625	0.00833333333333333	0	-30	-5.28541666666667	1	0.5087890625
2967.287109375	0.00833333333333333	0	30	2.79375	1	0.7666015625
2970.1630859375	0.00833333333333333	0	-30	-5.28541666666667	1	0.7470703125
2973.154296875	0.00833333333333333	0	-30	-5.28541666666667	1	0.35546875
2976.021484375	0.00833333333333333	0	30	2.79375	1	0.79296875
2979.212890625	0.00833333333333333	0	-30	-5.16041666666667	1	0.625
2981.9287109375	0.00833333333333333	0	30	2.91875	2	0.40625
2984.4462890625	0.00833333333333333	0	30	2.91875	1	0.2802734375
2986.779296875	0.00833333333333333	0	-30	-5.16041666666667	1	0.6591796875
2989.9208984375	0.00833333333333333	0	30	2.91875	1	0.349609375
2992.4375	0.00833333333333333	0	-30	-5.16041666666667	2	0.2490234375
2994.74609375	0.00833333333333333	0	-30	-5.16041666666667	2	0.0849609375
2997.029296875	0.00833333333333333	0	-30	-5.16041666666667	1	0.2177734375
2999.4375	0.00833333333333333	0	-30	-5.16041666666667	2	2.7451171875
3004.49609375	0.00833333333333333	0	-30	-5.16041666666667	1	0.3671875
3007.037109375	0.00833333333333333	0	30	2.91875	2	0.5302734375
3009.62890625	0.00833333333333333	0	30	2.91875	1	0.6103515625
3012.5458984375	0.00833333333333333	0	-30	-5.16041666666667	1	0.3818359375
3015.13671875	0.00833333333333333	0	30	2.91875	2	0.009765625
3017.6953125	0.00833333333333333	0	-30	-5.16041666666667	1	0.544921875
3020.2783203125	0.00833333333333333	0	30	2.91875	1	1.9853515625
3024.6123046875	0.00833333333333333	0	30	2.91875	1	0.69140625
3027.6865234375	0.00833333333333333	0	30	2.91875	2	0.2412109375
3030.0869140625	0.00833333333333333	0	30	2.91875	1	0.361328125
3032.51171875	0.00833333333333333	0	30	2.91875	2	0.255859375
3035.4033203125	0.00833333333333333	0	-30	-5.16041666666667	2	0.2763671875
3037.8701171875	0.00833333333333333	0	30	2.91875	2	0.3544921875
3040.50390625	0.00833333333333333	0	30	2.91875	1	0.2568359375
3043.0205078125	0.00833333333333333	0	30	2.91875	2	0.267578125
3045.912109375	0.00833333333333333	0	30	2.91875	2	0.4326171875
3048.853515625	0.00833333333333333	0	30	2.91875	1	0.2509765625
3051.3203125	0.00833333333333333	0	-30	-5.16041666666667	1	0.3203125
3053.9853515625	0.00833333333333333	0	-30	-5.16041666666667	2	0.294921875
3056.478515625	0.00833333333333333	0	30	2.91875	1	0.73046875
3059.3203125	0.00833333333333333	0	30	2.91875	1	0.5126953125
3062.2783203125	0.00833333333333333	0	30	2.91875	2	0.130859375
3064.861328125	0.00833333333333333	0	30	2.91875	2	0.33984375
3067.802734375	0.00833333333333333	0	-30	-5.16041666666667	2	0.126953125
3070.361328125	0.00833333333333333	0	-30	-5.16041666666667	1	0.2802734375
3073.103515625	0.00833333333333333	0	-30	-5.16041666666667	1	0.3056640625
3075.8779296875	0.00833333333333333	0	30	2.91875	1	0.009765625
3078.0947265625	0.00833333333333333	0	-30	-5.16041666666667	2	0.298828125
3080.736328125	0.00833333333333333	0	-30	-5.16041666666667	1	0.2890625
3083.6103515625	0.00833333333333333	0	30	2.91875	1	0.703125
3086.7275390625	0.00833333333333333	0	30	2.91875	1	0.4345703125
3089.677734375	0.00833333333333333	0	30	2.91875	1	0.5400390625
3092.611328125	0.00833333333333333	0	-30	-5.16041666666667	2	0.2548828125
3095.1357421875	0.00833333333333333	0	-30	-5.16041666666667	2	0.38671875
3097.9609375	0.00833333333333333	0	-30	-5.16041666666667	2	0.4169921875
3100.828125	0.00833333333333333	0	-30	-5.16041666666667	1	0.349609375
3103.3359375	0.00833333333333333	0	30	2.91875	1	0.2265625
3106.0771484375	0.00833333333333333	0	-30	-5.16041666666667	2	0.28515625
3108.5771484375	0.00833333333333333	0	30	3.04375	1	0.6416015625
3111.6279296875	0.00833333333333333	0	-30	-5.16041666666667	2	0.4228515625
3114.5859375	0.00833333333333333	0	-30	-5.16041666666667	1	1.048828125
3118.01953125	0.00833333333333333	0	-30	-5.16041666666667	1	1.615234375
3121.751953125	0.00833333333333333	0	30	3.04375	1	0.3232421875
3124.52734375	0.00833333333333333	0	-30	-5.16041666666667	1	0.4755859375
3127.16015625	0.00833333333333333	0	30	3.04375	2	0.5625
3130.21875	0.00833333333333333	0	30	3.04375	2	0.552734375
3133.0439453125	0.00833333333333333	0	30	3.04375	2	0.423828125
3135.7021484375	0.00833333333333333	0	-30	-5.16041666666667	1	4.61328125
3142.84375	0.00833333333333333	0	30	3.04375	2	0.408203125
3145.77734375	0.00833333333333333	0	30	3.04375	2	0.482421875
3148.4013671875	0.00833333333333333	0	-30	-5.16041666666667	2	0.3544921875
3151.060546875	0.00833333333333333	0	30	2.91875	2	0.3271484375
3153.5185546875	0.00833333333333333	0	30	2.91875	1	0.373046875
3156.3603515625	0.00833333333333333	0	30	2.91875	2	0.2197265625
3158.943359375	0.00833333333333333	0	-30	-5.16041666666667	1	0.365234375
3161.54296875	0.00833333333333333	0	30	2.91875	1	2.6689453125
3166.4521484375	0.00833333333333333	0	30	2.91875	1	0.0087890625
3168.7353515625	0.00833333333333333	0	-30	-5.16041666666667	1	0.4287109375
3171.6015625	0.00833333333333333	0	30	2.91875	1	0.298828125
3173.9931640625	0.00833333333333333	0	-30	-5.16041666666667	1	0.35546875
3176.7685546875	0.00833333333333333	0	-30	-5.16041666666667	1	2.732421875
3181.642578125	0.00833333333333333	0	30	2.91875	1	0.5146484375
3225.2333984375	0.00833333333333333	0	-30	-5.16041666666667	2	0.6533203125
3228.3759765625	0.00833333333333333	0	-30	-5.16041666666667	1	0.3984375
3231.05078125	0.00833333333333333	0	30	2.91875	2	0.3955078125
3233.7255859375	0.00833333333333333	0	30	2.91875	2	0.3369140625
3236.2509765625	0.00833333333333333	0	30	2.91875	2	0.5556640625
3239.275390625	0.00833333333333333	0	30	2.91875	1	0.9150390625
3242.19921875	0.00833333333333333	0	-30	-5.16041666666667	1	0.3359375
3244.8671875	0.00833333333333333	0	-30	-5.16041666666667	1	0.009765625
3247.1259765625	0.00833333333333333	0	30	2.91875	1	0.3046875
3249.9248046875	0.00833333333333333	0	-30	-5.16041666666667	2	0.330078125
3252.767578125	0.00833333333333333	0	30	2.91875	2	0.3515625
3255.6923828125	0.00833333333333333	0	30	2.91875	2	0.2744140625
3258.3916015625	0.00833333333333333	0	30	2.91875	2	0.16796875
3261.158203125	0.00833333333333333	0	-30	-5.16041666666667	1	1.8818359375
3265.583984375	0.00833333333333333	0	-30	-5.16041666666667	1	0.3916015625
3268.400390625	0.00833333333333333	0	-30	-5.16041666666667	2	0.2548828125
3271.0244140625	0.00833333333333333	0	-30	-5.16041666666667	2	0.3193359375
3273.849609375	0.00833333333333333	0	30	2.91875	2	0.318359375
3276.57421875	0.00833333333333333	0	30	2.91875	2	0.3779296875
3279.5166015625	0.00833333333333333	0	-30	-5.16041666666667	1	0.3076171875
3282.140625	0.00833333333333333	0	-30	-5.16041666666667	1	0.2509765625
3284.525390625	0.00833333333333333	0	-30	-5.16041666666667	1	0.4345703125
3287.033203125	0.00833333333333333	0	30	2.79375	1	0.294921875
3289.6748046875	0.00833333333333333	0	-30	-5.16041666666667	1	0.1337890625
3291.8916015625	0.00833333333333333	0	30	2.79375	2	0.3408203125
3294.408203125	0.00833333333333333	0	-30	-5.16041666666667	1	0.3203125
3296.916015625	0.00833333333333333	0	-30	-5.03541666666667	1	0.556640625
3299.8076171875	0.00833333333333333	0	-30	-5.03541666666667	2	0.552734375
3302.6162109375	0.00833333333333333	0	-30	-5.03541666666667	1	0.3369140625
3305.0751953125	0.00833333333333333	0	-30	-5.03541666666667	1	0.25390625
3307.56640625	0.00833333333333333	0	30	2.79375	1	0.36328125
3310.0908203125	0.00833333333333333	0	30	2.79375	1	0.3662109375
3312.599609375	0.00833333333333333	0	-30	-5.03541666666667	1	0.2578125
3315.2080078125	0.00833333333333333	0	30	2.79375	1	0.353515625
3317.96484375	0.00833333333333333	0	-30	-5.03541666666667	1	0.31640625
3320.82421875	0.00833333333333333	0	-30	-5.03541666666667	1	0.521484375
3323.623046875	0.00833333333333333	0	30	2.79375	1	0.314453125
3326.107421875	0.00833333333333333	0	30	2.79375	1	0.26171875
3328.4326171875	0.00833333333333333	0	30	2.91875	1	0.2890625
3330.857421875	0.00833333333333333	0	-30	-4.91041666666667	1	0.2880859375
3333.423828125	0.00833333333333333	0	30	2.91875	1	0.42578125
3336.0078125	0.00833333333333333	0	-30	-4.91041666666667	1	0.3701171875
3338.58203125	0.00833333333333333	0	30	2.91875	1	1.2919921875
3342.064453125	0.00833333333333333	0	-30	-4.91041666666667	2	0.42578125
3344.6240234375	0.00833333333333333	0	30	2.91875	2	0.337890625
3347.232421875	0.00833333333333333	0	-30	-4.91041666666667	2	0.4580078125
3349.94921875	0.00833333333333333	0	30	2.91875	2	0.26953125
3352.6572265625	0.00833333333333333	0	-30	-4.91041666666667	2	0.201171875
3355.1484375	0.00833333333333333	0	30	2.91875	2	0.2216796875
3357.615234375	0.00833333333333333	0	30	2.91875	1	0.3232421875
3360.1572265625	0.00833333333333333	0	-30	-4.91041666666667	2	0.365234375
3362.95703125	0.00833333333333333	0	-30	-4.91041666666667	1	0.7099609375
3366.0234375	0.00833333333333333	0	30	2.91875	1	1.1630859375
3369.6318359375	0.00833333333333333	0	30	2.91875	1	0.4033203125
3372.33203125	0.00833333333333333	0	-30	-4.91041666666667	1	0.3193359375
3374.865234375	0.00833333333333333	0	-30	-4.91041666666667	1	0.42578125
3377.765625	0.00833333333333333	0	-30	-4.91041666666667	1	0.28515625
3380.306640625	0.00833333333333333	0	30	2.91875	2	0.5771484375
3383.15625	0.00833333333333333	0	30	2.91875	2	0.3271484375
3385.6318359375	0.00833333333333333	0	-30	-4.91041666666667	2	0.35546875
3388.513671875	0.00833333333333333	0	-30	-4.91041666666667	1	0.2255859375
3390.9150390625	0.00833333333333333	0	30	2.91875	1	0.6005859375
3393.8896484375	0.00833333333333333	0	-30	-4.91041666666667	1	0.009765625
3396.2314453125	0.00833333333333333	0	-30	-4.91041666666667	1	0.4521484375
3398.931640625	0.00833333333333333	0	-30	-4.91041666666667	1	0.47265625
3401.998046875	0.00833333333333333	0	30	2.91875	2	1.7021484375
3406.1806640625	0.00833333333333333	0	30	2.91875	1	0.263671875
3408.6484375	0.00833333333333333	0	-30	-4.91041666666667	2	2.083984375
3413.1318359375	0.00833333333333333	0	30	2.91875	2	0.384765625
3415.84765625	0.00833333333333333	0	30	2.91875	1	0.388671875
3418.6640625	0.00833333333333333	0	30	2.91875	2	5.6845703125
3426.689453125	0.00833333333333333	0	30	2.91875	2	0.35546875
3429.34765625	0.00833333333333333	0	30	2.91875	1	0.208984375
3431.7724609375	0.00833333333333333	0	30	2.91875	1	0.3046875
3434.5048828125	0.00833333333333333	0	-30	-4.91041666666667	2	2.5
3439.10546875	0.00833333333333333	0	-30	-4.91041666666667	2	0.171875
3441.6640625	0.00833333333333333	0	-30	-4.91041666666667	1	0.009765625
3443.8642578125	0.00833333333333333	0	-30	-4.91041666666667	2	0.140625
3446.123046875	0.00833333333333333	0	-30	-4.91041666666667	2	0.1865234375
3448.7138671875	0.00833333333333333	0	30	2.91875	1	0.259765625
3497.7138671875	0.00833333333333333	0	-30	-4.91041666666667	1	0.5732421875
3500.7470703125	0.00833333333333333	0	-30	-4.91041666666667	2	0.2919921875
3503.205078125	0.00833333333333333	0	30	2.91875	1	0.2978515625
3505.7802734375	0.00833333333333333	0	30	2.91875	1	0.298828125
3508.572265625	0.00833333333333333	0	30	3.04375	1	0.546875
3511.23828125	0.00833333333333333	0	30	3.04375	1	0.3447265625
3514.080078125	0.00833333333333333	0	-30	-4.91041666666667	1	3.0078125
3519.4873046875	0.00833333333333333	0	30	3.04375	1	0.400390625
3522.087890625	0.00833333333333333	0	-30	-4.91041666666667	1	0.408203125
3524.6630859375	0.00833333333333333	0	30	3.04375	1	0.376953125
3527.330078125	0.00833333333333333	0	-30	-4.91041666666667	1	0.0087890625
3529.8212890625	0.00833333333333333	0	-30	-4.91041666666667	2	0.009765625
3531.9873046875	0.00833333333333333	0	30	3.04375	1	0.564453125
3534.6708984375	0.00833333333333333	0	-30	-4.91041666666667	1	0.28125
3537.1962890625	0.00833333333333333	0	30	3.16875	1	0.259765625
3539.7958984375	0.00833333333333333	0	30	3.16875	1	0.2041015625
3542.4716796875	0.00833333333333333	0	-30	-4.91041666666667	1	0.1923828125
3544.87109375	0.00833333333333333	0	30	3.16875	1	0.4814453125
3547.6796875	0.00833333333333333	0	-30	-4.91041666666667	1	0.45703125
3550.4375	0.00833333333333333	0	-30	-4.91041666666667	2	0.3232421875
3553.2958984375	0.00833333333333333	0	30	3.16875	1	0.5126953125
3556.220703125	0.00833333333333333	0	30	3.16875	1	1.31640625
3560.1123046875	0.00833333333333333	0	30	3.29375	1	3.8564453125
3566.1044921875	0.00833333333333333	0	30	3.29375	2	0.5283203125
3568.837890625	0.00833333333333333	0	30	3.29375	1	0.4189453125
3571.4208984375	0.00833333333333333	0	30	3.29375	1	0.4921875
3574.1787109375	0.00833333333333333	0	-30	-4.91041666666667	1	0.7509765625
3577.044921875	0.00833333333333333	0	30	3.29375	1	1.8046875
3581.0869140625	0.00833333333333333	0	30	3.29375	1	1.4345703125
3584.7041015625	0.00833333333333333	0	-30	-4.91041666666667	1	3.2822265625
3590.1787109375	0.00833333333333333	0	-30	-4.91041666666667	1	0.287109375
3592.9287109375	0.00833333333333333	0	-30	-4.91041666666667	1	0.5849609375
3595.6953125	0.00833333333333333	0	30	3.29375	1	0.138671875
3597.9951171875	0.00833333333333333	0	-30	-4.91041666666667	1	0.009765625
3599.978515625	0.00833333333333333	0	-30	-4.78541666666667	2	0.34375
3602.4775390625	0.00833333333333333	0	-30	-4.78541666666667	1	0.396484375
3605.2705078125	0.00833333333333333	0	30	3.41875	1	0.0087890625
3607.3271484375	0.00833333333333333	0	30	3.41875	1	0.36328125
3610.27734375	0.00833333333333333	0	-30	-4.78541666666667	2	0.3251953125
3612.9873046875	0.00833333333333333	0	-30	-4.78541666666667	2	0.0087890625
3614.9365234375	0.00833333333333333	0	30	3.41875	2	0.138671875
3617.578125	0.00833333333333333	0	30	3.41875	2	0.2646484375
3620.1865234375	0.00833333333333333	0	30	3.41875	2	0.3125
3622.736328125	0.00833333333333333	0	-30	-4.78541666666667	2	0.2265625
3625.0615234375	0.00833333333333333	0	-30	-4.78541666666667	2	0.3095703125
3627.669921875	0.00833333333333333	0	30	3.41875	2	2.7490234375
3632.6279296875	0.00833333333333333	0	-30	-4.78541666666667	2	0.279296875
3635.26953125	0.00833333333333333	0	30	3.41875	1	0.3173828125
3637.7529296875	0.00833333333333333	0	30	3.41875	2	0.3544921875
3640.453125	0.00833333333333333	0	-30	-4.91041666666667	2	0.2470703125
3643.1943359375	0.00833333333333333	0	-30	-4.91041666666667	2	0.2734375
3646.01953125	0.00833333333333333	0	-30	-4.91041666666667	1	0.48828125
3648.8359375	0.00833333333333333	0	30	3.41875	1	0.3203125
3651.619140625	0.00833333333333333	0	30	3.41875	1	0.2490234375
3654.2109375	0.00833333333333333	0	30	3.41875	1	0.265625
3656.6611328125	0.00833333333333333	0	30	3.41875	2	0.5185546875
3659.369140625	0.00833333333333333	0	30	3.41875	2	0.2666015625
3661.7109375	0.00833333333333333	0	30	3.41875	2	0.0859375
3664.001953125	0.00833333333333333	0	30	3.41875	1	0.291015625
3666.51953125	0.00833333333333333	0	30	3.41875	1	0.0537109375
3668.8271484375	0.00833333333333333	0	30	3.41875	1	0.009765625
3670.818359375	0.00833333333333333	0	-30	-4.91041666666667	1	0.009765625
3673.0263671875	0.00833333333333333	0	30	3.41875	1	1.6904296875
3677.001953125	0.00833333333333333	0	-30	-4.91041666666667	2	0.3388671875
3679.818359375	0.00833333333333333	0	-30	-4.91041666666667	1	0.5146484375
3682.6767578125	0.00833333333333333	0	-30	-4.91041666666667	2	0.0478515625
3685.109375	0.00833333333333333	0	30	3.41875	1	0.439453125
3687.71875	0.00833333333333333	0	30	3.54375	1	0.4541015625
3690.7177734375	0.00833333333333333	0	30	3.54375	1	0.279296875
3693.1513671875	0.00833333333333333	0	30	3.54375	1	0.4462890625
3695.9853515625	0.00833333333333333	0	30	3.54375	2	4.9638671875
3703.2939453125	0.00833333333333333	0	-30	-4.91041666666667	1	0.83203125
3706.5595703125	0.00833333333333333	0	-30	-4.91041666666667	1	0.662109375
3709.6015625	0.00833333333333333	0	30	3.54375	2	0.564453125
3712.4677734375	0.00833333333333333	0	-30	-4.91041666666667	1	1.1787109375
3716.185546875	0.00833333333333333	0	30	3.54375	2	0.3486328125
3719.017578125	0.00833333333333333	0	30	3.54375	1	0.64453125
3722.193359375	0.00833333333333333	0	-30	-4.91041666666667	1	0.98046875
3725.576171875	0.00833333333333333	0	-30	-4.91041666666667	1	0.24609375
3727.9599609375	0.00833333333333333	0	30	3.54375	1	0.3662109375
3772.2666015625	0.00833333333333333	0	30	3.54375	1	0.677734375
3775.3095703125	0.00833333333333333	0	30	3.54375	2	0.314453125
3778.158203125	0.00833333333333333	0	30	3.54375	2	0.3623046875
3781.0673828125	0.00833333333333333	0	30	3.54375	2	0.404296875
3783.5498046875	0.00833333333333333	0	30	3.54375	1	0.7939453125
3786.6171875	0.00833333333333333	0	30	3.54375	1	0.3271484375
3789.150390625	0.00833333333333333	0	30	3.54375	1	0.322265625
3791.908203125	0.00833333333333333	0	-30	-4.78541666666667	1	3.220703125
3797.466796875	0.00833333333333333	0	-30	-4.78541666666667	1	0.4375
3800.0087890625	0.00833333333333333	0	-30	-4.78541666666667	1	0.51171875
3803.0087890625	0.00833333333333333	0	30	3.54375	2	0.3525390625
3805.8662109375	0.00833333333333333	0	30	3.54375	2	0.3828125
3808.7587890625	0.00833333333333333	0	-30	-4.78541666666667	2	0.3544921875
3811.3828125	0.00833333333333333	0	-30	-4.78541666666667	2	0.4345703125
3814.291015625	0.00833333333333333	0	-30	-4.78541666666667	2	0.2783203125
3816.658203125	0.00833333333333333	0	30	3.54375	1	0.3515625
3819.4833984375	0.00833333333333333	0	-30	-4.78541666666667	2	0.23046875
3822.1748046875	0.00833333333333333	0	30	3.54375	2	0.3623046875
3825.099609375	0.00833333333333333	0	30	3.54375	2	0.26171875
3827.7080078125	0.00833333333333333	0	30	3.54375	2	0.2939453125
3830.357421875	0.00833333333333333	0	-30	-4.78541666666667	2	0.30859375
3833.1328125	0.00833333333333333	0	30	3.54375	2	0.9248046875
3836.1240234375	0.00833333333333333	0	-30	-4.91041666666667	2	0.3818359375
3838.591796875	0.00833333333333333	0	-30	-4.91041666666667	2	0.482421875
3841.3828125	0.00833333333333333	0	30	3.54375	2	0.2998046875
3843.95703125	0.00833333333333333	0	-30	-4.91041666666667	2	0.357421875
3846.75	0.00833333333333333	0	30	3.41875	2	0.3486328125
3849.5078125	0.00833333333333333	0	30	3.41875	2	0.5185546875
3852.2578125	0.00833333333333333	0	30	3.41875	2	0.384765625
3855.166015625	0.00833333333333333	0	30	3.41875	2	0.396484375
3857.673828125	0.00833333333333333	0	-30	-4.91041666666667	1	0.544921875
3860.232421875	0.00833333333333333	0	30	3.41875	2	0.330078125
3862.8408203125	0.00833333333333333	0	30	3.29375	2	0.3134765625
3865.2236328125	0.00833333333333333	0	30	3.29375	1	0.3466796875
3868.0322265625	0.00833333333333333	0	-30	-4.91041666666667	2	0.05859375
3870.1748046875	0.00833333333333333	0	-30	-4.91041666666667	2	0.2119140625
3872.6416015625	0.00833333333333333	0	-30	-4.91041666666667	2	0.0810546875
3875.140625	0.00833333333333333	0	30	3.29375	1	0.1982421875
3877.4990234375	0.00833333333333333	0	-30	-4.91041666666667	2	0.255859375
3879.8984375	0.00833333333333333	0	-30	-4.91041666666667	2	0.3369140625
3882.3916015625	0.00833333333333333	0	30	3.29375	1	0.32421875
3884.923828125	0.00833333333333333	0	-30	-5.03541666666667	2	0.3193359375
3887.3232421875	0.00833333333333333	0	30	3.29375	2	0.0966796875
3889.4736328125	0.00833333333333333	0	-30	-5.03541666666667	2	0.234375
3892.0654296875	0.00833333333333333	0	-30	-5.03541666666667	2	0.2265625
3894.7236328125	0.00833333333333333	0	30	3.29375	2	0.009765625
3896.9072265625	0.00833333333333333	0	30	3.29375	2	0.2802734375
3899.5068359375	0.00833333333333333	0	30	3.29375	2	0.0888671875
3901.9072265625	0.00833333333333333	0	30	3.29375	2	2.0166015625
3906.33984375	0.00833333333333333	0	-30	-5.03541666666667	1	0.3447265625
3909.0732421875	0.00833333333333333	0	-30	-5.03541666666667	1	0.36328125
3911.8994140625	0.00833333333333333	0	-30	-5.03541666666667	1	0.2490234375
3914.615234375	0.00833333333333333	0	30	3.16875	1	0.26171875
3917.1064453125	0.00833333333333333	0	30	3.16875	1	0.2099609375
3919.748046875	0.00833333333333333	0	-30	-5.03541666666667	1	0.0244140625
3922.2490234375	0.00833333333333333	0	30	3.16875	1	0.2275390625
3925.0068359375	0.00833333333333333	0	-30	-5.03541666666667	1	0.486328125
3927.7490234375	0.00833333333333333	0	-30	-4.91041666666667	1	0.248046875
3930.46484375	0.00833333333333333	0	30	3.16875	1	0.404296875
3933.0224609375	0.00833333333333333	0	30	3.16875	1	0.23046875
3935.3232421875	0.00833333333333333	0	-30	-4.91041666666667	1	0.322265625
3937.6728515625	0.00833333333333333	0	30	3.29375	1	0.3564453125
3940.5556640625	0.00833333333333333	0	30	3.29375	2	0.4814453125
3943.3564453125	0.00833333333333333	0	30	3.29375	2	0.2568359375
3946.130859375	0.00833333333333333	0	-30	-4.91041666666667	2	0.2744140625
3948.6064453125	0.00833333333333333	0	30	3.29375	1	0.19921875
3951.173828125	0.00833333333333333	0	30	3.29375	2	0.271484375
3953.7060546875	0.00833333333333333	0	30	3.29375	1	0.2275390625
3956.3974609375	0.00833333333333333	0	30	3.29375	2	0.2568359375
3959.1728515625	0.00833333333333333	0	-30	-4.91041666666667	1	0.009765625
3961.263671875	0.00833333333333333	0	30	3.29375	1	0.4228515625
3963.98046875	0.00833333333333333	0	30	3.29375	2	0.08984375
3966.189453125	0.00833333333333333	0	-30	-4.91041666666667	2	0.2568359375
3968.8974609375	0.00833333333333333	0	30	3.29375	1	2.2607421875
3973.3310546875	0.00833333333333333	0	-30	-4.91041666666667	2	0.36328125
3976.046875	0.00833333333333333	0	30	3.29375	1	0.271484375
3978.47265625	0.00833333333333333	0	-30	-4.91041666666667	2	0.3095703125
3981.2060546875	0.00833333333333333	0	30	3.29375	2	0.0888671875
3983.60546875	0.00833333333333333	0	30	3.29375	2	0.2490234375
3986.1982421875	0.00833333333333333	0	-30	-4.91041666666667	2	0.408203125
