onset	duration	titr	surround	centre	response	rt
49.837890625	0.00833333333333333	1	30	-15	1	12.8408203125
64.8701171875	0.00833333333333333	1	NaN	-15	1	0.896484375
68.095703125	0.00833333333333333	1	30	-14	1	0.734375
71.037109375	0.00833333333333333	1	30	15	2	0.7451171875
74.0703125	0.00833333333333333	1	-30	-15	1	1.048828125
77.595703125	0.00833333333333333	1	30	14	2	0.7548828125
80.5283203125	0.00833333333333333	1	30	-13	1	0.7109375
83.3291015625	0.00833333333333333	1	NaN	-14	1	0.7021484375
86.1787109375	0.00833333333333333	1	-30	15	2	0.66796875
89.3369140625	0.00833333333333333	1	NaN	-13	1	0.669921875
92.0615234375	0.00833333333333333	1	NaN	15	1	3.8017578125
98.00390625	0.00833333333333333	1	NaN	-12	1	0.580078125
101.0107421875	0.00833333333333333	1	NaN	-11	1	0.63671875
103.7119140625	0.00833333333333333	1	NaN	-10	1	0.6474609375
106.65234375	0.00833333333333333	1	NaN	-9	1	0.5478515625
109.236328125	0.00833333333333333	1	-30	14	2	0.458984375
112.0947265625	0.00833333333333333	1	NaN	16	2	0.521484375
114.876953125	0.00833333333333333	1	NaN	15	2	0.4990234375
117.669921875	0.00833333333333333	1	30	-12	1	0.490234375
120.228515625	0.00833333333333333	1	NaN	14	2	0.5078125
122.9951171875	0.00833333333333333	1	-30	-14	1	2.2294921875
127.5517578125	0.00833333333333333	1	-30	13	2	0.5205078125
130.5947265625	0.00833333333333333	1	30	-11	1	0.57421875
133.5947265625	0.00833333333333333	1	30	13	2	0.5341796875
136.369140625	0.00833333333333333	1	-30	12	2	0.5517578125
139.4111328125	0.00833333333333333	1	30	-10	1	0.4931640625
142.078125	0.00833333333333333	1	NaN	13	2	0.546875
144.8447265625	0.00833333333333333	1	NaN	-8	1	0.4921875
147.828125	0.00833333333333333	1	NaN	-7	1	0.708984375
150.802734375	0.00833333333333333	1	-30	-13	1	0.6865234375
153.84375	0.00833333333333333	1	NaN	-6	1	0.677734375
156.8349609375	0.00833333333333333	1	NaN	12	2	0.478515625
159.54296875	0.00833333333333333	1	30	12	2	0.5146484375
162.1943359375	0.00833333333333333	1	NaN	11	2	0.5107421875
164.869140625	0.00833333333333333	1	30	11	2	0.6845703125
168.0693359375	0.00833333333333333	1	NaN	10	2	0.4765625
170.943359375	0.00833333333333333	1	NaN	-5	1	0.6982421875
173.7353515625	0.00833333333333333	1	-30	11	2	0.5869140625
176.71875	0.00833333333333333	1	NaN	9	2	0.634765625
179.7109375	0.00833333333333333	1	30	-9	1	0.5634765625
182.818359375	0.00833333333333333	1	30	10	2	0.51953125
185.6435546875	0.00833333333333333	1	30	-8	1	0.5107421875
188.16015625	0.00833333333333333	1	-30	-12	1	0.5146484375
190.8271484375	0.00833333333333333	1	-30	10	2	0.431640625
193.4853515625	0.00833333333333333	1	-30	9	2	0.541015625
196.2685546875	0.00833333333333333	1	30	-7	1	0.57421875
199.0185546875	0.00833333333333333	1	NaN	8	2	0.3681640625
201.818359375	0.00833333333333333	1	-30	8	2	0.5283203125
204.59375	0.00833333333333333	1	-30	-11	1	0.5771484375
207.451171875	0.00833333333333333	1	30	-6	1	0.4716796875
210.068359375	0.00833333333333333	1	30	-5	1	0.462890625
212.6845703125	0.00833333333333333	1	NaN	-4	1	0.56640625
215.626953125	0.00833333333333333	1	30	-4	1	0.5126953125
218.3603515625	0.00833333333333333	1	NaN	-3	1	0.5146484375
221.2685546875	0.00833333333333333	1	NaN	7	2	0.4228515625
224.001953125	0.00833333333333333	1	-30	-10	1	0.6494140625
226.91015625	0.00833333333333333	1	-30	7	2	0.4931640625
229.9267578125	0.00833333333333333	1	NaN	6	2	0.4609375
232.466796875	0.00833333333333333	1	NaN	-2	1	0.712890625
235.6845703125	0.00833333333333333	1	NaN	-1	1	0.4873046875
238.5849609375	0.00833333333333333	1	NaN	5	2	0.4990234375
241.2265625	0.00833333333333333	1	-30	-9	1	0.4814453125
244.0341796875	0.00833333333333333	1	NaN	4	2	0.41015625
246.6513671875	0.00833333333333333	1	NaN	0	1	0.8486328125
249.6005859375	0.00833333333333333	1	30	9	1	1.2119140625
253.05078125	0.00833333333333333	1	NaN	1	1	0.9853515625
256.392578125	0.00833333333333333	1	-30	6	2	0.4677734375
258.984375	0.00833333333333333	1	NaN	3	2	0.5087890625
261.951171875	0.00833333333333333	1	NaN	2	1	0.8212890625
265.1513671875	0.00833333333333333	1	30	10	2	0.517578125
267.9169921875	0.00833333333333333	1	NaN	2	2	0.6796875
270.9169921875	0.00833333333333333	1	30	-3	1	0.736328125
273.826171875	0.00833333333333333	1	30	9	2	0.71484375
276.6591796875	0.00833333333333333	1	30	8	2	0.689453125
279.833984375	0.00833333333333333	1	-30	5	2	0.5234375
282.484375	0.00833333333333333	1	-30	-8	1	1.0009765625
285.859375	0.00833333333333333	1	-30	4	2	0.7294921875
289.1171875	0.00833333333333333	1	NaN	1	1	0.6005859375
292.0009765625	0.00833333333333333	1	-30	-7	2	1.0126953125
295.283203125	0.00833333333333333	1	NaN	2	2	0.5869140625
297.958984375	0.00833333333333333	1	NaN	3	2	0.623046875
300.833984375	0.00833333333333333	1	-30	3	2	0.515625
303.650390625	0.00833333333333333	1	-30	-8	1	0.4921875
306.2666015625	0.00833333333333333	1	30	7	1	0.7470703125
309.333984375	0.00833333333333333	1	NaN	1	2	0.6240234375
312.3505859375	0.00833333333333333	1	-30	-7	2	0.7919921875
315.2080078125	0.00833333333333333	1	30	8	1	0.837890625
318.43359375	0.00833333333333333	1	30	-2	1	0.63671875
321.43359375	0.00833333333333333	1	-30	-8	1	0.7490234375
324.408203125	0.00833333333333333	1	NaN	2	1	0.6298828125
327.44921875	0.00833333333333333	1	-30	2	2	0.4775390625
330.466796875	0.00833333333333333	1	-30	1	2	0.4521484375
333.31640625	0.00833333333333333	1	-30	0	2	0.482421875
336.30859375	0.00833333333333333	1	30	9	2	0.482421875
339.0498046875	0.00833333333333333	1	NaN	0	1	0.685546875
342.0244140625	0.00833333333333333	1	30	8	2	0.7109375
345.2578125	0.00833333333333333	1	-30	-1	2	0.525390625
347.966796875	0.00833333333333333	1	30	7	2	0.576171875
377.9072265625	0.00833333333333333	1	-30	-2	2	0.7255859375
381.15625	0.00833333333333333	1	30	6	2	0.556640625
383.9326171875	0.00833333333333333	1	NaN	3	2	0.3955078125
386.4326171875	0.00833333333333333	1	-30	-3	2	0.720703125
389.2236328125	0.00833333333333333	1	-30	-4	1	1.12890625
392.623046875	0.00833333333333333	1	30	5	1	0.826171875
395.5322265625	0.00833333333333333	1	-30	-3	2	1.6123046875
399.5234375	0.00833333333333333	1	-30	-4	2	0.59765625
402.4150390625	0.00833333333333333	1	30	6	2	0.6904296875
405.5986328125	0.00833333333333333	1	30	5	1	0.810546875
408.8818359375	0.00833333333333333	1	NaN	1	1	0.791015625
411.7822265625	0.00833333333333333	1	-30	-7	1	0.794921875
414.681640625	0.00833333333333333	1	NaN	2	1	0.751953125
417.7060546875	0.00833333333333333	1	-30	-5	2	1.279296875
421.548828125	0.00833333333333333	1	-30	-6	2	0.94140625
424.7314453125	0.00833333333333333	1	NaN	2	2	1.0068359375
428.248046875	0.00833333333333333	1	30	-1	1	0.650390625
430.9404296875	0.00833333333333333	1	-30	-6	1	0.677734375
434.1064453125	0.00833333333333333	1	30	6	2	0.943359375
437.6064453125	0.00833333333333333	1	30	5	2	0.66015625
440.3896484375	0.00833333333333333	1	-30	-7	1	0.732421875
443.2978515625	0.00833333333333333	1	30	0	1	0.583984375
446.1884765625	0.00833333333333333	1	30	4	1	1.1337890625
449.3896484375	0.00833333333333333	1	NaN	3	2	0.61328125
452.4560546875	0.00833333333333333	1	-30	-6	1	0.7626953125
455.421875	0.00833333333333333	1	NaN	1	1	1.0126953125
458.814453125	0.00833333333333333	1	-30	-5	1	0.6845703125
461.8310546875	0.00833333333333333	1	NaN	2	2	0.732421875
464.7060546875	0.00833333333333333	1	30	5	2	0.6806640625
467.888671875	0.00833333333333333	1	-30	-4	2	0.634765625
470.7646484375	0.00833333333333333	1	-30	-5	2	0.6630859375
473.6396484375	0.00833333333333333	1	-30	-6	2	0.748046875
476.7392578125	0.00833333333333333	1	30	1	1	0.6884765625
479.505859375	0.00833333333333333	1	NaN	2	2	0.6259765625
482.47265625	0.00833333333333333	1	30	2	1	0.611328125
485.4560546875	0.00833333333333333	1	30	3	1	0.5712890625
488.123046875	0.00833333333333333	1	NaN	1	1	0.65625
490.98046875	0.00833333333333333	1	30	4	1	0.583984375
494.0634765625	0.00833333333333333	1	NaN	1	1	0.908203125
497.2978515625	0.00833333333333333	1	-30	-7	1	1.40234375
500.837890625	0.00833333333333333	1	NaN	2	1	1.0302734375
504.2880859375	0.00833333333333333	1	-30	-5	2	0.404296875
506.86328125	0.00833333333333333	1	NaN	3	2	0.541015625
509.5224609375	0.00833333333333333	1	NaN	2	2	0.5546875
512.4716796875	0.00833333333333333	1	30	5	1	1.9970703125
516.697265625	0.00833333333333333	1	-30	-6	1	0.9794921875
519.8720703125	0.00833333333333333	1	-30	-6	1	0.7333984375
522.638671875	0.00833333333333333	1	-30	-5	2	0.814453125
525.7216796875	0.00833333333333333	1	-30	-5	2	0.611328125
528.671875	0.00833333333333333	1	30	6	1	0.701171875
531.447265625	0.00833333333333333	1	30	7	2	0.6142578125
534.2802734375	0.00833333333333333	1	NaN	1	1	1.1572265625
537.86328125	0.00833333333333333	1	-30	-6	2	0.90234375
541.205078125	0.00833333333333333	1	-30	-6	2	1.1923828125
544.9638671875	0.00833333333333333	1	NaN	2	1	0.697265625
547.8955078125	0.00833333333333333	1	30	6	1	0.734375
550.6298828125	0.00833333333333333	1	-30	-7	1	0.7275390625
553.48828125	0.00833333333333333	1	-30	-7	1	0.7900390625
556.6044921875	0.00833333333333333	1	-30	-6	1	1.017578125
559.771484375	0.00833333333333333	1	-30	-6	1	0.619140625
562.5302734375	0.00833333333333333	1	-30	-5	1	0.828125
565.6708984375	0.00833333333333333	1	-30	-4	2	0.6875
568.5458984375	0.00833333333333333	1	-30	-5	1	0.6279296875
571.4716796875	0.00833333333333333	1	NaN	2	1	1.1513671875
574.8876953125	0.00833333333333333	1	30	7	2	0.7353515625
577.794921875	0.00833333333333333	1	-30	-4	2	1.2998046875
581.3125	0.00833333333333333	1	-30	-5	1	0.669921875
584.146484375	0.00833333333333333	1	-30	-5	1	0.7080078125
586.8544921875	0.00833333333333333	1	NaN	3	1	0.984375
590.37890625	0.00833333333333333	1	NaN	4	2	0.6845703125
593.25390625	0.00833333333333333	1	NaN	3	2	0.4970703125
596.1865234375	0.00833333333333333	1	30	6	2	0.9892578125
599.2958984375	0.00833333333333333	1	NaN	3	2	0.5751953125
602.00390625	0.00833333333333333	1	NaN	2	2	0.6513671875
604.9208984375	0.00833333333333333	1	NaN	1	1	0.56640625
607.64453125	0.00833333333333333	1	-30	-4	2	1.123046875
611.111328125	0.00833333333333333	1	NaN	2	2	0.6806640625
614.1953125	0.00833333333333333	1	30	5	2	0.7646484375
617.4208984375	0.00833333333333333	1	NaN	1	2	0.5947265625
620.5205078125	0.00833333333333333	1	NaN	0	1	0.4638671875
623.37890625	0.00833333333333333	1	30	4	1	0.693359375
626.5537109375	0.00833333333333333	1	30	5	2	1.1904296875
630.3369140625	0.00833333333333333	1	30	4	1	0.9677734375
633.7119140625	0.00833333333333333	1	30	5	1	0.7763671875
636.76171875	0.00833333333333333	1	30	6	2	0.646484375
639.9453125	0.00833333333333333	1	30	5	1	0.87109375
643.2705078125	0.00833333333333333	1	30	6	2	0.9306640625
646.7705078125	0.00833333333333333	1	30	5	1	0.646484375
649.595703125	0.00833333333333333	1	-30	-4.83333333333333	1	0.677734375
652.51171875	0.00833333333333333	1	30	5.66666666666667	2	0.9453125
655.6943359375	0.00833333333333333	1	30	5.54166666666667	1	0.890625
658.611328125	0.00833333333333333	1	-30	-5.83333333333333	1	0.9501953125
661.669921875	0.00833333333333333	1	NaN	2.41666666666667	1	1.435546875
665.6201171875	0.00833333333333333	1	NaN	1.41666666666667	1	0.8212890625
668.5947265625	0.00833333333333333	1	30	5.66666666666667	1	0.87890625
671.76953125	0.00833333333333333	1	30	5.79166666666667	1	0.583984375
674.427734375	0.00833333333333333	1	-30	-5.70833333333333	1	0.7421875
677.6533203125	0.00833333333333333	1	NaN	1.54166666666667	1	0.62890625
774.1181640625	0.00833333333333333	1	NaN	2.54166666666667	1	0.6552734375
777.0341796875	0.00833333333333333	1	30	4.66666666666667	1	0.458984375
779.8935546875	0.00833333333333333	1	-30	-4.70833333333333	1	0.599609375
782.5517578125	0.00833333333333333	1	NaN	1.66666666666667	2	0.78125
785.501953125	0.00833333333333333	1	-30	-4.58333333333333	2	0.52734375
788.28515625	0.00833333333333333	1	30	5.91666666666667	1	1
791.5263671875	0.00833333333333333	1	30	4.79166666666667	1	0.630859375
794.5673828125	0.00833333333333333	1	NaN	1.54166666666667	1	0.55859375
797.234375	0.00833333333333333	1	30	6.04166666666667	1	0.5634765625
800.1171875	0.00833333333333333	1	NaN	1.66666666666667	2	0.6083984375
802.8349609375	0.00833333333333333	1	NaN	1.54166666666667	2	0.5390625
805.759765625	0.00833333333333333	1	30	6.16666666666667	1	0.6943359375
808.9423828125	0.00833333333333333	1	NaN	2.66666666666667	2	0.6640625
811.7763671875	0.00833333333333333	1	30	6.29166666666667	2	0.7021484375
814.9677734375	0.00833333333333333	1	30	6.16666666666667	1	1.150390625
818.576171875	0.00833333333333333	1	30	6.29166666666667	1	0.8701171875
821.859375	0.00833333333333333	1	-30	-4.70833333333333	1	0.6591796875
824.9912109375	0.00833333333333333	1	-30	-5.58333333333333	1	1.447265625
828.4921875	0.00833333333333333	1	NaN	1.41666666666667	1	0.890625
831.708984375	0.00833333333333333	1	30	6.41666666666667	2	0.7939453125
834.55859375	0.00833333333333333	1	30	6.29166666666667	2	0.5439453125
837.3505859375	0.00833333333333333	1	30	4.91666666666667	1	0.81640625
840.3173828125	0.00833333333333333	1	-30	-4.58333333333333	1	0.513671875
843.2841796875	0.00833333333333333	1	30	6.16666666666667	2	0.787109375
846.083984375	0.00833333333333333	1	30	6.04166666666667	2	0.5869140625
848.94140625	0.00833333333333333	1	NaN	1.54166666666667	2	0.7783203125
851.80859375	0.00833333333333333	1	30	5.91666666666667	2	0.630859375
854.9169921875	0.00833333333333333	1	-30	-5.45833333333333	2	1.306640625
858.375	0.00833333333333333	1	30	5.79166666666667	2	0.65625
861.408203125	0.00833333333333333	1	30	5.04166666666667	1	0.6962890625
864.5673828125	0.00833333333333333	1	-30	-4.45833333333333	1	0.6640625
867.658203125	0.00833333333333333	1	-30	-5.58333333333333	1	0.5341796875
870.4248046875	0.00833333333333333	1	-30	-5.45833333333333	1	0.599609375
873.3505859375	0.00833333333333333	1	30	5.66666666666667	1	0.5859375
876.2001953125	0.00833333333333333	1	NaN	2.54166666666667	1	0.4716796875
878.8505859375	0.00833333333333333	1	-30	-5.33333333333333	1	0.58203125
881.4921875	0.00833333333333333	1	30	5.79166666666667	2	0.6044921875
884.5419921875	0.00833333333333333	1	NaN	1.41666666666667	2	0.6025390625
887.4912109375	0.00833333333333333	1	30	5.16666666666667	1	0.708984375
890.216796875	0.00833333333333333	1	-30	-4.33333333333333	1	0.48828125
892.80859375	0.00833333333333333	1	-30	-5.20833333333333	2	0.576171875
895.93359375	0.00833333333333333	1	NaN	1.29166666666667	2	1.0517578125
899.041015625	0.00833333333333333	1	30	5.66666666666667	2	0.5517578125
901.8994140625	0.00833333333333333	1	30	5.29166666666667	1	0.8134765625
904.916015625	0.00833333333333333	1	-30	-5.33333333333333	2	0.837890625
908.291015625	0.00833333333333333	1	NaN	2.66666666666667	2	0.646484375
911.0244140625	0.00833333333333333	1	30	5.41666666666667	2	0.6484375
914.166015625	0.00833333333333333	1	NaN	1.16666666666667	1	0.84375
917.0322265625	0.00833333333333333	1	-30	-4.20833333333333	2	0.78515625
919.9326171875	0.00833333333333333	1	-30	-4.33333333333333	2	1.220703125
923.390625	0.00833333333333333	1	-30	-5.45833333333333	1	0.970703125
926.82421875	0.00833333333333333	1	30	5.29166666666667	1	1.330078125
930.3740234375	0.00833333333333333	1	-30	-5.33333333333333	2	0.5556640625
933.0986328125	0.00833333333333333	1	30	5.54166666666667	1	1.19140625
936.5732421875	0.00833333333333333	1	NaN	1.29166666666667	2	0.4365234375
939.07421875	0.00833333333333333	1	30	5.66666666666667	2	0.5595703125
941.94921875	0.00833333333333333	1	30	5.41666666666667	2	0.61328125
944.9072265625	0.00833333333333333	1	NaN	1.16666666666667	1	0.83984375
947.916015625	0.00833333333333333	1	30	5.54166666666667	1	1.0546875
951.3828125	0.00833333333333333	1	-30	-4.45833333333333	2	1.1318359375
954.69921875	0.00833333333333333	1	30	5.29166666666667	1	0.5595703125
957.681640625	0.00833333333333333	1	30	5.41666666666667	1	0.7373046875
960.7158203125	0.00833333333333333	1	NaN	2.54166666666667	2	0.55078125
963.4892578125	0.00833333333333333	1	NaN	2.41666666666667	2	0.681640625
966.3154296875	0.00833333333333333	1	30	5.66666666666667	2	0.5361328125
969.107421875	0.00833333333333333	1	NaN	2.29166666666667	1	0.7041015625
972.1318359375	0.00833333333333333	1	-30	-4.58333333333333	2	1.0078125
975.4990234375	0.00833333333333333	1	30	5.54166666666667	1	0.4482421875
978.4404296875	0.00833333333333333	1	-30	-5.45833333333333	1	1.130859375
981.6650390625	0.00833333333333333	1	-30	-4.70833333333333	1	0.73046875
984.83203125	0.00833333333333333	1	30	5.66666666666667	2	0.515625
987.47265625	0.00833333333333333	1	30	5.54166666666667	2	0.771484375
990.4736328125	0.00833333333333333	1	30	5.54166666666667	2	0.8505859375
993.748046875	0.00833333333333333	1	-30	-4.58333333333333	1	1.65625
997.95703125	0.00833333333333333	1	30	5.41666666666667	1	0.759765625
1001.2138671875	0.00833333333333333	1	NaN	2.41666666666667	1	0.9189453125
1004.28125	0.00833333333333333	1	-30	-4.45833333333333	1	0.939453125
1007.4814453125	0.00833333333333333	1	30	5.41666666666667	1	0.6513671875
1010.240234375	0.00833333333333333	1	-30	-4.33333333333333	1	1.2998046875
1013.6474609375	0.00833333333333333	1	-30	-4.20833333333333	2	0.5087890625
1016.4228515625	0.00833333333333333	1	30	5.54166666666667	2	0.6533203125
1019.421875	0.00833333333333333	1	30	5.54166666666667	2	0.5751953125
1022.4228515625	0.00833333333333333	1	NaN	2.54166666666667	2	1.0302734375
1025.6064453125	0.00833333333333333	1	-30	-5.33333333333333	2	0.8310546875
1028.830078125	0.00833333333333333	1	30	5.41666666666667	2	0.5595703125
1031.623046875	0.00833333333333333	1	NaN	2.41666666666667	1	0.7021484375
1034.58984375	0.00833333333333333	1	NaN	2.54166666666667	2	0.5283203125
1037.5888671875	0.00833333333333333	1	-30	-4.33333333333333	2	0.568359375
1040.4716796875	0.00833333333333333	1	-30	-4.45833333333333	2	0.57421875
1043.498046875	0.00833333333333333	1	30	5.41666666666667	2	1.3154296875
1046.947265625	0.00833333333333333	1	-30	-4.58333333333333	2	1.0986328125
1050.35546875	0.00833333333333333	1	30	5.29166666666667	1	0.6259765625
1052.9892578125	0.00833333333333333	1	30	5.29166666666667	2	1.232421875
1056.6220703125	0.00833333333333333	1	NaN	2.41666666666667	1	0.583984375
1059.3642578125	0.00833333333333333	1	-30	-4.70833333333333	1	0.673828125
1062.2060546875	0.00833333333333333	1	-30	-5.45833333333333	1	0.896484375
1065.314453125	0.00833333333333333	1	-30	-4.58333333333333	1	0.7958984375
1068.2392578125	0.00833333333333333	1	30	5.16666666666667	2	1.046875
1071.5634765625	0.00833333333333333	1	NaN	2.54166666666667	1	0.875
1124.36328125	0.00833333333333333	1	NaN	1.29166666666667	1	1.220703125
1128.021484375	0.00833333333333333	1	-30	-4.45833333333333	2	1.4111328125
1131.6796875	0.00833333333333333	1	-30	-5.33333333333333	1	1.224609375
1135.23828125	0.00833333333333333	1	-30	-4.58333333333333	1	0.8984375
1138.48828125	0.00833333333333333	1	NaN	1.41666666666667	2	0.7763671875
1141.8291015625	0.00833333333333333	1	-30	-5.20833333333333	1	1.083984375
1144.904296875	0.00833333333333333	1	-30	-4.45833333333333	2	0.7529296875
1147.7548828125	0.00833333333333333	1	-30	-5.08333333333333	1	0.7666015625
1150.7119140625	0.00833333333333333	1	-30	-4.95833333333333	2	0.705078125
1153.7041015625	0.00833333333333333	1	-30	-5.08333333333333	2	0.681640625
1156.8876953125	0.00833333333333333	1	NaN	1.29166666666667	2	1.2255859375
1160.220703125	0.00833333333333333	1	-30	-5.20833333333333	2	0.97265625
1163.5458984375	0.00833333333333333	1	-30	-5.33333333333333	1	0.607421875
1166.4794921875	0.00833333333333333	1	NaN	2.66666666666667	2	0.650390625
1169.6455078125	0.00833333333333333	1	-30	-5.20833333333333	2	0.580078125
1172.37890625	0.00833333333333333	1	-30	-4.58333333333333	2	0.5830078125
1175.404296875	0.00833333333333333	1	30	5.04166666666667	2	0.78125
1178.6708984375	0.00833333333333333	1	NaN	2.54166666666667	2	0.5869140625
1181.6875	0.00833333333333333	1	-30	-5.33333333333333	1	0.5625
1184.2373046875	0.00833333333333333	1	30	4.91666666666667	2	2.62109375
1189.1201171875	0.00833333333333333	1	NaN	2.41666666666667	1	1.154296875
1192.38671875	0.00833333333333333	1	-30	-5.20833333333333	2	1.0478515625
1195.9208984375	0.00833333333333333	1	NaN	1.16666666666667	2	0.8095703125
1198.9033203125	0.00833333333333333	1	NaN	1.04166666666667	2	1.2109375
1202.5283203125	0.00833333333333333	1	30	4.79166666666667	1	0.5859375
1205.4541015625	0.00833333333333333	1	NaN	2.54166666666667	2	1.052734375
1208.9873046875	0.00833333333333333	1	-30	-4.70833333333333	2	0.591796875
1211.787109375	0.00833333333333333	1	-30	-5.33333333333333	1	0.5595703125
1214.64453125	0.00833333333333333	1	-30	-4.83333333333333	1	0.7265625
1217.853515625	0.00833333333333333	1	30	4.91666666666667	2	0.8212890625
1220.76171875	0.00833333333333333	1	NaN	0.916666666666667	1	0.3701171875
1223.39453125	0.00833333333333333	1	NaN	1.04166666666667	2	0.5693359375
1226.3701171875	0.00833333333333333	1	NaN	2.41666666666667	2	0.5849609375
1229.3203125	0.00833333333333333	1	NaN	2.29166666666667	2	0.53125
1232.26953125	0.00833333333333333	1	-30	-4.70833333333333	2	1.1904296875
1235.810546875	0.00833333333333333	1	-30	-5.20833333333333	2	0.5859375
1238.6357421875	0.00833333333333333	1	-30	-4.83333333333333	1	0.912109375
1241.6611328125	0.00833333333333333	1	-30	-4.70833333333333	1	1.3427734375
1245.435546875	0.00833333333333333	1	NaN	0.916666666666667	1	0.96875
1248.8271484375	0.00833333333333333	1	30	4.79166666666667	1	0.720703125
1251.5947265625	0.00833333333333333	1	NaN	1.04166666666667	2	0.5771484375
1254.736328125	0.00833333333333333	1	-30	-4.58333333333333	1	0.97265625
1257.869140625	0.00833333333333333	1	NaN	2.16666666666667	2	0.48828125
1260.52734375	0.00833333333333333	1	-30	-4.45833333333333	2	0.701171875
1263.751953125	0.00833333333333333	1	NaN	2.04166666666667	2	0.98828125
1267.244140625	0.00833333333333333	1	NaN	1.91666666666667	2	0.6962890625
1270.1025390625	0.00833333333333333	1	-30	-4.58333333333333	2	0.494140625
1273.001953125	0.00833333333333333	1	30	4.91666666666667	1	1.05859375
1276.6025390625	0.00833333333333333	1	30	5.04166666666667	2	2.37890625
1281.2109375	0.00833333333333333	1	NaN	0.916666666666667	2	1.0419921875
1284.6103515625	0.00833333333333333	1	-30	-4.70833333333333	2	0.634765625
1287.3271484375	0.00833333333333333	1	30	4.91666666666667	2	0.90234375
1290.3193359375	0.00833333333333333	1	NaN	0.791666666666667	1	1.1103515625
1293.7109375	0.00833333333333333	1	NaN	0.916666666666667	1	0.5986328125
1296.53515625	0.00833333333333333	1	30	4.79166666666667	1	0.6787109375
1299.52734375	0.00833333333333333	1	-30	-4.83333333333333	1	0.8779296875
1302.8193359375	0.00833333333333333	1	-30	-4.70833333333333	2	0.5791015625
1305.65234375	0.00833333333333333	1	NaN	1.04166666666667	2	0.5771484375
1308.751953125	0.00833333333333333	1	30	4.91666666666667	1	0.7666015625
1312.017578125	0.00833333333333333	1	30	5.04166666666667	1	0.7880859375
1315.244140625	0.00833333333333333	1	NaN	1.79166666666667	2	0.5537109375
1318.27734375	0.00833333333333333	1	NaN	1.66666666666667	2	0.79296875
1321.5185546875	0.00833333333333333	1	NaN	1.54166666666667	1	0.599609375
1324.28515625	0.00833333333333333	1	NaN	1.66666666666667	1	0.953125
1327.3349609375	0.00833333333333333	1	NaN	1.79166666666667	1	0.6396484375
1330.1767578125	0.00833333333333333	1	30	5.16666666666667	1	0.990234375
1333.66796875	0.00833333333333333	1	NaN	1.91666666666667	1	1.2509765625
1337.142578125	0.00833333333333333	1	NaN	2.04166666666667	1	0.720703125
1340.28515625	0.00833333333333333	1	30	5.29166666666667	1	0.7216796875
1343.41015625	0.00833333333333333	1	30	5.41666666666667	1	0.9169921875
1346.53515625	0.00833333333333333	1	30	5.54166666666667	2	1.015625
1349.7763671875	0.00833333333333333	1	NaN	2.16666666666667	2	0.8232421875
1353.0009765625	0.00833333333333333	1	NaN	2.04166666666667	2	0.6142578125
1356.1767578125	0.00833333333333333	1	30	5.41666666666667	1	1.0546875
1359.6845703125	0.00833333333333333	1	30	5.54166666666667	1	0.6748046875
1362.7265625	0.00833333333333333	1	NaN	1.91666666666667	2	0.513671875
1365.66015625	0.00833333333333333	1	NaN	1.79166666666667	2	0.4921875
1368.4599609375	0.00833333333333333	1	NaN	1.66666666666667	2	0.5322265625
1371.3349609375	0.00833333333333333	1	30	5.66666666666667	2	0.537109375
1374.16796875	0.00833333333333333	1	NaN	1.54166666666667	2	1.1279296875
1377.5927734375	0.00833333333333333	1	NaN	1.41666666666667	2	0.6630859375
1380.7001953125	0.00833333333333333	1	NaN	1.29166666666667	1	0.5322265625
1383.30078125	0.00833333333333333	1	NaN	1.41666666666667	1	0.6591796875
1386.0673828125	0.00833333333333333	1	NaN	1.54166666666667	2	0.78125
1389.068359375	0.00833333333333333	0	30	5.37916666666667	1	0.6123046875
1391.9501953125	0.00833333333333333	0	30	5.37916666666667	1	0.5869140625
1395.0673828125	0.00833333333333333	0	-30	-4.97083333333333	1	0.5810546875
1397.951171875	0.00833333333333333	0	-30	-4.97083333333333	2	1.1455078125
1401.326171875	0.00833333333333333	0	-30	-4.97083333333333	2	0.619140625
1404.4423828125	0.00833333333333333	0	-30	-4.97083333333333	2	0.7431640625
1407.484375	0.00833333333333333	0	-30	-4.97083333333333	1	0.9013671875
1410.6669921875	0.00833333333333333	0	30	5.37916666666667	1	1.294921875
1414.0087890625	0.00833333333333333	0	30	5.37916666666667	2	0.697265625
1416.8583984375	0.00833333333333333	0	30	5.37916666666667	1	0.5673828125
1419.5419921875	0.00833333333333333	0	30	5.37916666666667	2	0.763671875
1422.8076171875	0.00833333333333333	0	-30	-4.97083333333333	1	0.7783203125
1425.67578125	0.00833333333333333	0	-30	-4.97083333333333	2	0.5341796875
1428.783203125	0.00833333333333333	0	30	5.37916666666667	1	1.2666015625
1432.083984375	0.00833333333333333	0	30	5.37916666666667	1	0.853515625
1435.2001953125	0.00833333333333333	0	-30	-4.97083333333333	2	0.5068359375
1438.0419921875	0.00833333333333333	0	-30	-4.97083333333333	1	0.7685546875
1440.81640625	0.00833333333333333	0	-30	-4.97083333333333	1	0.681640625
1443.6748046875	0.00833333333333333	0	30	5.37916666666667	1	0.6640625
1446.783203125	0.00833333333333333	0	-30	-4.97083333333333	1	0.9951171875
1450.32421875	0.00833333333333333	0	-30	-4.97083333333333	1	0.56640625
1453.099609375	0.00833333333333333	0	30	5.37916666666667	1	0.5751953125
1455.81640625	0.00833333333333333	0	-30	-4.97083333333333	1	0.73046875
1458.9501953125	0.00833333333333333	0	30	5.37916666666667	2	0.8125
1462.2666015625	0.00833333333333333	0	30	5.37916666666667	1	0.728515625
1465.158203125	0.00833333333333333	0	-30	-4.84583333333333	1	0.525390625
1468.0419921875	0.00833333333333333	0	30	5.37916666666667	1	0.4169921875
1470.7158203125	0.00833333333333333	0	30	5.37916666666667	1	0.5595703125
1473.5166015625	0.00833333333333333	0	30	5.37916666666667	2	0.55859375
1476.2578125	0.00833333333333333	0	30	5.37916666666667	1	0.6259765625
1479.25	0.00833333333333333	0	-30	-4.84583333333333	1	0.7373046875
1482.375	0.00833333333333333	0	30	5.37916666666667	1	0.9169921875
1485.541015625	0.00833333333333333	0	-30	-4.84583333333333	1	0.91015625
1488.6416015625	0.00833333333333333	0	-30	-4.84583333333333	1	0.5546875
1491.673828125	0.00833333333333333	0	30	5.37916666666667	1	0.666015625
1494.7998046875	0.00833333333333333	0	-30	-4.84583333333333	1	0.572265625
1497.7314453125	0.00833333333333333	0	-30	-4.72083333333333	1	0.5849609375
1500.416015625	0.00833333333333333	0	30	5.37916666666667	1	0.5244140625
1503.0244140625	0.00833333333333333	0	-30	-4.72083333333333	1	0.515625
1505.6064453125	0.00833333333333333	0	-30	-4.72083333333333	1	0.6142578125
1508.70703125	0.00833333333333333	0	-30	-4.72083333333333	1	0.5380859375
1511.423828125	0.00833333333333333	0	30	5.37916666666667	2	0.65234375
1514.2158203125	0.00833333333333333	0	30	5.37916666666667	2	0.796875
1517.21484375	0.00833333333333333	0	30	5.37916666666667	2	0.501953125
1519.9072265625	0.00833333333333333	0	-30	-4.72083333333333	1	0.697265625
1522.6328125	0.00833333333333333	0	30	5.37916666666667	2	0.9404296875
1526.0078125	0.00833333333333333	0	30	5.37916666666667	1	0.7890625
1529.0068359375	0.00833333333333333	0	30	5.37916666666667	1	0.470703125
1531.5986328125	0.00833333333333333	0	30	5.37916666666667	1	0.4228515625
1534.115234375	0.00833333333333333	0	30	5.37916666666667	2	0.6103515625
1536.9990234375	0.00833333333333333	0	30	5.37916666666667	2	0.55078125
1539.8564453125	0.00833333333333333	0	-30	-4.59583333333333	2	0.7646484375
1542.7158203125	0.00833333333333333	0	30	5.37916666666667	1	0.8662109375
1546.015625	0.00833333333333333	0	30	5.37916666666667	2	0.7978515625
1549.240234375	0.00833333333333333	0	-30	-4.59583333333333	1	0.869140625
1552.4736328125	0.00833333333333333	0	-30	-4.59583333333333	2	0.572265625
1555.423828125	0.00833333333333333	0	-30	-4.59583333333333	1	0.5498046875
1558.2392578125	0.00833333333333333	0	30	5.37916666666667	1	0.8154296875
1561.21484375	0.00833333333333333	0	-30	-4.59583333333333	1	0.927734375
1564.4150390625	0.00833333333333333	0	30	5.37916666666667	1	0.390625
1567.0146484375	0.00833333333333333	0	30	5.37916666666667	1	0.5751953125
1569.7314453125	0.00833333333333333	0	30	5.37916666666667	1	0.611328125
1572.4228515625	0.00833333333333333	0	30	5.37916666666667	2	1.4873046875
1576.4150390625	0.00833333333333333	0	30	5.37916666666667	1	0.6552734375
1579.15625	0.00833333333333333	0	30	5.37916666666667	2	0.5625
1582.0810546875	0.00833333333333333	0	-30	-4.59583333333333	2	0.60546875
1585.09765625	0.00833333333333333	0	-30	-4.59583333333333	1	0.6376953125
1588.1064453125	0.00833333333333333	0	-30	-4.59583333333333	1	0.6044921875
1590.8232421875	0.00833333333333333	0	-30	-4.59583333333333	1	0.591796875
1593.580078125	0.00833333333333333	0	30	5.37916666666667	1	0.5390625
1596.5732421875	0.00833333333333333	0	-30	-4.59583333333333	1	0.6337890625
1599.6064453125	0.00833333333333333	0	30	5.37916666666667	1	0.46484375
1602.123046875	0.00833333333333333	0	-30	-4.59583333333333	2	2.15625
1606.5390625	0.00833333333333333	0	30	5.37916666666667	2	0.6201171875
1609.2890625	0.00833333333333333	0	30	5.37916666666667	2	0.4072265625
1611.8388671875	0.00833333333333333	0	-30	-4.59583333333333	2	0.4169921875
1614.564453125	0.00833333333333333	0	-30	-4.59583333333333	1	0.37109375
1617.388671875	0.00833333333333333	0	-30	-4.59583333333333	1	0.779296875
1620.2646484375	0.00833333333333333	0	30	5.37916666666667	2	0.6396484375
1623.0048828125	0.00833333333333333	0	-30	-4.59583333333333	2	0.771484375
1852.052734375	0.00833333333333333	0	-30	-4.59583333333333	2	1.3623046875
1855.810546875	0.00833333333333333	0	-30	-4.59583333333333	2	0.63671875
1858.810546875	0.00833333333333333	0	30	5.37916666666667	1	0.4775390625
1861.7353515625	0.00833333333333333	0	-30	-4.59583333333333	2	0.8798828125
1864.9853515625	0.00833333333333333	0	30	5.37916666666667	2	0.57421875
1867.8857421875	0.00833333333333333	0	30	5.37916666666667	2	0.5380859375
1870.5771484375	0.00833333333333333	0	-30	-4.59583333333333	1	0.623046875
1873.41015625	0.00833333333333333	0	-30	-4.59583333333333	1	0.6064453125
1876.1103515625	0.00833333333333333	0	30	5.37916666666667	2	0.5380859375
1878.8017578125	0.00833333333333333	0	30	5.37916666666667	1	0.5341796875
1881.568359375	0.00833333333333333	0	-30	-4.59583333333333	1	0.751953125
1884.46875	0.00833333333333333	0	-30	-4.59583333333333	1	0.931640625
1887.4345703125	0.00833333333333333	0	-30	-4.59583333333333	1	0.845703125
1890.5439453125	0.00833333333333333	0	30	5.37916666666667	2	0.537109375
1893.2685546875	0.00833333333333333	0	30	5.37916666666667	1	0.5166015625
1896.2353515625	0.00833333333333333	0	30	5.37916666666667	2	0.9814453125
1899.3603515625	0.00833333333333333	0	-30	-4.47083333333333	2	1.1044921875
1902.66015625	0.00833333333333333	0	-30	-4.47083333333333	2	0.6923828125
1905.634765625	0.00833333333333333	0	30	5.37916666666667	2	1.0146484375
1908.91015625	0.00833333333333333	0	30	5.37916666666667	2	0.771484375
1912.16796875	0.00833333333333333	0	-30	-4.47083333333333	2	0.6337890625
1915.0419921875	0.00833333333333333	0	-30	-4.47083333333333	2	0.6875
1917.9013671875	0.00833333333333333	0	30	5.37916666666667	2	0.740234375
1921.134765625	0.00833333333333333	0	-30	-4.47083333333333	2	0.5947265625
1924.0009765625	0.00833333333333333	0	30	5.37916666666667	2	0.5126953125
1926.8017578125	0.00833333333333333	0	-30	-4.59583333333333	2	0.5439453125
1929.6015625	0.00833333333333333	0	-30	-4.59583333333333	1	0.9208984375
1932.9599609375	0.00833333333333333	0	-30	-4.59583333333333	1	0.75390625
1935.8427734375	0.00833333333333333	0	-30	-4.59583333333333	1	0.6796875
1938.759765625	0.00833333333333333	0	-30	-4.59583333333333	1	0.962890625
1942.05078125	0.00833333333333333	0	30	5.25416666666667	2	1.279296875
1945.609375	0.00833333333333333	0	30	5.25416666666667	2	0.8173828125
1948.767578125	0.00833333333333333	0	30	5.25416666666667	1	0.611328125
1951.875	0.00833333333333333	0	-30	-4.59583333333333	1	0.615234375
1954.5673828125	0.00833333333333333	0	30	5.25416666666667	1	1.0830078125
1957.6845703125	0.00833333333333333	0	-30	-4.47083333333333	1	0.7744140625
1960.775390625	0.00833333333333333	0	30	5.25416666666667	2	0.6513671875
1963.67578125	0.00833333333333333	0	-30	-4.47083333333333	2	0.9267578125
1967.033203125	0.00833333333333333	0	30	5.25416666666667	2	0.74609375
1970.234375	0.00833333333333333	0	-30	-4.47083333333333	1	0.6484375
1973.3330078125	0.00833333333333333	0	30	5.25416666666667	1	0.57421875
1976.283203125	0.00833333333333333	0	30	5.25416666666667	1	0.5361328125
1979.1669921875	0.00833333333333333	0	30	5.25416666666667	2	0.5810546875
1981.94140625	0.00833333333333333	0	-30	-4.47083333333333	2	0.5341796875
1984.5751953125	0.00833333333333333	0	30	5.25416666666667	2	0.6044921875
1987.333984375	0.00833333333333333	0	30	5.25416666666667	2	0.7255859375
1990.6005859375	0.00833333333333333	0	30	5.25416666666667	2	1.275390625
1994.2421875	0.00833333333333333	0	30	5.25416666666667	2	0.6181640625
1997.091796875	0.00833333333333333	0	-30	-4.47083333333333	2	0.4638671875
1999.841796875	0.00833333333333333	0	30	5.12916666666667	1	0.666015625
2002.8916015625	0.00833333333333333	0	-30	-4.47083333333333	1	0.568359375
2005.6171875	0.00833333333333333	0	-30	-4.47083333333333	2	1.0751953125
2008.8837890625	0.00833333333333333	0	-30	-4.47083333333333	1	0.544921875
2011.474609375	0.00833333333333333	0	30	5.12916666666667	2	1.4736328125
2015.2666015625	0.00833333333333333	0	-30	-4.47083333333333	2	0.73046875
2018.0830078125	0.00833333333333333	0	-30	-4.47083333333333	2	0.5615234375
2020.724609375	0.00833333333333333	0	30	5.12916666666667	1	0.6005859375
2023.81640625	0.00833333333333333	0	-30	-4.47083333333333	1	1.30859375
2027.625	0.00833333333333333	0	30	5.12916666666667	2	0.67578125
2030.6162109375	0.00833333333333333	0	30	5.12916666666667	1	1.0205078125
2033.7412109375	0.00833333333333333	0	30	5.12916666666667	1	0.9677734375
2036.7998046875	0.00833333333333333	0	-30	-4.47083333333333	1	0.765625
2040.05859375	0.00833333333333333	0	-30	-4.47083333333333	1	0.6025390625
2043.1494140625	0.00833333333333333	0	30	5.12916666666667	2	0.728515625
2046.2412109375	0.00833333333333333	0	-30	-4.47083333333333	1	0.8681640625
2049.3076171875	0.00833333333333333	0	-30	-4.47083333333333	1	0.74609375
2052.0576171875	0.00833333333333333	0	30	5.12916666666667	2	0.6767578125
2054.890625	0.00833333333333333	0	-30	-4.34583333333333	1	1.36328125
2058.3330078125	0.00833333333333333	0	30	5.12916666666667	2	1.609375
2062.4072265625	0.00833333333333333	0	30	5.12916666666667	1	0.87890625
2065.6240234375	0.00833333333333333	0	-30	-4.34583333333333	2	0.9501953125
2069.173828125	0.00833333333333333	0	-30	-4.34583333333333	1	0.81640625
2072.2900390625	0.00833333333333333	0	-30	-4.34583333333333	2	0.587890625
2075.19921875	0.00833333333333333	0	30	5.12916666666667	1	0.5751953125
2078.2578125	0.00833333333333333	0	-30	-4.34583333333333	1	0.453125
2081.0576171875	0.00833333333333333	0	-30	-4.34583333333333	2	0.708984375
2084.22265625	0.00833333333333333	0	-30	-4.34583333333333	2	0.5927734375
2087.0576171875	0.00833333333333333	0	-30	-4.34583333333333	2	0.5810546875
2090.0322265625	0.00833333333333333	0	30	5.12916666666667	2	0.88671875
2093.0908203125	0.00833333333333333	0	-30	-4.34583333333333	1	0.7880859375
2134.85546875	0.00833333333333333	0	-30	-4.34583333333333	2	1.6650390625
2138.6904296875	0.00833333333333333	0	30	5.12916666666667	2	0.8857421875
2141.7978515625	0.00833333333333333	0	30	5.12916666666667	2	1.4033203125
2145.3232421875	0.00833333333333333	0	-30	-4.34583333333333	2	0.7734375
2148.2568359375	0.00833333333333333	0	30	5.12916666666667	1	0.84765625
2151.21484375	0.00833333333333333	0	30	5.12916666666667	2	0.8505859375
2154.263671875	0.00833333333333333	0	-30	-4.34583333333333	2	1.3935546875
2157.9228515625	0.00833333333333333	0	30	5.12916666666667	1	0.9580078125
2160.96484375	0.00833333333333333	0	-30	-4.34583333333333	2	1.2763671875
2164.5888671875	0.00833333333333333	0	30	5.12916666666667	2	0.716796875
2167.564453125	0.00833333333333333	0	30	5.12916666666667	2	0.8369140625
2170.8310546875	0.00833333333333333	0	-30	-4.34583333333333	2	0.70703125
2173.9814453125	0.00833333333333333	0	30	5.12916666666667	2	0.732421875
2177.171875	0.00833333333333333	0	-30	-4.47083333333333	1	0.8056640625
2180.4140625	0.00833333333333333	0	30	5.12916666666667	2	0.6357421875
2183.2216796875	0.00833333333333333	0	30	5.12916666666667	2	0.65234375
2186.189453125	0.00833333333333333	0	30	5.00416666666667	1	1.1806640625
2189.671875	0.00833333333333333	0	-30	-4.47083333333333	2	1.1142578125
2192.9638671875	0.00833333333333333	0	-30	-4.47083333333333	1	0.9345703125
2196.09765625	0.00833333333333333	0	-30	-4.47083333333333	1	0.865234375
2199.3388671875	0.00833333333333333	0	-30	-4.47083333333333	2	0.6552734375
2202.1640625	0.00833333333333333	0	-30	-4.47083333333333	2	0.5908203125
2204.8720703125	0.00833333333333333	0	30	5.00416666666667	2	0.71484375
2207.84765625	0.00833333333333333	0	30	5.00416666666667	2	1.03515625
2211.1474609375	0.00833333333333333	0	30	5.00416666666667	1	1.255859375
2214.6630859375	0.00833333333333333	0	-30	-4.47083333333333	2	0.8359375
2217.8720703125	0.00833333333333333	0	30	5.00416666666667	2	0.6669921875
2220.888671875	0.00833333333333333	0	-30	-4.47083333333333	1	1.0107421875
2224.080078125	0.00833333333333333	0	-30	-4.47083333333333	2	1.0673828125
2227.697265625	0.00833333333333333	0	30	5.00416666666667	2	0.7939453125
2230.9052734375	0.00833333333333333	0	-30	-4.47083333333333	2	0.921875
2234.10546875	0.00833333333333333	0	30	5.00416666666667	1	0.7705078125
2236.9970703125	0.00833333333333333	0	30	5.00416666666667	2	0.7275390625
2239.9384765625	0.00833333333333333	0	-30	-4.47083333333333	1	1.2734375
2243.5712890625	0.00833333333333333	0	30	5.00416666666667	1	2.4169921875
2248.1962890625	0.00833333333333333	0	-30	-4.47083333333333	2	0.599609375
2251.330078125	0.00833333333333333	0	-30	-4.47083333333333	2	0.5947265625
2254.1044921875	0.00833333333333333	0	30	5.00416666666667	2	0.64453125
2256.9716796875	0.00833333333333333	0	-30	-4.47083333333333	2	0.80859375
2260.1630859375	0.00833333333333333	0	30	5.00416666666667	2	0.59375
2262.87109375	0.00833333333333333	0	-30	-4.47083333333333	2	0.6689453125
2265.720703125	0.00833333333333333	0	30	5.00416666666667	2	0.67578125
2268.5126953125	0.00833333333333333	0	30	5.00416666666667	2	1.1396484375
2272.029296875	0.00833333333333333	0	30	5.00416666666667	2	0.4716796875
2274.595703125	0.00833333333333333	0	-30	-4.47083333333333	2	0.9130859375
2277.779296875	0.00833333333333333	0	30	4.87916666666667	2	0.78515625
2280.904296875	0.00833333333333333	0	-30	-4.59583333333333	1	0.9013671875
2284.12109375	0.00833333333333333	0	30	4.87916666666667	1	0.587890625
2287.154296875	0.00833333333333333	0	-30	-4.59583333333333	2	0.6357421875
2289.9462890625	0.00833333333333333	0	-30	-4.59583333333333	2	0.5234375
2292.978515625	0.00833333333333333	0	-30	-4.59583333333333	2	0.5224609375
2295.904296875	0.00833333333333333	0	30	4.87916666666667	1	0.685546875
2299.00390625	0.00833333333333333	0	-30	-4.59583333333333	1	0.802734375
2301.87109375	0.00833333333333333	0	30	4.87916666666667	2	0.6396484375
2304.8955078125	0.00833333333333333	0	30	4.87916666666667	1	0.6943359375
2308.0791015625	0.00833333333333333	0	-30	-4.59583333333333	2	0.8310546875
2311.177734375	0.00833333333333333	0	-30	-4.59583333333333	1	0.9326171875
2314.4697265625	0.00833333333333333	0	-30	-4.59583333333333	2	2.3125
2319.01171875	0.00833333333333333	0	-30	-4.59583333333333	2	0.626953125
2322.029296875	0.00833333333333333	0	30	4.87916666666667	2	1.10546875
2325.5625	0.00833333333333333	0	-30	-4.59583333333333	2	1.98828125
2329.63671875	0.00833333333333333	0	-30	-4.59583333333333	2	0.7373046875
2332.7197265625	0.00833333333333333	0	30	4.87916666666667	1	0.9912109375
2336.0361328125	0.00833333333333333	0	-30	-4.59583333333333	2	1.619140625
2340.103515625	0.00833333333333333	0	-30	-4.72083333333333	1	0.5830078125
2343.0869140625	0.00833333333333333	0	-30	-4.72083333333333	2	0.6640625
2345.88671875	0.00833333333333333	0	-30	-4.72083333333333	2	0.568359375
2348.828125	0.00833333333333333	0	-30	-4.72083333333333	2	0.8515625
2352.203125	0.00833333333333333	0	30	4.87916666666667	1	1.044921875
2355.4033203125	0.00833333333333333	0	-30	-4.72083333333333	1	0.404296875
2358.3779296875	0.00833333333333333	0	30	4.87916666666667	1	1.0380859375
2361.8359375	0.00833333333333333	0	-30	-4.72083333333333	1	0.931640625
2364.935546875	0.00833333333333333	0	30	4.87916666666667	1	1.3525390625
2368.7783203125	0.00833333333333333	0	30	4.87916666666667	1	1.189453125
2372.078125	0.00833333333333333	0	30	5.00416666666667	1	0.6337890625
2375.1279296875	0.00833333333333333	0	30	5.00416666666667	1	0.6962890625
2378.294921875	0.00833333333333333	0	30	5.00416666666667	2	1.2255859375
2381.9111328125	0.00833333333333333	0	-30	-4.72083333333333	1	0.9296875
2384.919921875	0.00833333333333333	0	-30	-4.72083333333333	2	0.65625
2388.1435546875	0.00833333333333333	0	-30	-4.72083333333333	2	0.45703125
2456.46875	0.00833333333333333	0	30	5.00416666666667	1	18.9267578125
2478.0185546875	0.00833333333333333	0	30	5.00416666666667	2	0.640625
2480.8515625	0.00833333333333333	0	-30	-4.72083333333333	2	1.0478515625
2484.3935546875	0.00833333333333333	0	-30	-4.72083333333333	1	0.650390625
2487.4599609375	0.00833333333333333	0	-30	-4.72083333333333	2	1.087890625
2490.9921875	0.00833333333333333	0	30	5.00416666666667	2	0.7392578125
2494.2099609375	0.00833333333333333	0	30	5.00416666666667	2	1.75390625
2498.109375	0.00833333333333333	0	-30	-4.72083333333333	1	0.791015625
2501.3681640625	0.00833333333333333	0	-30	-4.72083333333333	2	1.484375
2505.42578125	0.00833333333333333	0	30	5.00416666666667	1	1.1943359375
2509.1083984375	0.00833333333333333	0	-30	-4.72083333333333	2	0.6083984375
2511.9091796875	0.00833333333333333	0	-30	-4.72083333333333	2	0.4794921875
2514.5849609375	0.00833333333333333	0	30	5.00416666666667	1	0.7080078125
2517.5263671875	0.00833333333333333	0	30	5.00416666666667	1	0.57421875
2520.2421875	0.00833333333333333	0	-30	-4.72083333333333	1	0.6103515625
2523.275390625	0.00833333333333333	0	-30	-4.72083333333333	2	0.7138671875
2526.0830078125	0.00833333333333333	0	30	5.00416666666667	1	0.75390625
2529.025390625	0.00833333333333333	0	-30	-4.72083333333333	2	0.4677734375
2531.80859375	0.00833333333333333	0	-30	-4.72083333333333	2	0.6767578125
2534.6923828125	0.00833333333333333	0	-30	-4.72083333333333	1	0.9208984375
2537.900390625	0.00833333333333333	0	-30	-4.72083333333333	1	0.6572265625
2540.900390625	0.00833333333333333	0	-30	-4.72083333333333	2	0.9130859375
2544.359375	0.00833333333333333	0	30	5.00416666666667	1	0.9345703125
2547.3583984375	0.00833333333333333	0	-30	-4.72083333333333	1	0.6953125
2550.3173828125	0.00833333333333333	0	-30	-4.72083333333333	1	0.7685546875
2553.1669921875	0.00833333333333333	0	30	5.12916666666667	1	1.6552734375
2557.18359375	0.00833333333333333	0	-30	-4.72083333333333	2	0.7099609375
2560.17578125	0.00833333333333333	0	30	5.12916666666667	1	1.1826171875
2563.916015625	0.00833333333333333	0	-30	-4.72083333333333	2	0.7939453125
2567.2744140625	0.00833333333333333	0	30	5.12916666666667	2	1.251953125
2571.158203125	0.00833333333333333	0	-30	-4.72083333333333	2	0.6962890625
2574.0244140625	0.00833333333333333	0	30	5.12916666666667	2	0.7666015625
2577.3251953125	0.00833333333333333	0	-30	-4.72083333333333	1	0.6650390625
2580.533203125	0.00833333333333333	0	30	5.12916666666667	2	1.0654296875
2583.923828125	0.00833333333333333	0	-30	-4.72083333333333	2	0.5224609375
2586.6748046875	0.00833333333333333	0	30	5.12916666666667	2	0.7001953125
2589.4833984375	0.00833333333333333	0	30	5.12916666666667	2	0.6357421875
2592.591796875	0.00833333333333333	0	30	5.00416666666667	2	0.951171875
2596.125	0.00833333333333333	0	-30	-4.72083333333333	2	0.673828125
2599.2900390625	0.00833333333333333	0	30	5.00416666666667	2	0.701171875
2602.408203125	0.00833333333333333	0	-30	-4.72083333333333	1	0.6396484375
2605.32421875	0.00833333333333333	0	-30	-4.72083333333333	1	0.6669921875
2608.166015625	0.00833333333333333	0	30	5.00416666666667	2	0.7138671875
2611.0986328125	0.00833333333333333	0	30	5.00416666666667	1	0.6845703125
2613.974609375	0.00833333333333333	0	30	5.00416666666667	2	0.4091796875
2616.5830078125	0.00833333333333333	0	-30	-4.72083333333333	2	0.77734375
2619.9326171875	0.00833333333333333	0	-30	-4.72083333333333	1	0.4990234375
2622.7412109375	0.00833333333333333	0	30	5.00416666666667	2	0.9794921875
2625.8662109375	0.00833333333333333	0	30	5.00416666666667	2	0.669921875
2628.69140625	0.00833333333333333	0	30	5.00416666666667	1	0.8125
2631.857421875	0.00833333333333333	0	30	5.00416666666667	2	0.71875
2635.0078125	0.00833333333333333	0	-30	-4.72083333333333	1	0.5771484375
2638.0986328125	0.00833333333333333	0	30	5.00416666666667	1	1.7099609375
2642.1826171875	0.00833333333333333	0	30	5.00416666666667	2	0.4423828125
2644.9560546875	0.00833333333333333	0	-30	-4.72083333333333	2	0.6123046875
2647.916015625	0.00833333333333333	0	30	5.00416666666667	1	0.5966796875
2650.9990234375	0.00833333333333333	0	-30	-4.72083333333333	1	1.1376953125
2654.7236328125	0.00833333333333333	0	30	5.00416666666667	1	0.7099609375
2657.9404296875	0.00833333333333333	0	30	5.00416666666667	1	0.900390625
2661.1904296875	0.00833333333333333	0	30	5.00416666666667	1	0.546875
2664.0234375	0.00833333333333333	0	-30	-4.72083333333333	2	0.5693359375
2666.78125	0.00833333333333333	0	-30	-4.72083333333333	2	0.66796875
2669.7158203125	0.00833333333333333	0	30	5.00416666666667	2	0.6455078125
2672.740234375	0.00833333333333333	0	30	5.00416666666667	1	0.62109375
2675.83203125	0.00833333333333333	0	-30	-4.72083333333333	2	0.76171875
2678.96484375	0.00833333333333333	0	-30	-4.72083333333333	1	0.5009765625
2681.6572265625	0.00833333333333333	0	-30	-4.72083333333333	2	1.296875
2685.3232421875	0.00833333333333333	0	30	5.00416666666667	2	1.310546875
2689.0654296875	0.00833333333333333	0	-30	-4.72083333333333	2	0.521484375
2691.7236328125	0.00833333333333333	0	-30	-4.72083333333333	1	0.54296875
2694.322265625	0.00833333333333333	0	-30	-4.72083333333333	1	1.80078125
2698.431640625	0.00833333333333333	0	30	5.00416666666667	1	1.6669921875
2702.3984375	0.00833333333333333	0	30	5.00416666666667	2	1.9716796875
2706.8232421875	0.00833333333333333	0	-30	-4.72083333333333	2	0.5478515625
2709.5068359375	0.00833333333333333	0	30	5.00416666666667	1	2.0400390625
2713.873046875	0.00833333333333333	0	-30	-4.72083333333333	2	0.849609375
2717.2978515625	0.00833333333333333	0	-30	-4.72083333333333	2	0.80078125
2720.4306640625	0.00833333333333333	0	-30	-4.72083333333333	1	1.30859375
2723.8056640625	0.00833333333333333	0	30	5.00416666666667	2	0.869140625
2726.83984375	0.00833333333333333	0	30	5.00416666666667	2	0.1640625
2853.146484375	0.00833333333333333	0	-30	-4.72083333333333	2	1.0849609375
2856.37890625	0.00833333333333333	0	-30	-4.72083333333333	1	1.3564453125
2859.9375	0.00833333333333333	0	-30	-4.72083333333333	2	0.91015625
2862.970703125	0.00833333333333333	0	30	5.00416666666667	2	0.6767578125
2865.904296875	0.00833333333333333	0	30	5.00416666666667	1	0.6796875
2869.01953125	0.00833333333333333	0	30	5.00416666666667	1	0.564453125
2871.7705078125	0.00833333333333333	0	-30	-4.72083333333333	2	0.9814453125
2874.9873046875	0.00833333333333333	0	30	5.00416666666667	1	1.052734375
2878.345703125	0.00833333333333333	0	30	5.00416666666667	1	0.7666015625
2881.5283203125	0.00833333333333333	0	-30	-4.72083333333333	2	0.7763671875
2884.5703125	0.00833333333333333	0	-30	-4.72083333333333	2	0.486328125
2887.14453125	0.00833333333333333	0	-30	-4.72083333333333	2	0.8876953125
2890.38671875	0.00833333333333333	0	-30	-4.84583333333333	2	0.91015625
2893.4287109375	0.00833333333333333	0	30	5.00416666666667	1	0.8359375
2896.5205078125	0.00833333333333333	0	-30	-4.84583333333333	2	0.9365234375
2899.9033203125	0.00833333333333333	0	-30	-4.84583333333333	2	0.697265625
2903.044921875	0.00833333333333333	0	30	5.12916666666667	2	1.2197265625
2906.5859375	0.00833333333333333	0	-30	-4.84583333333333	2	0.6787109375
2909.669921875	0.00833333333333333	0	-30	-4.84583333333333	1	1.0029296875
2912.853515625	0.00833333333333333	0	-30	-4.84583333333333	2	0.68359375
2915.9453125	0.00833333333333333	0	30	5.12916666666667	1	0.5361328125
2918.9951171875	0.00833333333333333	0	30	5.12916666666667	2	0.9345703125
2922.0703125	0.00833333333333333	0	30	5.12916666666667	1	0.5791015625
2925.13671875	0.00833333333333333	0	30	5.12916666666667	2	1.0732421875
2928.544921875	0.00833333333333333	0	30	5.12916666666667	2	0.6328125
2931.6201171875	0.00833333333333333	0	30	5.12916666666667	1	0.5576171875
2934.51171875	0.00833333333333333	0	-30	-4.84583333333333	2	0.6904296875
2937.2451171875	0.00833333333333333	0	30	5.12916666666667	2	0.8056640625
2940.3447265625	0.00833333333333333	0	30	5.12916666666667	1	0.7939453125
2943.6025390625	0.00833333333333333	0	30	5.12916666666667	2	0.8232421875
2946.64453125	0.00833333333333333	0	30	5.12916666666667	2	0.4541015625
2949.26953125	0.00833333333333333	0	-30	-4.84583333333333	2	0.4765625
2951.986328125	0.00833333333333333	0	30	5.12916666666667	2	0.8486328125
2955.0859375	0.00833333333333333	0	-30	-4.84583333333333	1	0.6767578125
2958.1357421875	0.00833333333333333	0	-30	-4.84583333333333	2	0.7314453125
2961.0439453125	0.00833333333333333	0	30	5.12916666666667	2	0.87890625
2964.26953125	0.00833333333333333	0	30	5.12916666666667	1	0.6455078125
2967.3271484375	0.00833333333333333	0	-30	-4.84583333333333	1	0.572265625
2970.26953125	0.00833333333333333	0	-30	-4.84583333333333	2	0.5576171875
2973.09375	0.00833333333333333	0	-30	-4.84583333333333	1	0.6767578125
2976.0771484375	0.00833333333333333	0	-30	-4.84583333333333	2	0.765625
2979.4013671875	0.00833333333333333	0	-30	-4.84583333333333	2	0.5703125
2982.3525390625	0.00833333333333333	0	30	5.12916666666667	2	0.4912109375
2984.9521484375	0.00833333333333333	0	30	5.12916666666667	1	0.7470703125
2988.02734375	0.00833333333333333	0	-30	-4.84583333333333	2	0.544921875
2990.751953125	0.00833333333333333	0	30	5.12916666666667	2	0.931640625
2994.0859375	0.00833333333333333	0	-30	-4.84583333333333	2	0.58203125
2997.1591796875	0.00833333333333333	0	30	5.12916666666667	1	0.9248046875
3000.376953125	0.00833333333333333	0	-30	-4.84583333333333	1	0.8994140625
3003.4853515625	0.00833333333333333	0	30	5.12916666666667	2	0.814453125
3006.8095703125	0.00833333333333333	0	-30	-4.84583333333333	1	0.626953125
3009.6689453125	0.00833333333333333	0	-30	-4.84583333333333	2	0.52734375
3012.4677734375	0.00833333333333333	0	-30	-4.84583333333333	2	0.5771484375
3015.1767578125	0.00833333333333333	0	30	5.12916666666667	1	0.8837890625
3018.267578125	0.00833333333333333	0	-30	-4.84583333333333	1	0.888671875
3021.501953125	0.00833333333333333	0	-30	-4.84583333333333	1	0.88671875
3024.4765625	0.00833333333333333	0	-30	-4.84583333333333	1	1.2802734375
3028.2099609375	0.00833333333333333	0	30	5.12916666666667	1	0.9228515625
3031.3427734375	0.00833333333333333	0	30	5.12916666666667	2	0.6943359375
3034.7265625	0.00833333333333333	0	-30	-4.84583333333333	2	0.6630859375
3037.80078125	0.00833333333333333	0	-30	-4.84583333333333	2	0.62890625
3041.0009765625	0.00833333333333333	0	30	5.12916666666667	2	0.6201171875
3044.1181640625	0.00833333333333333	0	30	5.12916666666667	1	0.615234375
3046.818359375	0.00833333333333333	0	-30	-4.84583333333333	1	0.794921875
3050.04296875	0.00833333333333333	0	-30	-4.84583333333333	2	0.4111328125
3052.7763671875	0.00833333333333333	0	30	5.12916666666667	1	0.861328125
3055.9931640625	0.00833333333333333	0	30	5.12916666666667	2	0.9404296875
3059.1259765625	0.00833333333333333	0	30	5.12916666666667	1	0.7119140625
3062.0595703125	0.00833333333333333	0	-30	-4.84583333333333	2	0.6025390625
3064.900390625	0.00833333333333333	0	-30	-4.84583333333333	2	0.681640625
3068.2841796875	0.00833333333333333	0	-30	-4.84583333333333	2	0.498046875
3071.30078125	0.00833333333333333	0	-30	-4.84583333333333	1	1.6259765625
3075.5341796875	0.00833333333333333	0	30	5.12916666666667	2	0.4560546875
3078.400390625	0.00833333333333333	0	30	5.12916666666667	1	1.59765625
3082.392578125	0.00833333333333333	0	-30	-4.84583333333333	2	1.1259765625
3085.54296875	0.00833333333333333	0	-30	-4.84583333333333	2	0.6962890625
3088.4921875	0.00833333333333333	0	30	5.12916666666667	2	0.71484375
3091.55859375	0.00833333333333333	0	30	5.12916666666667	2	0.6484375
3094.3828125	0.00833333333333333	0	-30	-4.84583333333333	2	0.576171875
3097.3837890625	0.00833333333333333	0	30	5.12916666666667	2	4.6396484375
3117.4248046875	0.00833333333333333	0	30	5.12916666666667	2	0.943359375
3120.68359375	0.00833333333333333	0	-30	-4.84583333333333	2	0.701171875
3123.5166015625	0.00833333333333333	0	30	5.12916666666667	2	1.02734375
3126.7666015625	0.00833333333333333	0	30	5.00416666666667	1	1.42578125
3130.4248046875	0.00833333333333333	0	30	5.00416666666667	2	0.591796875
3133.1328125	0.00833333333333333	0	30	5.00416666666667	1	0.69921875
3136.216796875	0.00833333333333333	0	-30	-4.84583333333333	2	0.5673828125
3139.1337890625	0.00833333333333333	0	30	5.00416666666667	1	0.5625
3142.1083984375	0.00833333333333333	0	30	5.00416666666667	2	0.732421875
3145.2333984375	0.00833333333333333	0	-30	-4.97083333333333	2	0.6396484375
3148.0234375	0.00833333333333333	0	30	5.00416666666667	2	0.697265625
3151.158203125	0.00833333333333333	0	-30	-4.97083333333333	1	0.5703125
3153.908203125	0.00833333333333333	0	30	5.00416666666667	1	1.044921875
3157.125	0.00833333333333333	0	-30	-4.97083333333333	2	0.595703125
3160.1162109375	0.00833333333333333	0	30	5.00416666666667	2	0.61328125
3162.83203125	0.00833333333333333	0	-30	-4.97083333333333	2	0.6572265625
3165.9912109375	0.00833333333333333	0	30	5.00416666666667	1	0.6103515625
3168.640625	0.00833333333333333	0	-30	-4.97083333333333	2	0.705078125
3171.666015625	0.00833333333333333	0	-30	-4.97083333333333	2	0.599609375
3174.908203125	0.00833333333333333	0	-30	-4.97083333333333	2	0.5654296875
3177.82421875	0.00833333333333333	0	30	5.00416666666667	2	1.009765625
3181.423828125	0.00833333333333333	0	-30	-5.09583333333333	2	1.06640625
3184.69921875	0.00833333333333333	0	30	5.00416666666667	2	0.814453125
3187.9482421875	0.00833333333333333	0	-30	-5.09583333333333	2	0.6533203125
3190.849609375	0.00833333333333333	0	30	5.00416666666667	1	1.0166015625
3194.2578125	0.00833333333333333	0	30	5.00416666666667	2	0.712890625
3197.45703125	0.00833333333333333	0	-30	-5.09583333333333	1	2.6416015625
3202.3154296875	0.00833333333333333	0	30	5.00416666666667	2	0.703125
3205.423828125	0.00833333333333333	0	30	5.00416666666667	1	0.53125
3208.1484375	0.00833333333333333	0	-30	-5.09583333333333	2	1.9267578125
3212.423828125	0.00833333333333333	0	-30	-5.09583333333333	2	0.642578125
3215.490234375	0.00833333333333333	0	30	5.00416666666667	1	0.6328125
3218.32421875	0.00833333333333333	0	30	5.00416666666667	1	0.5830078125
3220.990234375	0.00833333333333333	0	-30	-5.09583333333333	2	0.6845703125
3224.115234375	0.00833333333333333	0	30	5.00416666666667	2	0.5439453125
3226.8310546875	0.00833333333333333	0	-30	-5.09583333333333	2	0.64453125
3230.0654296875	0.00833333333333333	0	-30	-5.09583333333333	2	1.009765625
3233.607421875	0.00833333333333333	0	30	5.00416666666667	1	2.3720703125
3238.1318359375	0.00833333333333333	0	30	5.00416666666667	2	0.576171875
3241.2314453125	0.00833333333333333	0	30	5.00416666666667	2	0.396484375
3243.97265625	0.00833333333333333	0	-30	-5.22083333333333	2	0.927734375
3247.1484375	0.00833333333333333	0	-30	-5.22083333333333	1	1.7197265625
3251.3564453125	0.00833333333333333	0	-30	-5.22083333333333	1	0.83984375
3254.2900390625	0.00833333333333333	0	30	5.00416666666667	2	0.3701171875
3257.21484375	0.00833333333333333	0	30	5.00416666666667	2	0.685546875
3259.9814453125	0.00833333333333333	0	30	5.00416666666667	1	0.615234375
3262.998046875	0.00833333333333333	0	30	5.00416666666667	1	0.5986328125
3266.0810546875	0.00833333333333333	0	30	5.00416666666667	2	0.451171875
3268.955078125	0.00833333333333333	0	-30	-5.22083333333333	2	0.6015625
3272.123046875	0.00833333333333333	0	-30	-5.22083333333333	1	0.673828125
3275.0478515625	0.00833333333333333	0	30	5.00416666666667	2	0.63671875
3277.8896484375	0.00833333333333333	0	30	5.00416666666667	2	0.787109375
3280.9560546875	0.00833333333333333	0	30	5.00416666666667	2	0.4169921875
3283.7724609375	0.00833333333333333	0	-30	-5.22083333333333	1	0.65625
3286.7646484375	0.00833333333333333	0	-30	-5.22083333333333	1	1.2724609375
3290.546875	0.00833333333333333	0	30	5.00416666666667	2	0.6826171875
3293.7392578125	0.00833333333333333	0	30	4.87916666666667	1	1.330078125
3297.248046875	0.00833333333333333	0	-30	-5.22083333333333	1	0.94921875
3300.314453125	0.00833333333333333	0	-30	-5.22083333333333	1	1.37890625
3304.2392578125	0.00833333333333333	0	-30	-5.09583333333333	1	0.71875
3307.35546875	0.00833333333333333	0	30	4.87916666666667	2	0.634765625
3310.4638671875	0.00833333333333333	0	-30	-5.09583333333333	2	0.58203125
3313.60546875	0.00833333333333333	0	-30	-5.09583333333333	2	0.6171875
3316.3134765625	0.00833333333333333	0	-30	-5.09583333333333	2	0.6044921875
3319.3720703125	0.00833333333333333	0	30	4.87916666666667	1	0.59375
3322.23046875	0.00833333333333333	0	-30	-5.09583333333333	2	0.6318359375
3325.380859375	0.00833333333333333	0	30	4.87916666666667	1	2.0498046875
3329.86328125	0.00833333333333333	0	30	4.87916666666667	2	0.375
3332.6962890625	0.00833333333333333	0	30	4.87916666666667	1	0.7744140625
3335.505859375	0.00833333333333333	0	-30	-5.09583333333333	2	0.2451171875
3338.0888671875	0.00833333333333333	0	-30	-5.22083333333333	1	3.4462890625
3343.8720703125	0.00833333333333333	0	30	4.87916666666667	2	0.8544921875
3347.271484375	0.00833333333333333	0	30	4.87916666666667	1	0.8154296875
3350.388671875	0.00833333333333333	0	-30	-5.22083333333333	1	0.8583984375
3353.73828125	0.00833333333333333	0	-30	-5.22083333333333	2	0.8046875
3356.888671875	0.00833333333333333	0	-30	-5.22083333333333	2	0.71875
3359.712890625	0.00833333333333333	0	30	4.87916666666667	2	0.8623046875
3362.896484375	0.00833333333333333	0	-30	-5.22083333333333	1	1.52734375
3366.5712890625	0.00833333333333333	0	-30	-5.22083333333333	2	0.5009765625
3369.5048828125	0.00833333333333333	0	30	4.87916666666667	2	0.447265625
3424.9375	0.00833333333333333	0	-30	-5.22083333333333	2	0.8720703125
3428.1376953125	0.00833333333333333	0	30	4.87916666666667	1	1.48828125
3432.1953125	0.00833333333333333	0	-30	-5.22083333333333	2	0.6708984375
3435.0458984375	0.00833333333333333	0	-30	-5.22083333333333	2	0.5322265625
3438.078125	0.00833333333333333	0	-30	-5.22083333333333	2	0.427734375
3440.88671875	0.00833333333333333	0	30	4.87916666666667	2	1.8271484375
3444.9775390625	0.00833333333333333	0	30	4.87916666666667	2	0.65625
3447.9541015625	0.00833333333333333	0	30	4.87916666666667	1	0.80859375
3451.0283203125	0.00833333333333333	0	-30	-5.34583333333333	2	0.56640625
3453.794921875	0.00833333333333333	0	-30	-5.34583333333333	2	0.52734375
3456.6533203125	0.00833333333333333	0	30	4.87916666666667	1	0.62109375
3459.4287109375	0.00833333333333333	0	30	4.87916666666667	2	0.6220703125
3462.13671875	0.00833333333333333	0	30	4.87916666666667	1	0.74609375
3465.1201171875	0.00833333333333333	0	30	4.87916666666667	2	0.4990234375
3467.6943359375	0.00833333333333333	0	30	4.87916666666667	2	0.5322265625
3470.4287109375	0.00833333333333333	0	-30	-5.34583333333333	1	1.134765625
3474.0615234375	0.00833333333333333	0	30	4.87916666666667	2	0.341796875
3476.6201171875	0.00833333333333333	0	30	4.87916666666667	1	0.87890625
3479.9619140625	0.00833333333333333	0	30	4.87916666666667	2	1.2734375
3483.4111328125	0.00833333333333333	0	30	4.87916666666667	1	0.720703125
3486.5361328125	0.00833333333333333	0	30	4.87916666666667	1	0.875
3489.986328125	0.00833333333333333	0	-30	-5.34583333333333	2	0.705078125
3492.953125	0.00833333333333333	0	-30	-5.34583333333333	2	0.498046875
3495.90234375	0.00833333333333333	0	30	4.87916666666667	2	1.3251953125
3499.5947265625	0.00833333333333333	0	30	4.87916666666667	1	0.6572265625
3502.453125	0.00833333333333333	0	-30	-5.34583333333333	1	0.009765625
3504.9267578125	0.00833333333333333	0	30	4.87916666666667	2	0.349609375
3507.6865234375	0.00833333333333333	0	30	4.87916666666667	2	0.693359375
3510.5517578125	0.00833333333333333	0	30	4.87916666666667	1	1.30078125
3514.2109375	0.00833333333333333	0	30	4.87916666666667	2	0.8818359375
3517.3359375	0.00833333333333333	0	-30	-5.34583333333333	2	0.64453125
3520.619140625	0.00833333333333333	0	30	4.87916666666667	2	0.5537109375
3523.244140625	0.00833333333333333	0	-30	-5.34583333333333	1	0.9443359375
3526.4853515625	0.00833333333333333	0	30	4.87916666666667	2	0.6875
3529.5439453125	0.00833333333333333	0	30	4.87916666666667	2	0.5810546875
3532.3857421875	0.00833333333333333	0	30	4.87916666666667	1	0.8994140625
3535.4521484375	0.00833333333333333	0	-30	-5.34583333333333	2	0.5048828125
3538.2431640625	0.00833333333333333	0	30	4.87916666666667	2	0.4814453125
3541.2021484375	0.00833333333333333	0	-30	-5.34583333333333	2	0.787109375
3544.0859375	0.00833333333333333	0	30	4.87916666666667	2	1.7998046875
3548.1591796875	0.00833333333333333	0	30	4.87916666666667	1	0.5908203125
3551.0517578125	0.00833333333333333	0	30	4.87916666666667	1	0.6337890625
3553.8095703125	0.00833333333333333	0	-30	-5.34583333333333	1	3.1083984375
3559.3349609375	0.00833333333333333	0	-30	-5.34583333333333	2	0.5185546875
3562.376953125	0.00833333333333333	0	30	4.87916666666667	2	0.453125
3565.3017578125	0.00833333333333333	0	30	4.87916666666667	2	0.65625
3568.2939453125	0.00833333333333333	0	30	4.87916666666667	1	0.560546875
3571.1689453125	0.00833333333333333	0	-30	-5.34583333333333	2	0.009765625
3573.6689453125	0.00833333333333333	0	-30	-5.34583333333333	1	1.9453125
3577.7255859375	0.00833333333333333	0	30	4.87916666666667	1	0.705078125
3580.5263671875	0.00833333333333333	0	30	4.87916666666667	1	0.5283203125
3583.3271484375	0.00833333333333333	0	30	4.87916666666667	1	0.671875
3586.2763671875	0.00833333333333333	0	-30	-5.34583333333333	1	1.234375
3589.9345703125	0.00833333333333333	0	-30	-5.34583333333333	1	1.14453125
3593.41015625	0.00833333333333333	0	30	4.87916666666667	1	0.708984375
3596.3515625	0.00833333333333333	0	30	5.00416666666667	1	0.6474609375
3599.5263671875	0.00833333333333333	0	-30	-5.34583333333333	1	0.697265625
3602.708984375	0.00833333333333333	0	-30	-5.34583333333333	1	4.0986328125
3609.333984375	0.00833333333333333	0	30	5.00416666666667	2	0.4814453125
3612.1513671875	0.00833333333333333	0	-30	-5.22083333333333	2	0.400390625
3614.7177734375	0.00833333333333333	0	30	5.00416666666667	2	0.337890625
3617.326171875	0.00833333333333333	0	30	5.00416666666667	2	1.3857421875
3621.2841796875	0.00833333333333333	0	-30	-5.22083333333333	2	0.69921875
3624.3095703125	0.00833333333333333	0	30	5.00416666666667	1	0.0087890625
3626.43359375	0.00833333333333333	0	-30	-5.22083333333333	2	0.318359375
3629.2421875	0.00833333333333333	0	-30	-5.22083333333333	2	0.486328125
3631.958984375	0.00833333333333333	0	30	5.00416666666667	1	0.6650390625
3635.04296875	0.00833333333333333	0	-30	-5.22083333333333	2	0.5654296875
3637.8837890625	0.00833333333333333	0	-30	-5.34583333333333	2	0.5400390625
3640.7509765625	0.00833333333333333	0	30	5.00416666666667	2	0.4736328125
3643.533203125	0.00833333333333333	0	-30	-5.34583333333333	1	0.5712890625
3646.2841796875	0.00833333333333333	0	-30	-5.34583333333333	1	0.533203125
3649.0009765625	0.00833333333333333	0	-30	-5.34583333333333	2	0.5517578125
3651.8505859375	0.00833333333333333	0	30	5.00416666666667	1	1.0703125
3655.150390625	0.00833333333333333	0	-30	-5.34583333333333	2	1.1142578125
3658.4921875	0.00833333333333333	0	30	5.00416666666667	1	0.7490234375
3661.6337890625	0.00833333333333333	0	30	5.00416666666667	2	0.3515625
3664.2255859375	0.00833333333333333	0	-30	-5.34583333333333	1	0.4951171875
3667.0498046875	0.00833333333333333	0	-30	-5.34583333333333	2	3.3759765625
3672.841796875	0.00833333333333333	0	30	5.00416666666667	2	0.009765625
3776.857421875	0.00833333333333333	0	-30	-5.34583333333333	2	1.0830078125
3780.28125	0.00833333333333333	0	-30	-5.34583333333333	2	0.6513671875
3783.107421875	0.00833333333333333	0	30	5.00416666666667	2	0.5537109375
3786.2158203125	0.00833333333333333	0	30	5.00416666666667	2	0.61328125
3788.97265625	0.00833333333333333	0	-30	-5.34583333333333	2	0.5849609375
3791.7314453125	0.00833333333333333	0	-30	-5.34583333333333	2	0.6015625
3794.857421875	0.00833333333333333	0	-30	-5.47083333333333	2	0.7001953125
3797.9482421875	0.00833333333333333	0	30	5.00416666666667	1	0.9697265625
3801.28125	0.00833333333333333	0	-30	-5.47083333333333	2	0.6279296875
3804.58203125	0.00833333333333333	0	-30	-5.47083333333333	2	0.568359375
3807.3896484375	0.00833333333333333	0	-30	-5.47083333333333	2	0.48046875
3810.4736328125	0.00833333333333333	0	30	5.00416666666667	1	0.7001953125
3813.556640625	0.00833333333333333	0	-30	-5.47083333333333	2	0.544921875
3816.3388671875	0.00833333333333333	0	-30	-5.59583333333333	2	1.2109375
3819.755859375	0.00833333333333333	0	30	5.00416666666667	2	0.5859375
3822.7734375	0.00833333333333333	0	-30	-5.59583333333333	2	0.552734375
3825.84765625	0.00833333333333333	0	-30	-5.59583333333333	2	0.9755859375
3829.306640625	0.00833333333333333	0	30	5.00416666666667	1	0.8115234375
3832.421875	0.00833333333333333	0	-30	-5.59583333333333	1	0.705078125
3835.4482421875	0.00833333333333333	0	-30	-5.59583333333333	2	0.8466796875
3838.6728515625	0.00833333333333333	0	-30	-5.59583333333333	1	0.494140625
3841.505859375	0.00833333333333333	0	30	5.00416666666667	2	1.0693359375
3844.947265625	0.00833333333333333	0	30	5.00416666666667	1	0.9716796875
3848.5048828125	0.00833333333333333	0	-30	-5.59583333333333	1	1.974609375
3852.71484375	0.00833333333333333	0	-30	-5.59583333333333	2	0.732421875
3855.755859375	0.00833333333333333	0	-30	-5.59583333333333	2	0.419921875
3858.564453125	0.00833333333333333	0	-30	-5.59583333333333	2	0.4033203125
3861.439453125	0.00833333333333333	0	30	5.00416666666667	1	0.431640625
3864.0224609375	0.00833333333333333	0	-30	-5.59583333333333	1	0.705078125
3866.9638671875	0.00833333333333333	0	30	5.00416666666667	1	0.84375
3870.1552734375	0.00833333333333333	0	-30	-5.59583333333333	2	1.220703125
3873.8642578125	0.00833333333333333	0	30	5.00416666666667	1	0.591796875
3876.921875	0.00833333333333333	0	30	5.00416666666667	1	0.4697265625
3879.9140625	0.00833333333333333	0	30	5.12916666666667	1	1.0537109375
3883.197265625	0.00833333333333333	0	-30	-5.59583333333333	2	0.642578125
3885.98046875	0.00833333333333333	0	-30	-5.59583333333333	1	3.763671875
3892.2724609375	0.00833333333333333	0	30	5.12916666666667	1	0.671875
3895.4638671875	0.00833333333333333	0	30	5.12916666666667	1	0.712890625
3898.595703125	0.00833333333333333	0	30	5.12916666666667	1	0.63671875
3901.48046875	0.00833333333333333	0	-30	-5.59583333333333	1	0.568359375
3904.23828125	0.00833333333333333	0	-30	-5.59583333333333	1	0.8349609375
3907.2216796875	0.00833333333333333	0	30	5.12916666666667	1	0.5634765625
3910.263671875	0.00833333333333333	0	-30	-5.59583333333333	2	0.6494140625
3913.1220703125	0.00833333333333333	0	30	5.25416666666667	1	0.6708984375
3916.10546875	0.00833333333333333	0	-30	-5.59583333333333	1	0.5673828125
3919.046875	0.00833333333333333	0	-30	-5.59583333333333	2	0.41796875
3921.5966796875	0.00833333333333333	0	-30	-5.59583333333333	2	0.5166015625
3924.6220703125	0.00833333333333333	0	-30	-5.59583333333333	2	0.8193359375
3927.7880859375	0.00833333333333333	0	-30	-5.59583333333333	1	1.685546875
3931.796875	0.00833333333333333	0	30	5.25416666666667	2	0.2451171875
3934.5126953125	0.00833333333333333	0	30	5.25416666666667	1	5.3134765625
3942.1298828125	0.00833333333333333	0	-30	-5.59583333333333	2	0.6962890625
3945.2705078125	0.00833333333333333	0	-30	-5.59583333333333	1	0.009765625
3947.5048828125	0.00833333333333333	0	30	5.25416666666667	2	0.681640625
3950.4794921875	0.00833333333333333	0	30	5.25416666666667	2	0.5390625
3953.1787109375	0.00833333333333333	0	30	5.25416666666667	2	0.416015625
3955.8876953125	0.00833333333333333	0	-30	-5.59583333333333	1	0.4267578125
3958.6875	0.00833333333333333	0	30	5.25416666666667	2	0.4912109375
3961.654296875	0.00833333333333333	0	30	5.25416666666667	1	2.5966796875
3966.8125	0.00833333333333333	0	-30	-5.59583333333333	2	0.55078125
3970.0126953125	0.00833333333333333	0	30	5.25416666666667	1	0.4140625
3972.8291015625	0.00833333333333333	0	30	5.25416666666667	1	0.60546875
3975.7294921875	0.00833333333333333	0	-30	-5.59583333333333	2	0.5703125
3978.87109375	0.00833333333333333	0	-30	-5.59583333333333	2	0.548828125
3981.5791015625	0.00833333333333333	0	-30	-5.59583333333333	2	0.048828125
3984.2529296875	0.00833333333333333	0	30	5.25416666666667	1	3.4384765625
3989.8701171875	0.00833333333333333	0	-30	-5.59583333333333	2	0.6689453125
3992.6787109375	0.00833333333333333	0	-30	-5.72083333333333	2	0.6533203125
3995.9208984375	0.00833333333333333	0	30	5.25416666666667	1	0.2353515625
3998.4541015625	0.00833333333333333	0	-30	-5.72083333333333	1	0.4453125
4001.4619140625	0.00833333333333333	0	-30	-5.72083333333333	2	1.0703125
4004.76953125	0.00833333333333333	0	-30	-5.72083333333333	1	1.38671875
4008.25390625	0.00833333333333333	0	-30	-5.72083333333333	2	0.3583984375
4010.8037109375	0.00833333333333333	0	-30	-5.72083333333333	1	3.96875
4017.111328125	0.00833333333333333	0	-30	-5.72083333333333	2	0.453125
4019.87890625	0.00833333333333333	0	-30	-5.72083333333333	2	0.5419921875
4022.544921875	0.00833333333333333	0	30	5.37916666666667	2	0.5078125
4025.236328125	0.00833333333333333	0	-30	-5.72083333333333	2	0.48046875
4028.228515625	0.00833333333333333	0	30	5.37916666666667	2	0.416015625
4031.2197265625	0.00833333333333333	0	-30	-5.72083333333333	1	0.43359375
4112.8857421875	0.00833333333333333	0	-30	-5.72083333333333	2	0.7861328125
4115.8271484375	0.00833333333333333	0	-30	-5.72083333333333	2	1.1162109375
4119.126953125	0.00833333333333333	0	-30	-5.72083333333333	2	0.7373046875
4122.3095703125	0.00833333333333333	0	-30	-5.72083333333333	2	0.6337890625
4125.376953125	0.00833333333333333	0	-30	-5.72083333333333	2	0.806640625
4128.4189453125	0.00833333333333333	0	30	5.37916666666667	2	0.7734375
4131.3671875	0.00833333333333333	0	30	5.37916666666667	2	1.0166015625
4134.71875	0.00833333333333333	0	-30	-5.84583333333333	2	0.5537109375
4137.4853515625	0.00833333333333333	0	-30	-5.84583333333333	2	0.4990234375
4140.53515625	0.00833333333333333	0	30	5.37916666666667	2	0.705078125
4143.4267578125	0.00833333333333333	0	-30	-5.84583333333333	2	0.7412109375
4146.41796875	0.00833333333333333	0	-30	-5.84583333333333	1	1.0224609375
4149.6513671875	0.00833333333333333	0	-30	-5.84583333333333	1	0.5732421875
4152.5595703125	0.00833333333333333	0	30	5.25416666666667	2	0.865234375
4155.7099609375	0.00833333333333333	0	30	5.25416666666667	2	0.4990234375
4158.4931640625	0.00833333333333333	0	30	5.25416666666667	2	0.4921875
4161.091796875	0.00833333333333333	0	30	5.25416666666667	1	0.5810546875
4163.7099609375	0.00833333333333333	0	-30	-5.84583333333333	2	0.546875
4166.443359375	0.00833333333333333	0	30	5.25416666666667	2	0.4375
4169.068359375	0.00833333333333333	0	-30	-5.84583333333333	2	0.4775390625
4171.6845703125	0.00833333333333333	0	30	5.25416666666667	2	0.6611328125
4174.4423828125	0.00833333333333333	0	-30	-5.84583333333333	1	0.7353515625
4177.359375	0.00833333333333333	0	30	5.25416666666667	1	0.7861328125
4180.375	0.00833333333333333	0	-30	-5.84583333333333	1	1.123046875
4183.6513671875	0.00833333333333333	0	-30	-5.84583333333333	1	0.5986328125
4186.4013671875	0.00833333333333333	0	30	5.25416666666667	1	0.6484375
4189.3837890625	0.00833333333333333	0	30	5.25416666666667	1	0.8017578125
4192.80859375	0.00833333333333333	0	30	5.25416666666667	2	0.7529296875
4195.8095703125	0.00833333333333333	0	30	5.25416666666667	1	1.2080078125
4199.7841796875	0.00833333333333333	0	30	5.25416666666667	2	0.6181640625
4202.93359375	0.00833333333333333	0	-30	-5.84583333333333	1	0.6455078125
4206.0087890625	0.00833333333333333	0	30	5.25416666666667	2	0.7294921875
4209.2919921875	0.00833333333333333	0	30	5.25416666666667	2	1.310546875
4212.8671875	0.00833333333333333	0	30	5.25416666666667	2	0.6474609375
4215.767578125	0.00833333333333333	0	30	5.25416666666667	1	0.9306640625
4219.2255859375	0.00833333333333333	0	-30	-5.84583333333333	1	0.8408203125
4222.716796875	0.00833333333333333	0	30	5.25416666666667	2	0.486328125
4225.30859375	0.00833333333333333	0	30	5.25416666666667	1	0.6865234375
4228.142578125	0.00833333333333333	0	-30	-5.72083333333333	2	0.548828125
4231.033203125	0.00833333333333333	0	-30	-5.72083333333333	2	0.90625
4234.0498046875	0.00833333333333333	0	-30	-5.72083333333333	2	0.7216796875
4236.8583984375	0.00833333333333333	0	30	5.25416666666667	2	0.5048828125
4239.8837890625	0.00833333333333333	0	30	5.25416666666667	2	1.0400390625
4243.0166015625	0.00833333333333333	0	-30	-5.72083333333333	2	0.6904296875
4245.8671875	0.00833333333333333	0	30	5.25416666666667	1	0.6484375
4248.650390625	0.00833333333333333	0	30	5.25416666666667	1	0.529296875
4251.3583984375	0.00833333333333333	0	-30	-5.72083333333333	2	0.509765625
4254.1083984375	0.00833333333333333	0	30	5.25416666666667	2	1.111328125
4257.5419921875	0.00833333333333333	0	30	5.25416666666667	2	1.8544921875
4261.7666015625	0.00833333333333333	0	-30	-5.84583333333333	1	0.6376953125
4264.9169921875	0.00833333333333333	0	30	5.25416666666667	1	0.599609375
4267.5830078125	0.00833333333333333	0	30	5.25416666666667	1	1.109375
4270.9248046875	0.00833333333333333	0	-30	-5.84583333333333	1	0.6552734375
4273.7333984375	0.00833333333333333	0	-30	-5.84583333333333	1	0.943359375
4276.81640625	0.00833333333333333	0	30	5.25416666666667	1	0.65234375
4279.640625	0.00833333333333333	0	-30	-5.84583333333333	2	0.572265625
4282.32421875	0.00833333333333333	0	-30	-5.84583333333333	2	1.056640625
4285.69921875	0.00833333333333333	0	30	5.25416666666667	1	1.169921875
4289.07421875	0.00833333333333333	0	30	5.25416666666667	1	0.7548828125
4292.21484375	0.00833333333333333	0	30	5.37916666666667	1	0.7421875
4295.423828125	0.00833333333333333	0	30	5.37916666666667	1	0.7734375
4298.44921875	0.00833333333333333	0	-30	-5.84583333333333	2	0.7802734375
4301.666015625	0.00833333333333333	0	-30	-5.84583333333333	1	0.8271484375
4304.9326171875	0.00833333333333333	0	-30	-5.84583333333333	2	0.552734375
4307.7822265625	0.00833333333333333	0	30	5.37916666666667	1	0.6953125
4310.564453125	0.00833333333333333	0	-30	-5.84583333333333	1	0.625
4313.541015625	0.00833333333333333	0	30	5.37916666666667	1	0.78515625
4316.7412109375	0.00833333333333333	0	-30	-5.84583333333333	2	0.6484375
4320.0234375	0.00833333333333333	0	-30	-5.84583333333333	2	1.1748046875
4323.482421875	0.00833333333333333	0	-30	-5.84583333333333	1	0.603515625
4326.4560546875	0.00833333333333333	0	30	5.37916666666667	1	0.9580078125
4329.640625	0.00833333333333333	0	30	5.50416666666667	1	0.9580078125
4332.8076171875	0.00833333333333333	0	-30	-5.84583333333333	2	0.8232421875
4336.1318359375	0.00833333333333333	0	-30	-5.84583333333333	2	1.130859375
4339.732421875	0.00833333333333333	0	-30	-5.84583333333333	2	0.6025390625
4342.8408203125	0.00833333333333333	0	30	5.50416666666667	2	0.9658203125
4346.1240234375	0.00833333333333333	0	-30	-5.84583333333333	1	1.3955078125
4350.0732421875	0.00833333333333333	0	30	5.50416666666667	2	1.005859375
4353.7060546875	0.00833333333333333	0	30	5.50416666666667	2	0.8447265625
4356.70703125	0.00833333333333333	0	-30	-5.84583333333333	2	0.5478515625
4425.9892578125	0.00833333333333333	0	-30	-5.84583333333333	2	0.892578125
4429.3720703125	0.00833333333333333	0	30	5.50416666666667	2	0.869140625
4432.4140625	0.00833333333333333	0	30	5.50416666666667	1	0.8515625
4435.671875	0.00833333333333333	0	-30	-5.84583333333333	1	0.6337890625
4438.8056640625	0.00833333333333333	0	-30	-5.84583333333333	1	0.6845703125
4441.796875	0.00833333333333333	0	-30	-5.84583333333333	2	0.5888671875
4444.546875	0.00833333333333333	0	30	5.50416666666667	2	1.53515625
4448.37109375	0.00833333333333333	0	-30	-5.84583333333333	2	0.9267578125
4451.6708984375	0.00833333333333333	0	-30	-5.84583333333333	2	0.7314453125
4454.9306640625	0.00833333333333333	0	-30	-5.84583333333333	1	0.783203125
4458.197265625	0.00833333333333333	0	-30	-5.84583333333333	1	1.029296875
4461.830078125	0.00833333333333333	0	-30	-5.84583333333333	1	1.0361328125
4465.146484375	0.00833333333333333	0	30	5.50416666666667	2	0.7919921875
4468.2138671875	0.00833333333333333	0	-30	-5.84583333333333	2	0.732421875
4471.1455078125	0.00833333333333333	0	-30	-5.84583333333333	1	0.6494140625
4474.1630859375	0.00833333333333333	0	-30	-5.84583333333333	2	0.6162109375
4476.8876953125	0.00833333333333333	0	30	5.50416666666667	2	0.619140625
4479.921875	0.00833333333333333	0	30	5.50416666666667	2	0.6416015625
4483.0380859375	0.00833333333333333	0	30	5.50416666666667	2	0.662109375
4486.0869140625	0.00833333333333333	0	30	5.37916666666667	2	0.5322265625
4489.1298828125	0.00833333333333333	0	30	5.37916666666667	2	0.6171875
4492.0302734375	0.00833333333333333	0	-30	-5.84583333333333	2	0.533203125
4494.8544921875	0.00833333333333333	0	-30	-5.84583333333333	1	0.693359375
4498.1533203125	0.00833333333333333	0	-30	-5.84583333333333	2	0.6337890625
4501.337890625	0.00833333333333333	0	30	5.37916666666667	2	0.505859375
4504.212890625	0.00833333333333333	0	30	5.37916666666667	1	1.2548828125
4507.74609375	0.00833333333333333	0	-30	-5.84583333333333	2	0.7939453125
4510.8046875	0.00833333333333333	0	30	5.37916666666667	2	0.5029296875
4513.3876953125	0.00833333333333333	0	30	5.37916666666667	2	0.552734375
4516.1962890625	0.00833333333333333	0	-30	-5.84583333333333	2	0.6796875
4519.361328125	0.00833333333333333	0	-30	-5.84583333333333	2	0.4345703125
4522.24609375	0.00833333333333333	0	-30	-5.84583333333333	2	0.4384765625
4525.203125	0.00833333333333333	0	30	5.37916666666667	2	0.59375
4527.904296875	0.00833333333333333	0	30	5.37916666666667	2	0.484375
4530.8447265625	0.00833333333333333	0	30	5.37916666666667	1	0.744140625
4533.8955078125	0.00833333333333333	0	30	5.37916666666667	2	0.708984375
4537.0537109375	0.00833333333333333	0	-30	-5.97083333333333	2	0.416015625
4539.7373046875	0.00833333333333333	0	-30	-5.97083333333333	2	0.6044921875
4542.75390625	0.00833333333333333	0	30	5.37916666666667	1	0.9716796875
4546.0205078125	0.00833333333333333	0	30	5.37916666666667	2	0.720703125
4549.078125	0.00833333333333333	0	30	5.37916666666667	1	0.623046875
4552.1708984375	0.00833333333333333	0	30	5.37916666666667	2	0.466796875
4555.0205078125	0.00833333333333333	0	-30	-5.97083333333333	2	0.8486328125
4558.00390625	0.00833333333333333	0	30	5.37916666666667	2	0.9853515625
4561.4873046875	0.00833333333333333	0	30	5.37916666666667	1	0.55859375
4564.3525390625	0.00833333333333333	0	30	5.37916666666667	1	0.8056640625
4567.5537109375	0.00833333333333333	0	30	5.37916666666667	2	0.64453125
4570.4951171875	0.00833333333333333	0	30	5.37916666666667	1	0.6142578125
4573.50390625	0.00833333333333333	0	30	5.37916666666667	2	0.509765625
4576.162109375	0.00833333333333333	0	-30	-5.97083333333333	1	0.9716796875
4579.3701171875	0.00833333333333333	0	-30	-5.97083333333333	1	0.8125
4582.9775390625	0.00833333333333333	0	30	5.37916666666667	2	0.8046875
4586.2119140625	0.00833333333333333	0	30	5.37916666666667	2	0.6669921875
4589.0537109375	0.00833333333333333	0	-30	-5.97083333333333	2	0.560546875
4592.1865234375	0.00833333333333333	0	30	5.37916666666667	2	0.4443359375
4595.0615234375	0.00833333333333333	0	30	5.37916666666667	2	0.625
4598.078125	0.00833333333333333	0	30	5.25416666666667	2	0.4482421875
4600.7119140625	0.00833333333333333	0	30	5.25416666666667	2	0.4951171875
4603.669921875	0.00833333333333333	0	30	5.25416666666667	2	0.529296875
4606.3701171875	0.00833333333333333	0	30	5.25416666666667	2	0.62109375
4609.453125	0.00833333333333333	0	30	5.25416666666667	2	0.986328125
4612.78515625	0.00833333333333333	0	-30	-5.97083333333333	2	0.7109375
4615.8857421875	0.00833333333333333	0	-30	-5.97083333333333	2	0.529296875
4618.6357421875	0.00833333333333333	0	-30	-5.97083333333333	1	0.5078125
4621.76171875	0.00833333333333333	0	30	5.12916666666667	2	0.5419921875
4624.486328125	0.00833333333333333	0	-30	-5.97083333333333	1	0.697265625
4627.5439453125	0.00833333333333333	0	30	5.12916666666667	2	1.0078125
4631.02734375	0.00833333333333333	0	30	5.12916666666667	1	0.740234375
4634.177734375	0.00833333333333333	0	-30	-5.97083333333333	1	0.6787109375
4637.2197265625	0.00833333333333333	0	-30	-5.97083333333333	2	0.556640625
4640.3515625	0.00833333333333333	0	30	5.12916666666667	2	0.48046875
4643.1611328125	0.00833333333333333	0	30	5.12916666666667	2	0.599609375
4646.21875	0.00833333333333333	0	-30	-5.97083333333333	2	0.525390625
4649.3525390625	0.00833333333333333	0	30	5.12916666666667	2	0.6640625
4652.4111328125	0.00833333333333333	0	-30	-5.97083333333333	2	0.60546875
4655.52734375	0.00833333333333333	0	30	5.12916666666667	2	0.6494140625
4658.427734375	0.00833333333333333	0	30	5.12916666666667	2	0.8212890625
4661.7109375	0.00833333333333333	0	30	5.00416666666667	2	0.5302734375
4664.685546875	0.00833333333333333	0	-30	-5.97083333333333	1	0.66796875
4667.5185546875	0.00833333333333333	0	30	5.00416666666667	2	0.6982421875
