onset	duration	titr	surround	centre	response	rt
10.51953125	0.00833333333333333	1	-30	15	1	1.5068359375
14.1181640625	0.00833333333333333	1	NaN	15	2	0.548828125
16.703125	0.00833333333333333	1	30	-15	2	0.8037109375
20.0107421875	0.00833333333333333	1	30	15	2	0.599609375
23.162109375	0.00833333333333333	1	30	14	2	0.953125
26.2021484375	0.00833333333333333	1	NaN	-15	1	0.7685546875
29.1591796875	0.00833333333333333	1	-30	-15	1	0.9072265625
32.318359375	0.00833333333333333	1	30	13	2	1.4931640625
36.0009765625	0.00833333333333333	1	NaN	-14	1	0.73046875
39.2763671875	0.00833333333333333	1	NaN	-13	1	0.6552734375
42.4853515625	0.00833333333333333	1	30	12	2	0.91015625
45.7763671875	0.00833333333333333	1	30	-16	1	0.6591796875
48.78515625	0.00833333333333333	1	NaN	-12	1	0.666015625
51.509765625	0.00833333333333333	1	NaN	-11	1	0.92578125
54.501953125	0.00833333333333333	1	NaN	14	2	1.2451171875
58.04296875	0.00833333333333333	1	NaN	-10	1	29.42578125
90.0419921875	0.00833333333333333	1	NaN	13	2	0.70703125
92.91796875	0.00833333333333333	1	30	11	2	0.8544921875
96.458984375	0.00833333333333333	1	NaN	-9	1	0.75390625
99.451171875	0.00833333333333333	1	-30	-14	1	0.7861328125
102.7431640625	0.00833333333333333	1	30	10	2	2.150390625
107.05078125	0.00833333333333333	1	NaN	12	2	0.802734375
110.4833984375	0.00833333333333333	1	NaN	-8	1	0.75390625
113.7177734375	0.00833333333333333	1	30	-15	1	0.8798828125
117.1005859375	0.00833333333333333	1	NaN	11	2	0.8330078125
120.6669921875	0.00833333333333333	1	-30	16	2	1.2265625
124.216796875	0.00833333333333333	1	NaN	-7	1	0.796875
127.1171875	0.00833333333333333	1	-30	-13	1	1.1767578125
130.68359375	0.00833333333333333	1	NaN	10	2	0.5947265625
133.4833984375	0.00833333333333333	1	30	-14	1	1.1708984375
136.8583984375	0.00833333333333333	1	NaN	-6	1	0.5244140625
139.5341796875	0.00833333333333333	1	-30	15	2	0.9677734375
142.7578125	0.00833333333333333	1	NaN	9	2	0.80859375
146.1572265625	0.00833333333333333	1	NaN	8	2	0.697265625
149.125	0.00833333333333333	1	NaN	7	2	0.7373046875
151.9501953125	0.00833333333333333	1	NaN	-5	1	0.7919921875
155.1826171875	0.00833333333333333	1	30	9	2	0.919921875
158.55859375	0.00833333333333333	1	30	8	2	0.904296875
161.8916015625	0.00833333333333333	1	30	7	2	1.5234375
165.966796875	0.00833333333333333	1	30	-13	1	0.9599609375
169.3916015625	0.00833333333333333	1	-30	-12	1	0.767578125
172.5498046875	0.00833333333333333	1	-30	-11	1	0.77734375
175.7236328125	0.00833333333333333	1	-30	14	2	0.939453125
179.19921875	0.00833333333333333	1	-30	13	2	0.80078125
182.6318359375	0.00833333333333333	1	NaN	-4	1	0.888671875
185.908203125	0.00833333333333333	1	NaN	6	2	1.1240234375
189.423828125	0.00833333333333333	1	-30	12	2	0.9765625
192.69140625	0.00833333333333333	1	NaN	-3	2	0.845703125
195.8916015625	0.00833333333333333	1	NaN	5	2	0.7490234375
199.3740234375	0.00833333333333333	1	NaN	4	2	0.8505859375
202.5830078125	0.00833333333333333	1	30	-12	1	0.76171875
205.607421875	0.00833333333333333	1	-30	-10	1	0.9853515625
208.9912109375	0.00833333333333333	1	NaN	-4	1	0.681640625
211.8408203125	0.00833333333333333	1	NaN	3	1	0.7041015625
215.0244140625	0.00833333333333333	1	NaN	4	2	0.904296875
218.7412109375	0.00833333333333333	1	-30	11	2	0.7080078125
222.08203125	0.00833333333333333	1	-30	10	2	0.8154296875
225.19921875	0.00833333333333333	1	-30	-9	2	1.40234375
228.8076171875	0.00833333333333333	1	30	-11	1	0.77734375
231.95703125	0.00833333333333333	1	-30	-10	2	1.068359375
235.69921875	0.00833333333333333	1	30	6	1	0.662109375
238.5654296875	0.00833333333333333	1	-30	-11	1	1.1484375
242.0146484375	0.00833333333333333	1	NaN	-3	1	0.810546875
245.232421875	0.00833333333333333	1	30	7	1	0.6015625
248.2822265625	0.00833333333333333	1	-30	-10	1	0.9033203125
251.615234375	0.00833333333333333	1	-30	9	2	1.05078125
255.20703125	0.00833333333333333	1	NaN	3	2	0.8193359375
258.20703125	0.00833333333333333	1	NaN	-2	1	0.7548828125
261.4814453125	0.00833333333333333	1	NaN	2	1	0.6328125
264.2900390625	0.00833333333333333	1	-30	8	1	0.712890625
267.5146484375	0.00833333333333333	1	NaN	3	2	0.671875
270.53125	0.00833333333333333	1	NaN	2	2	0.8076171875
273.70703125	0.00833333333333333	1	-30	9	2	0.8076171875
276.865234375	0.00833333333333333	1	30	8	2	4.6015625
283.7236328125	0.00833333333333333	1	30	-10	1	0.5673828125
286.4228515625	0.00833333333333333	1	NaN	1	1	0.7958984375
289.58984375	0.00833333333333333	1	-30	8	2	0.8291015625
292.796875	0.00833333333333333	1	-30	-9	1	0.7265625
296.130859375	0.00833333333333333	1	30	-9	1	0.576171875
299.1650390625	0.00833333333333333	1	30	-8	1	0.654296875
302.0732421875	0.00833333333333333	1	NaN	-1	1	0.5380859375
304.6884765625	0.00833333333333333	1	NaN	0	1	3.8515625
337.388671875	0.00833333333333333	1	-30	-8	1	0.6962890625
340.2470703125	0.00833333333333333	1	30	-7	1	0.4775390625
343.0126953125	0.00833333333333333	1	-30	-7	2	1.14453125
346.49609375	0.00833333333333333	1	NaN	2	2	0.7646484375
349.5888671875	0.00833333333333333	1	NaN	1	2	1.0400390625
352.880859375	0.00833333333333333	1	-30	-8	1	0.8447265625
356.263671875	0.00833333333333333	1	30	7	2	2.0537109375
360.8134765625	0.00833333333333333	1	30	-6	1	1.65625
365.0390625	0.00833333333333333	1	NaN	0	1	1.3349609375
368.705078125	0.00833333333333333	1	-30	-7	1	0.796875
371.73828125	0.00833333333333333	1	-30	7	2	1.01171875
374.9384765625	0.00833333333333333	1	-30	-6	1	0.763671875
378.3134765625	0.00833333333333333	1	-30	-5	2	0.876953125
381.2880859375	0.00833333333333333	1	NaN	1	1	0.75
384.521484375	0.00833333333333333	1	-30	6	1	0.7490234375
387.388671875	0.00833333333333333	1	30	6	1	0.78515625
390.7548828125	0.00833333333333333	1	NaN	2	2	0.9873046875
394.0625	0.00833333333333333	1	-30	-6	1	0.84765625
397.138671875	0.00833333333333333	1	-30	-5	2	1.1484375
400.87109375	0.00833333333333333	1	30	-5	1	0.759765625
404.11328125	0.00833333333333333	1	30	-4	1	0.677734375
407.212890625	0.00833333333333333	1	NaN	1	1	0.90625
410.2880859375	0.00833333333333333	1	NaN	1	1	0.6708984375
413.5380859375	0.00833333333333333	1	NaN	2	1	0.845703125
416.720703125	0.00833333333333333	1	-30	-6	1	0.646484375
419.771484375	0.00833333333333333	1	30	-3	1	0.755859375
422.845703125	0.00833333333333333	1	30	7	1	0.5537109375
425.5126953125	0.00833333333333333	1	NaN	3	1	0.5751953125
428.236328125	0.00833333333333333	1	30	-2	1	1.1962890625
432.0126953125	0.00833333333333333	1	NaN	4	2	0.72265625
434.962890625	0.00833333333333333	1	-30	7	2	1.060546875
438.1796875	0.00833333333333333	1	-30	-5	2	0.9482421875
441.62109375	0.00833333333333333	1	30	8	2	1.962890625
445.7626953125	0.00833333333333333	1	-30	6	2	0.845703125
449.00390625	0.00833333333333333	1	NaN	3	1	0.6923828125
452.279296875	0.00833333333333333	1	NaN	4	1	0.8896484375
455.51953125	0.00833333333333333	1	30	7	2	1.2333984375
459.103515625	0.00833333333333333	1	30	-1	1	0.8017578125
462.037109375	0.00833333333333333	1	NaN	2	2	1.0595703125
465.63671875	0.00833333333333333	1	-30	5	2	0.828125
468.9375	0.00833333333333333	1	-30	-6	2	0.83984375
472.1455078125	0.00833333333333333	1	30	0	1	0.8076171875
475.287109375	0.00833333333333333	1	-30	-7	1	0.8017578125
478.6787109375	0.00833333333333333	1	NaN	5	2	0.787109375
481.9453125	0.00833333333333333	1	30	1	1	0.7685546875
485.2939453125	0.00833333333333333	1	-30	4	2	0.923828125
488.853515625	0.00833333333333333	1	NaN	4	2	0.763671875
492.02734375	0.00833333333333333	1	-30	3	2	1.1181640625
495.6787109375	0.00833333333333333	1	30	2	1	0.546875
498.669921875	0.00833333333333333	1	30	3	1	0.7158203125
501.6865234375	0.00833333333333333	1	-30	2	2	0.8671875
505.078125	0.00833333333333333	1	-30	1	2	1.251953125
508.5029296875	0.00833333333333333	1	-30	0	2	0.787109375
511.6103515625	0.00833333333333333	1	30	6	1	0.8564453125
515.01953125	0.00833333333333333	1	30	4	1	0.6474609375
518.1103515625	0.00833333333333333	1	-30	-1	2	0.9326171875
521.236328125	0.00833333333333333	1	30	5	2	0.7265625
524.552734375	0.00833333333333333	1	30	4	1	1.5859375
528.7109375	0.00833333333333333	1	-30	-2	1	1.1396484375
532.4033203125	0.00833333333333333	1	30	7	1	0.7841796875
535.5693359375	0.00833333333333333	1	-30	-1	2	1.9296875
539.8857421875	0.00833333333333333	1	-30	-2	2	1.3251953125
543.677734375	0.00833333333333333	1	30	5	1	0.7900390625
546.76953125	0.00833333333333333	1	-30	-3	1	1.76171875
550.7861328125	0.00833333333333333	1	30	8	2	2.3134765625
555.9111328125	0.00833333333333333	1	30	6	1	1.708984375
559.994140625	0.00833333333333333	1	-30	-2	2	1.9619140625
564.1357421875	0.00833333333333333	1	NaN	3	1	2.30859375
568.9609375	0.00833333333333333	1	30	7	1	0.9072265625
572.4609375	0.00833333333333333	1	30	7	1	1.0712890625
575.7607421875	0.00833333333333333	1	30	8	1	3.2998046875
581.6767578125	0.00833333333333333	1	30	8	1	0.6474609375
584.7021484375	0.00833333333333333	1	30	9	1	0.90234375
587.744140625	0.00833333333333333	1	30	10	2	1.0849609375
591.2685546875	0.00833333333333333	1	NaN	4	2	1.3525390625
594.84375	0.00833333333333333	1	-30	-3	2	4.2412109375
601.576171875	0.00833333333333333	1	30	9	2	1.052734375
604.9765625	0.00833333333333333	1	30	8	2	0.95703125
608.4599609375	0.00833333333333333	1	30	9	2	1.4501953125
612.318359375	0.00833333333333333	1	30	7	1	0.84765625
615.443359375	0.00833333333333333	1	30	8	1	0.658203125
618.5849609375	0.00833333333333333	1	NaN	3	2	0.6455078125
621.3759765625	0.00833333333333333	1	30	9	1	2.2138671875
625.6845703125	0.00833333333333333	1	30	10	1	0.9130859375
628.8017578125	0.00833333333333333	1	30	8	1	0.9404296875
632.359375	0.00833333333333333	1	-30	-4	2	1.2470703125
635.9091796875	0.00833333333333333	1	30	11	2	0.7607421875
705.474609375	0.00833333333333333	1	NaN	2	2	0.7822265625
708.6337890625	0.00833333333333333	1	NaN	1	2	0.6552734375
711.533203125	0.00833333333333333	1	NaN	0	2	0.6357421875
714.533203125	0.00833333333333333	1	30	9	2	0.755859375
717.765625	0.00833333333333333	1	30	8	2	0.7548828125
720.716796875	0.00833333333333333	1	NaN	-1	2	3.62890625
726.541015625	0.00833333333333333	1	-30	-5	2	1.251953125
730.1669921875	0.00833333333333333	1	-30	-6	2	1.6826171875
734.3916015625	0.00833333333333333	1	30	7	2	1.265625
737.7666015625	0.00833333333333333	1	NaN	-2	2	1.1796875
741.474609375	0.00833333333333333	1	30	6	2	0.9755859375
744.783203125	0.00833333333333333	1	-30	-7	2	1.0908203125
748.041015625	0.00833333333333333	1	-30	-8	2	1.2333984375
751.8076171875	0.00833333333333333	1	-30	-9	2	1.0908203125
755.0078125	0.00833333333333333	1	-30	-10	1	0.658203125
758.1748046875	0.00833333333333333	1	30	5	1	2.107421875
762.408203125	0.00833333333333333	1	30	6	2	1.0419921875
765.7578125	0.00833333333333333	1	30	5	1	1.1083984375
769.4580078125	0.00833333333333333	1	NaN	-3	1	0.681640625
772.4990234375	0.00833333333333333	1	30	6	1	2.16015625
777.1240234375	0.00833333333333333	1	30	7	1	2.599609375
781.9990234375	0.00833333333333333	1	30	8	2	1.259765625
785.7998046875	0.00833333333333333	1	30	7.91666666666667	1	1.203125
789.5322265625	0.00833333333333333	1	-30	-4.25	1	0.9111328125
792.81640625	0.00833333333333333	1	NaN	2.58333333333333	1	0.7548828125
796.0322265625	0.00833333333333333	1	NaN	2.70833333333333	1	0.7958984375
799.33203125	0.00833333333333333	1	30	8.04166666666667	1	0.7919921875
802.6572265625	0.00833333333333333	1	-30	-4.125	1	0.978515625
806.1572265625	0.00833333333333333	1	NaN	1.58333333333333	2	1.4794921875
810.048828125	0.00833333333333333	1	-30	-3.25	2	0.955078125
813.265625	0.00833333333333333	1	-30	-3.375	2	0.8505859375
816.4072265625	0.00833333333333333	1	30	8.16666666666667	2	0.94140625
819.6728515625	0.00833333333333333	1	NaN	2.83333333333333	2	0.8359375
822.8974609375	0.00833333333333333	1	-30	-3.5	2	0.9150390625
825.96484375	0.00833333333333333	1	-30	-4	2	4.3994140625
832.7734375	0.00833333333333333	1	-30	-4.125	2	0.9033203125
836.173828125	0.00833333333333333	1	NaN	2.70833333333333	2	0.6953125
838.9814453125	0.00833333333333333	1	-30	-3.625	2	0.6796875
842.0234375	0.00833333333333333	1	-30	-4.25	2	0.5986328125
845.1318359375	0.00833333333333333	1	NaN	2.58333333333333	2	0.5693359375
847.814453125	0.00833333333333333	1	30	6.91666666666667	2	0.6630859375
850.814453125	0.00833333333333333	1	-30	-4.375	2	0.6474609375
853.60546875	0.00833333333333333	1	-30	-3.75	2	0.6875
856.4150390625	0.00833333333333333	1	30	6.79166666666667	1	0.6787109375
859.34765625	0.00833333333333333	1	-30	-3.875	2	0.658203125
862.306640625	0.00833333333333333	1	NaN	2.45833333333333	2	0.8115234375
865.5986328125	0.00833333333333333	1	30	6.91666666666667	2	1.134765625
869.248046875	0.00833333333333333	1	30	8.04166666666667	2	0.9658203125
872.53125	0.00833333333333333	1	NaN	1.45833333333333	2	2.1630859375
877.248046875	0.00833333333333333	1	-30	-4	2	0.7666015625
880.15625	0.00833333333333333	1	NaN	2.33333333333333	2	0.8818359375
883.2724609375	0.00833333333333333	1	-30	-4.125	2	1.3740234375
887.1064453125	0.00833333333333333	1	30	6.79166666666667	1	0.740234375
889.9306640625	0.00833333333333333	1	30	6.91666666666667	1	0.7880859375
892.9814453125	0.00833333333333333	1	30	7.91666666666667	1	1.0009765625
896.1806640625	0.00833333333333333	1	30	7.04166666666667	1	2.203125
900.72265625	0.00833333333333333	1	-30	-4.25	2	1.9326171875
905.15625	0.00833333333333333	1	30	7.16666666666667	1	1.771484375
909.0888671875	0.00833333333333333	1	30	8.04166666666667	2	4.0224609375
915.23046875	0.00833333333333333	1	NaN	2.20833333333333	2	0.697265625
918.3876953125	0.00833333333333333	1	-30	-4.5	1	3.2275390625
923.7802734375	0.00833333333333333	1	30	7.29166666666667	2	0.9794921875
927.4130859375	0.00833333333333333	1	30	7.91666666666667	2	0.634765625
930.7138671875	0.00833333333333333	1	-30	-4.375	2	3.91015625
936.7890625	0.00833333333333333	1	NaN	2.08333333333333	2	0.9306640625
940.1220703125	0.00833333333333333	1	NaN	1.33333333333333	1	4.1826171875
946.572265625	0.00833333333333333	1	30	7.16666666666667	1	3.1240234375
952.021484375	0.00833333333333333	1	30	7.29166666666667	2	1.587890625
955.955078125	0.00833333333333333	1	30	7.16666666666667	2	1.6611328125
959.98828125	0.00833333333333333	1	30	7.04166666666667	2	0.9970703125
963.205078125	0.00833333333333333	1	-30	-4.375	1	4.2685546875
969.9462890625	0.00833333333333333	1	NaN	1.45833333333333	2	1.111328125
973.1220703125	0.00833333333333333	1	NaN	1.95833333333333	2	1.3115234375
976.6376953125	0.00833333333333333	1	30	6.91666666666667	2	1.7392578125
980.8212890625	0.00833333333333333	1	30	7.79166666666667	1	3.7724609375
987.1201171875	0.00833333333333333	1	NaN	1.83333333333333	2	0.73828125
989.9462890625	0.00833333333333333	1	30	7.91666666666667	2	0.84765625
993.2705078125	0.00833333333333333	1	-30	-4.25	2	0.7470703125
996.3955078125	0.00833333333333333	1	NaN	1.33333333333333	2	0.638671875
999.470703125	0.00833333333333333	1	30	6.79166666666667	1	1.9716796875
1004.0048828125	0.00833333333333333	1	-30	-4.375	1	0.7978515625
1044.0537109375	0.00833333333333333	1	-30	-4.25	2	0.853515625
1047.01953125	0.00833333333333333	1	30	6.91666666666667	2	0.7451171875
1050.1875	0.00833333333333333	1	30	6.79166666666667	2	0.6484375
1053.4541015625	0.00833333333333333	1	NaN	1.70833333333333	1	0.7978515625
1056.7041015625	0.00833333333333333	1	-30	-4.375	2	1.171875
1060.0869140625	0.00833333333333333	1	NaN	1.83333333333333	2	0.716796875
1063.044921875	0.00833333333333333	1	30	7.79166666666667	1	0.744140625
1066.2451171875	0.00833333333333333	1	30	7.91666666666667	1	0.767578125
1069.2705078125	0.00833333333333333	1	-30	-4.5	2	1.90234375
1073.4111328125	0.00833333333333333	1	NaN	1.70833333333333	2	0.849609375
1076.478515625	0.00833333333333333	1	NaN	1.20833333333333	1	0.7900390625
1079.8037109375	0.00833333333333333	1	30	6.66666666666667	1	2.865234375
1085.14453125	0.00833333333333333	1	30	6.79166666666667	2	2.076171875
1089.478515625	0.00833333333333333	1	30	8.04166666666667	2	0.9912109375
1093.01953125	0.00833333333333333	1	30	7.91666666666667	2	0.77734375
1096.3115234375	0.00833333333333333	1	30	7.79166666666667	2	0.8623046875
1099.76171875	0.00833333333333333	1	-30	-4.625	2	0.9560546875
1103.052734375	0.00833333333333333	1	NaN	1.33333333333333	2	3.1611328125
1108.5107421875	0.00833333333333333	1	NaN	1.58333333333333	2	1.1748046875
1112.2197265625	0.00833333333333333	1	-30	-4.5	2	0.673828125
1115.5107421875	0.00833333333333333	1	NaN	1.45833333333333	2	0.599609375
1118.2861328125	0.00833333333333333	1	30	6.66666666666667	2	0.984375
1121.736328125	0.00833333333333333	1	-30	-4.75	2	0.693359375
1124.66015625	0.00833333333333333	1	-30	-4.875	2	0.8740234375
1127.8193359375	0.00833333333333333	1	NaN	1.33333333333333	2	3.6513671875
1133.6025390625	0.00833333333333333	1	-30	-4.625	1	1.1484375
1136.935546875	0.00833333333333333	1	NaN	1.20833333333333	1	1.18359375
1140.41796875	0.00833333333333333	1	NaN	1.33333333333333	1	1.4443359375
1144.1611328125	0.00833333333333333	1	30	6.54166666666667	1	3.4853515625
1150.251953125	0.00833333333333333	1	NaN	1.45833333333333	1	0.802734375
1153.4443359375	0.00833333333333333	1	-30	-5	1	0.7705078125
1156.4189453125	0.00833333333333333	1	30	7.66666666666667	1	0.64453125
1159.376953125	0.00833333333333333	1	30	6.66666666666667	1	0.6220703125
1162.5849609375	0.00833333333333333	1	30	7.79166666666667	1	0.6787109375
1165.79296875	0.00833333333333333	1	NaN	1.58333333333333	1	0.7744140625
1169.0009765625	0.00833333333333333	1	-30	-4.5	2	1.3271484375
1172.619140625	0.00833333333333333	1	NaN	1.20833333333333	1	1.396484375
1176.384765625	0.00833333333333333	1	30	7.91666666666667	1	1.0634765625
1179.59375	0.00833333333333333	1	30	6.79166666666667	1	0.7421875
1182.810546875	0.00833333333333333	1	30	8.04166666666667	1	1.333984375
1186.79296875	0.00833333333333333	1	30	6.91666666666667	2	0.798828125
1189.8935546875	0.00833333333333333	1	30	6.79166666666667	1	1.8828125
1194.28515625	0.00833333333333333	1	-30	-4.875	1	1.0595703125
1197.7353515625	0.00833333333333333	1	NaN	1.70833333333333	2	1.193359375
1201.376953125	0.00833333333333333	1	30	6.91666666666667	2	1.0634765625
1204.79296875	0.00833333333333333	1	NaN	1.33333333333333	2	0.82421875
1207.9853515625	0.00833333333333333	1	30	8.16666666666667	1	1
1211.484375	0.00833333333333333	1	-30	-4.625	1	0.9248046875
1214.818359375	0.00833333333333333	1	-30	-4.75	1	1.0390625
1218.3427734375	0.00833333333333333	1	-30	-4.625	2	1.2109375
1222.16796875	0.00833333333333333	1	-30	-4.5	2	1.529296875
1226.1181640625	0.00833333333333333	1	NaN	1.58333333333333	1	2.3076171875
1230.634765625	0.00833333333333333	1	NaN	1.70833333333333	2	0.8466796875
1233.9765625	0.00833333333333333	1	-30	-4.625	2	0.9296875
1237.259765625	0.00833333333333333	1	NaN	1.58333333333333	2	0.6865234375
1240.392578125	0.00833333333333333	1	30	8.29166666666667	2	0.9375
1243.708984375	0.00833333333333333	1	30	6.79166666666667	2	0.5576171875
1246.5009765625	0.00833333333333333	1	30	8.16666666666667	1	0.9736328125
1250.0927734375	0.00833333333333333	1	30	8.29166666666667	1	0.7578125
1253.5009765625	0.00833333333333333	1	30	6.66666666666667	1	1.677734375
1257.458984375	0.00833333333333333	1	30	8.41666666666667	2	6.8076171875
1266.8505859375	0.00833333333333333	1	NaN	1.20833333333333	1	0.6884765625
1270.1826171875	0.00833333333333333	1	NaN	1.33333333333333	1	0.908203125
1273.4423828125	0.00833333333333333	1	NaN	1.45833333333333	1	2.1767578125
1278.2001953125	0.00833333333333333	1	NaN	1.45833333333333	2	1.603515625
1282.275390625	0.00833333333333333	1	NaN	1.58333333333333	2	0.736328125
1285.125	0.00833333333333333	1	30	8.29166666666667	2	1.0703125
1288.8173828125	0.00833333333333333	1	NaN	1.33333333333333	2	0.5859375
1292.0166015625	0.00833333333333333	1	30	8.16666666666667	2	0.69921875
1295.1416015625	0.00833333333333333	1	30	8.04166666666667	2	0.8779296875
1298.2998046875	0.00833333333333333	1	NaN	1.20833333333333	1	0.7919921875
1301.5751953125	0.00833333333333333	1	-30	-4.75	1	2.4052734375
1306.341796875	0.00833333333333333	1	-30	-4.625	1	1.1259765625
1310.0244140625	0.00833333333333333	1	-30	-4.75	1	4.00390625
1316.4912109375	0.00833333333333333	1	NaN	1.33333333333333	1	0.865234375
1319.94140625	0.00833333333333333	1	NaN	1.45833333333333	1	0.6552734375
1322.8251953125	0.00833333333333333	1	NaN	1.58333333333333	1	0.923828125
1326.25	0.00833333333333333	1	NaN	1.70833333333333	2	0.72265625
1329.2568359375	0.00833333333333333	1	-30	-4.5	1	6.1162109375
1337.783203125	0.00833333333333333	1	-30	-4.625	1	0.7421875
1340.8828125	0.00833333333333333	1	NaN	1.58333333333333	2	0.73046875
1379.265625	0.00833333333333333	1	-30	-4.375	2	0.9091796875
1382.45703125	0.00833333333333333	1	NaN	1.45833333333333	1	1.1416015625
1385.857421875	0.00833333333333333	1	-30	-4.5	2	0.7978515625
1388.83203125	0.00833333333333333	1	30	7.91666666666667	2	0.71875
1392.1318359375	0.00833333333333333	1	NaN	1.45833333333333	2	0.7470703125
1395.5068359375	0.00833333333333333	1	-30	-4.5	2	2.5166015625
1400.373046875	0.00833333333333333	1	NaN	1.58333333333333	1	0.76171875
1403.806640625	0.00833333333333333	1	NaN	1.70833333333333	1	6.2724609375
1412.306640625	0.00833333333333333	1	-30	-4.625	2	0.7646484375
1415.2822265625	0.00833333333333333	1	-30	-4.75	2	0.7177734375
1418.6484375	0.00833333333333333	1	NaN	1.33333333333333	1	0.6318359375
1421.4736328125	0.00833333333333333	1	-30	-4.875	1	0.7021484375
1424.373046875	0.00833333333333333	1	-30	-4.625	1	1.0908203125
1427.6982421875	0.00833333333333333	1	-30	-4.5	2	1.421875
1431.5068359375	0.00833333333333333	1	30	7.79166666666667	2	1.3896484375
1435.2900390625	0.00833333333333333	1	30	7.66666666666667	1	0.6787109375
1438.4482421875	0.00833333333333333	1	-30	-4.625	1	4.248046875
1444.98828125	0.00833333333333333	1	30	7.79166666666667	2	1.0361328125
1448.505859375	0.00833333333333333	1	30	7.66666666666667	1	0.7666015625
1451.755859375	0.00833333333333333	1	NaN	1.83333333333333	1	0.796875
1455.09765625	0.00833333333333333	1	-30	-4.5	2	0.791015625
1458.33984375	0.00833333333333333	1	NaN	1.95833333333333	2	0.7177734375
1461.255859375	0.00833333333333333	1	NaN	1.83333333333333	1	2.3056640625
1466.15625	0.00833333333333333	1	30	7.79166666666667	2	0.6455078125
1469.263671875	0.00833333333333333	1	NaN	1.95833333333333	1	0.7783203125
1472.564453125	0.00833333333333333	1	NaN	1.45833333333333	2	0.94140625
1476.0888671875	0.00833333333333333	1	-30	-4.75	1	0.720703125
1479.271484375	0.00833333333333333	1	NaN	2.08333333333333	1	0.71484375
1482.47265625	0.00833333333333333	1	-30	-4.625	1	3.2900390625
1488.1220703125	0.00833333333333333	1	NaN	1.33333333333333	1	3.3037109375
1494.0224609375	0.00833333333333333	1	NaN	1.45833333333333	1	0.587890625
1496.98828125	0.00833333333333333	1	-30	-4.625	1	0.58203125
1499.9052734375	0.00833333333333333	1	NaN	2.20833333333333	2	0.4970703125
1502.630859375	0.00833333333333333	1	NaN	2.08333333333333	2	0.5244140625
1505.671875	0.00833333333333333	1	NaN	1.95833333333333	2	0.5068359375
1508.4716796875	0.00833333333333333	1	NaN	1.83333333333333	2	7.9951171875
1518.6376953125	0.00833333333333333	1	-30	-4.5	1	5.853515625
1527.10546875	0.00833333333333333	1	NaN	1.58333333333333	2	1.9541015625
1531.455078125	0.00833333333333333	1	-30	-4.5	1	0.572265625
1534.4384765625	0.00833333333333333	1	-30	-4.375	2	0.5888671875
1537.2548828125	0.00833333333333333	1	-30	-4.5	1	0.6767578125
1540.513671875	0.00833333333333333	1	NaN	1.70833333333333	2	0.978515625
1543.7880859375	0.00833333333333333	1	-30	-4.375	2	1.671875
1547.6298828125	0.00833333333333333	1	NaN	1.58333333333333	2	0.4384765625
1550.3203125	0.00833333333333333	1	-30	-4.5	2	0.7001953125
1553.662109375	0.00833333333333333	1	-30	-4.625	2	0.56640625
1556.6044921875	0.00833333333333333	1	NaN	1.45833333333333	1	1.919921875
1560.99609375	0.00833333333333333	1	-30	-4.75	2	0.576171875
1564.205078125	0.00833333333333333	1	-30	-4.375	2	0.85546875
1567.5625	0.00833333333333333	1	-30	-4.5	2	0.5625
1570.3125	0.00833333333333333	1	NaN	1.58333333333333	2	0.7158203125
1573.2958984375	0.00833333333333333	1	-30	-4.625	2	0.5888671875
1576.1298828125	0.00833333333333333	1	-30	-4.75	2	0.70703125
1579.1962890625	0.00833333333333333	1	-30	-4.875	2	1.2890625
1582.779296875	0.00833333333333333	1	-30	-5	1	4.169921875
1589.078125	0.00833333333333333	1	-30	-4.875	2	0.6474609375
1592.0712890625	0.00833333333333333	1	-30	-5	1	0.7666015625
1595.3544921875	0.00833333333333333	1	-30	-4.875	2	0.7548828125
1598.26171875	0.00833333333333333	1	NaN	1.45833333333333	2	0.7119140625
1601.279296875	0.00833333333333333	1	NaN	1.33333333333333	2	0.58203125
1604.4462890625	0.00833333333333333	1	-30	-4.875	2	5.5673828125
1612.5869140625	0.00833333333333333	1	-30	-5	2	3.947265625
1619.01953125	0.00833333333333333	1	-30	-5.125	1	2.4990234375
1624.1357421875	0.00833333333333333	1	NaN	1.20833333333333	2	0.646484375
1627.287109375	0.00833333333333333	1	NaN	1.08333333333333	2	0.6396484375
1630.1953125	0.00833333333333333	1	NaN	0.958333333333333	2	0.5390625
1632.9873046875	0.00833333333333333	1	NaN	0.833333333333333	2	0.4912109375
1636.044921875	0.00833333333333333	1	NaN	0.708333333333333	2	1.4658203125
1639.9619140625	0.00833333333333333	1	NaN	0.583333333333333	2	0.7412109375
1643.2197265625	0.00833333333333333	1	NaN	0.458333333333333	1	1.8994140625
1647.3115234375	0.00833333333333333	0	-30	-4.65	2	0.984375
1650.478515625	0.00833333333333333	0	30	7.37916666666667	2	1.033203125
1653.728515625	0.00833333333333333	0	-30	-4.65	1	0.8310546875
1656.6953125	0.00833333333333333	0	30	7.37916666666667	1	0.7919921875
1660.0380859375	0.00833333333333333	0	30	7.37916666666667	2	1.1865234375
1663.6279296875	0.00833333333333333	0	30	7.37916666666667	1	0.8681640625
1667.0029296875	0.00833333333333333	0	-30	-4.65	1	1.005859375
1670.3935546875	0.00833333333333333	0	-30	-4.65	2	0.7666015625
1673.7861328125	0.00833333333333333	0	-30	-4.65	2	3.4140625
1679.736328125	0.00833333333333333	0	30	7.37916666666667	2	0.736328125
1682.9765625	0.00833333333333333	0	-30	-4.65	1	0.912109375
1686.1279296875	0.00833333333333333	0	30	7.37916666666667	2	0.82421875
1689.2529296875	0.00833333333333333	0	30	7.37916666666667	1	0.6435546875
1692.494140625	0.00833333333333333	0	30	7.37916666666667	1	0.72265625
1695.66796875	0.00833333333333333	0	-30	-4.65	1	0.724609375
1698.8447265625	0.00833333333333333	0	-30	-4.65	1	0.740234375
1701.8193359375	0.00833333333333333	0	30	7.37916666666667	1	0.677734375
1704.9189453125	0.00833333333333333	0	30	7.37916666666667	1	0.650390625
1707.8857421875	0.00833333333333333	0	30	7.37916666666667	2	0.8515625
1711.2109375	0.00833333333333333	0	30	7.37916666666667	1	0.75
1714.4443359375	0.00833333333333333	0	-30	-4.65	1	0.78125
1717.4013671875	0.00833333333333333	0	30	7.37916666666667	1	1.1279296875
1720.7685546875	0.00833333333333333	0	-30	-4.65	2	0.5771484375
1723.876953125	0.00833333333333333	0	30	7.37916666666667	1	0.6611328125
1726.8271484375	0.00833333333333333	0	30	7.37916666666667	1	0.806640625
1729.8271484375	0.00833333333333333	0	-30	-4.65	1	0.6787109375
1733.119140625	0.00833333333333333	0	-30	-4.65	1	0.626953125
1735.943359375	0.00833333333333333	0	-30	-4.65	1	0.6669921875
1738.77734375	0.00833333333333333	0	-30	-4.65	1	0.720703125
1742.0185546875	0.00833333333333333	0	-30	-4.65	2	0.86328125
1745.21875	0.00833333333333333	0	30	7.37916666666667	2	0.615234375
1748.4599609375	0.00833333333333333	0	30	7.37916666666667	2	0.9423828125
1751.9931640625	0.00833333333333333	0	-30	-4.65	2	1.5771484375
1756.0185546875	0.00833333333333333	0	-30	-4.65	2	0.7919921875
1759.3017578125	0.00833333333333333	0	-30	-4.65	2	0.6689453125
1762.54296875	0.00833333333333333	0	-30	-4.65	2	0.587890625
1765.4755859375	0.00833333333333333	0	30	7.37916666666667	1	0.671875
1768.7431640625	0.00833333333333333	0	30	7.37916666666667	2	0.8837890625
1772.16015625	0.00833333333333333	0	30	7.37916666666667	1	0.787109375
1775.4345703125	0.00833333333333333	0	30	7.37916666666667	1	0.7373046875
1778.7431640625	0.00833333333333333	0	30	7.37916666666667	1	5.8447265625
1786.818359375	0.00833333333333333	0	-30	-4.775	1	0.77734375
1789.8095703125	0.00833333333333333	0	-30	-4.775	2	1.322265625
1793.392578125	0.00833333333333333	0	-30	-4.775	2	0.69921875
1796.4765625	0.00833333333333333	0	-30	-4.775	2	0.6318359375
1799.5087890625	0.00833333333333333	0	-30	-4.775	2	0.6396484375
1802.80078125	0.00833333333333333	0	30	7.37916666666667	1	0.587890625
1805.833984375	0.00833333333333333	0	30	7.37916666666667	2	2.25
1810.509765625	0.00833333333333333	0	-30	-4.775	2	0.9345703125
1814.009765625	0.00833333333333333	0	-30	-4.9	2	0.7705078125
1817.2177734375	0.00833333333333333	0	30	7.37916666666667	2	1.130859375
1820.984375	0.00833333333333333	0	-30	-4.9	2	0.95703125
1824.208984375	0.00833333333333333	0	30	7.37916666666667	2	0.6201171875
1827.517578125	0.00833333333333333	0	30	7.37916666666667	2	1.015625
1831.208984375	0.00833333333333333	0	30	7.37916666666667	1	0.8203125
1834.3251953125	0.00833333333333333	0	-30	-4.9	1	0.912109375
1837.8173828125	0.00833333333333333	0	-30	-4.9	1	0.7724609375
1841.0673828125	0.00833333333333333	0	-30	-4.9	1	6.3544921875
1849.6923828125	0.00833333333333333	0	30	7.37916666666667	1	1.033203125
1853.1083984375	0.00833333333333333	0	-30	-4.9	1	0.697265625
1856.0751953125	0.00833333333333333	0	-30	-4.9	1	0.626953125
1859.19140625	0.00833333333333333	0	30	7.37916666666667	2	0.982421875
1862.6162109375	0.00833333333333333	0	30	7.37916666666667	1	0.94140625
1866.05859375	0.00833333333333333	0	30	7.37916666666667	2	0.7236328125
1869.4072265625	0.00833333333333333	0	30	7.37916666666667	1	0.7109375
1872.357421875	0.00833333333333333	0	30	7.37916666666667	1	0.9853515625
1875.9833984375	0.00833333333333333	0	30	7.37916666666667	1	0.6630859375
1878.8662109375	0.00833333333333333	0	30	7.37916666666667	1	0.9404296875
1882.158203125	0.00833333333333333	0	-30	-4.775	1	0.80859375
1885.357421875	0.00833333333333333	0	-30	-4.775	2	1.5546875
1889.283203125	0.00833333333333333	0	-30	-4.775	2	2.01953125
1893.9072265625	0.00833333333333333	0	-30	-4.775	1	0.6923828125
1896.841796875	0.00833333333333333	0	-30	-4.775	2	0.6533203125
1900.0751953125	0.00833333333333333	0	30	7.37916666666667	1	0.5166015625
1903.0322265625	0.00833333333333333	0	30	7.50416666666667	2	3.7197265625
1909.2744140625	0.00833333333333333	0	-30	-4.775	2	0.7490234375
1912.3828125	0.00833333333333333	0	-30	-4.775	2	0.7451171875
1915.5576171875	0.00833333333333333	0	30	7.50416666666667	1	2.40234375
1920.4326171875	0.00833333333333333	0	30	7.50416666666667	2	0.7109375
1923.533203125	0.00833333333333333	0	-30	-4.775	2	4.35546875
2020.22265625	0.00833333333333333	0	-30	-4.775	1	1.140625
2023.5888671875	0.00833333333333333	0	30	7.50416666666667	2	0.798828125
2026.439453125	0.00833333333333333	0	-30	-4.775	2	0.755859375
2029.2900390625	0.00833333333333333	0	-30	-4.775	2	0.7294921875
2032.5888671875	0.00833333333333333	0	-30	-4.775	2	0.638671875
2035.8232421875	0.00833333333333333	0	30	7.50416666666667	2	0.9560546875
2038.98046875	0.00833333333333333	0	-30	-4.775	2	0.6953125
2042.2314453125	0.00833333333333333	0	30	7.50416666666667	2	0.5966796875
2045.380859375	0.00833333333333333	0	-30	-4.775	2	0.6396484375
2048.498046875	0.00833333333333333	0	-30	-4.9	2	0.7060546875
2051.880859375	0.00833333333333333	0	30	7.50416666666667	2	0.6357421875
2054.7978515625	0.00833333333333333	0	-30	-4.9	2	0.798828125
2057.9970703125	0.00833333333333333	0	-30	-4.9	2	0.7275390625
2061.1806640625	0.00833333333333333	0	-30	-4.9	2	0.7998046875
2064.380859375	0.00833333333333333	0	30	7.37916666666667	2	1.82421875
2068.98046875	0.00833333333333333	0	-30	-4.9	2	2.0244140625
2073.4892578125	0.00833333333333333	0	30	7.37916666666667	2	1.083984375
2077.23046875	0.00833333333333333	0	-30	-5.025	2	1.0068359375
2080.755859375	0.00833333333333333	0	30	7.37916666666667	2	0.873046875
2084.23828125	0.00833333333333333	0	-30	-5.025	2	0.9033203125
2087.822265625	0.00833333333333333	0	-30	-5.025	2	1.423828125
2091.9130859375	0.00833333333333333	0	30	7.37916666666667	2	2.0927734375
2096.5556640625	0.00833333333333333	0	-30	-5.025	2	0.6982421875
2099.7802734375	0.00833333333333333	0	-30	-5.025	2	0.59375
2103.080078125	0.00833333333333333	0	30	7.37916666666667	2	0.6943359375
2106.220703125	0.00833333333333333	0	30	7.25416666666667	2	1.345703125
2109.99609375	0.00833333333333333	0	-30	-5.15	2	3.0107421875
2115.1796875	0.00833333333333333	0	-30	-5.15	2	1.1865234375
2118.8544921875	0.00833333333333333	0	-30	-5.15	2	4.2880859375
2125.771484375	0.00833333333333333	0	-30	-5.15	2	3.4189453125
2131.462890625	0.00833333333333333	0	30	7.25416666666667	2	0.9521484375
2134.9970703125	0.00833333333333333	0	30	7.25416666666667	2	2.09765625
2139.337890625	0.00833333333333333	0	-30	-5.15	2	0.8212890625
2142.8046875	0.00833333333333333	0	-30	-5.275	2	2.5791015625
2147.6708984375	0.00833333333333333	0	-30	-5.275	2	1.0810546875
2151.1455078125	0.00833333333333333	0	-30	-5.275	2	1.4384765625
2155.154296875	0.00833333333333333	0	30	7.25416666666667	2	2.0703125
2159.8544921875	0.00833333333333333	0	-30	-5.275	2	1.521484375
2163.603515625	0.00833333333333333	0	30	7.25416666666667	2	3.5087890625
2169.6953125	0.00833333333333333	0	30	7.12916666666667	2	1.1611328125
2173.49609375	0.00833333333333333	0	30	7.12916666666667	2	2
2177.99609375	0.00833333333333333	0	-30	-5.275	2	1.4365234375
2182.0126953125	0.00833333333333333	0	30	7.12916666666667	2	1.1162109375
2185.75390625	0.00833333333333333	0	30	7.12916666666667	2	1.2470703125
2189.4873046875	0.00833333333333333	0	-30	-5.4	1	1.0810546875
2192.8125	0.00833333333333333	0	-30	-5.4	2	0.828125
2195.919921875	0.00833333333333333	0	-30	-5.4	2	0.8095703125
2198.9287109375	0.00833333333333333	0	30	7.12916666666667	2	0.8564453125
2202.037109375	0.00833333333333333	0	-30	-5.4	2	1.748046875
2206.2119140625	0.00833333333333333	0	-30	-5.4	2	6.75
2215.3037109375	0.00833333333333333	0	-30	-5.4	2	0.8662109375
2218.419921875	0.00833333333333333	0	-30	-5.525	2	0.9892578125
2221.7353515625	0.00833333333333333	0	30	7.00416666666667	2	0.810546875
2224.8955078125	0.00833333333333333	0	30	7.00416666666667	2	0.818359375
2228.3369140625	0.00833333333333333	0	-30	-5.525	2	2.3212890625
2233.1953125	0.00833333333333333	0	30	7.00416666666667	2	1.2392578125
2236.6533203125	0.00833333333333333	0	-30	-5.525	2	0.6845703125
2239.494140625	0.00833333333333333	0	30	7.00416666666667	2	1.4443359375
2243.111328125	0.00833333333333333	0	30	7.00416666666667	2	0.9873046875
2246.26953125	0.00833333333333333	0	-30	-5.525	2	0.9736328125
2249.7529296875	0.00833333333333333	0	-30	-5.525	2	0.77734375
2252.703125	0.00833333333333333	0	30	6.87916666666667	2	0.748046875
2255.7197265625	0.00833333333333333	0	-30	-5.65	2	1.8193359375
2260.02734375	0.00833333333333333	0	30	6.87916666666667	2	1.0234375
2263.4775390625	0.00833333333333333	0	-30	-5.65	2	1.4306640625
2267.4775390625	0.00833333333333333	0	-30	-5.65	2	1.2060546875
2271.26953125	0.00833333333333333	0	-30	-5.65	2	0.9736328125
2274.677734375	0.00833333333333333	0	30	6.87916666666667	2	0.91015625
2278.0107421875	0.00833333333333333	0	30	6.87916666666667	2	2.953125
2283.5859375	0.00833333333333333	0	30	6.87916666666667	2	0.9697265625
2287.1357421875	0.00833333333333333	0	-30	-5.65	2	0.908203125
2290.6435546875	0.00833333333333333	0	-30	-5.775	2	1.6962890625
2294.626953125	0.00833333333333333	0	-30	-5.775	1	3.0654296875
2300.0263671875	0.00833333333333333	0	-30	-5.775	2	1.017578125
2303.2685546875	0.00833333333333333	0	30	6.75416666666667	2	0.8798828125
2306.66015625	0.00833333333333333	0	-30	-5.775	2	0.712890625
2309.6689453125	0.00833333333333333	0	30	6.75416666666667	2	0.919921875
2312.8271484375	0.00833333333333333	0	30	6.75416666666667	2	4.361328125
2319.5771484375	0.00833333333333333	0	30	6.75416666666667	2	7.740234375
2329.7021484375	0.00833333333333333	0	30	6.75416666666667	1	0.84765625
2356.3837890625	0.00833333333333333	0	-30	-5.775	1	1.943359375
2360.892578125	0.00833333333333333	0	30	6.75416666666667	2	0.9375
2364.4677734375	0.00833333333333333	0	-30	-5.775	2	0.970703125
2368.068359375	0.00833333333333333	0	-30	-5.775	2	0.8984375
2371.4345703125	0.00833333333333333	0	-30	-5.775	2	0.99609375
2374.67578125	0.00833333333333333	0	-30	-5.775	2	0.6669921875
2377.7763671875	0.00833333333333333	0	30	6.75416666666667	2	0.6787109375
2380.9423828125	0.00833333333333333	0	-30	-5.775	2	0.720703125
2384.2421875	0.00833333333333333	0	30	6.75416666666667	2	0.94921875
2387.80078125	0.00833333333333333	0	30	6.75416666666667	2	0.662109375
2390.6923828125	0.00833333333333333	0	-30	-5.9	2	0.5791015625
2393.7177734375	0.00833333333333333	0	-30	-5.9	2	0.6171875
2396.8583984375	0.00833333333333333	0	-30	-5.9	2	0.6611328125
2400.1669921875	0.00833333333333333	0	-30	-5.9	2	1.0810546875
2403.5	0.00833333333333333	0	30	6.75416666666667	2	0.7880859375
2406.93359375	0.00833333333333333	0	-30	-5.9	2	1.001953125
2410.30859375	0.00833333333333333	0	30	6.62916666666667	2	1.3232421875
2414.025390625	0.00833333333333333	0	-30	-6.025	2	0.6708984375
2417.1337890625	0.00833333333333333	0	30	6.62916666666667	2	0.666015625
2420.466796875	0.00833333333333333	0	-30	-6.025	2	0.6376953125
2423.6494140625	0.00833333333333333	0	-30	-6.025	2	0.5986328125
2426.75	0.00833333333333333	0	-30	-6.025	2	0.619140625
2430	0.00833333333333333	0	30	6.62916666666667	2	0.9443359375
2433.5	0.00833333333333333	0	-30	-6.025	2	0.8447265625
2437.05859375	0.00833333333333333	0	30	6.62916666666667	2	0.90234375
2440.208984375	0.00833333333333333	0	-30	-6.15	1	1.1357421875
2443.5	0.00833333333333333	0	30	6.62916666666667	2	0.8212890625
2446.625	0.00833333333333333	0	-30	-6.15	2	1.015625
2450.3251953125	0.00833333333333333	0	-30	-6.15	2	0.732421875
2453.4248046875	0.00833333333333333	0	30	6.50416666666667	2	0.712890625
2456.466796875	0.00833333333333333	0	30	6.50416666666667	2	0.7666015625
2459.650390625	0.00833333333333333	0	-30	-6.15	2	0.5830078125
2462.6416015625	0.00833333333333333	0	-30	-6.15	2	0.6162109375
2465.8984375	0.00833333333333333	0	30	6.50416666666667	2	0.783203125
2469.1494140625	0.00833333333333333	0	30	6.50416666666667	2	2.2685546875
2473.69140625	0.00833333333333333	0	30	6.50416666666667	1	1.5908203125
2477.7412109375	0.00833333333333333	0	-30	-6.15	1	1.29296875
2481.283203125	0.00833333333333333	0	30	6.50416666666667	1	0.798828125
2484.533203125	0.00833333333333333	0	-30	-6.15	1	0.7412109375
2487.8408203125	0.00833333333333333	0	-30	-6.15	1	0.681640625
2490.798828125	0.00833333333333333	0	-30	-6.15	1	1.02734375
2494.3486328125	0.00833333333333333	0	-30	-6.15	1	0.7744140625
2497.607421875	0.00833333333333333	0	30	6.50416666666667	1	0.5390625
2500.4326171875	0.00833333333333333	0	-30	-6.025	1	0.7060546875
2503.6826171875	0.00833333333333333	0	30	6.50416666666667	1	0.640625
2506.7822265625	0.00833333333333333	0	30	6.50416666666667	1	0.63671875
2509.6904296875	0.00833333333333333	0	-30	-6.025	1	0.6162109375
2512.615234375	0.00833333333333333	0	-30	-6.025	1	0.66796875
2515.939453125	0.00833333333333333	0	-30	-6.025	1	1.3525390625
2519.732421875	0.00833333333333333	0	30	6.62916666666667	2	1.3671875
2523.3076171875	0.00833333333333333	0	30	6.62916666666667	2	0.83203125
2526.5654296875	0.00833333333333333	0	30	6.62916666666667	2	0.814453125
2529.9072265625	0.00833333333333333	0	-30	-6.025	2	1.0966796875
2533.1728515625	0.00833333333333333	0	-30	-6.025	2	1.111328125
2536.6318359375	0.00833333333333333	0	-30	-6.025	2	1.220703125
2540.298828125	0.00833333333333333	0	-30	-6.025	2	0.712890625
2543.673828125	0.00833333333333333	0	-30	-6.025	2	0.7626953125
2546.7568359375	0.00833333333333333	0	-30	-6.15	2	0.8232421875
2550.0224609375	0.00833333333333333	0	30	6.62916666666667	2	0.8857421875
2553.556640625	0.00833333333333333	0	30	6.62916666666667	2	0.8720703125
2556.8984375	0.00833333333333333	0	30	6.50416666666667	2	0.74609375
2559.9404296875	0.00833333333333333	0	-30	-6.15	2	0.896484375
2563.265625	0.00833333333333333	0	30	6.50416666666667	2	0.8515625
2566.6484375	0.00833333333333333	0	30	6.50416666666667	2	0.7646484375
2570.08203125	0.00833333333333333	0	30	6.50416666666667	2	0.72265625
2573.2734375	0.00833333333333333	0	-30	-6.15	2	0.9794921875
2576.9150390625	0.00833333333333333	0	-30	-6.15	2	0.9619140625
2580.3984375	0.00833333333333333	0	-30	-6.15	1	0.7353515625
2583.5810546875	0.00833333333333333	0	-30	-6.15	2	0.728515625
2586.7060546875	0.00833333333333333	0	-30	-6.15	2	3.771484375
2593.08984375	0.00833333333333333	0	30	6.50416666666667	2	2.84375
2598.3564453125	0.00833333333333333	0	30	6.37916666666667	2	6.2333984375
2607.1064453125	0.00833333333333333	0	30	6.37916666666667	2	0.5634765625
2609.9560546875	0.00833333333333333	0	-30	-6.15	1	0.5302734375
2612.8974609375	0.00833333333333333	0	30	6.37916666666667	1	0.5888671875
2615.7890625	0.00833333333333333	0	-30	-6.15	1	0.4814453125
2618.7392578125	0.00833333333333333	0	30	6.37916666666667	1	0.4833984375
2621.6396484375	0.00833333333333333	0	30	6.37916666666667	1	0.607421875
2624.48046875	0.00833333333333333	0	-30	-6.15	1	0.5185546875
2627.3720703125	0.00833333333333333	0	-30	-6.15	1	0.474609375
2646.3310546875	0.00833333333333333	0	30	6.37916666666667	2	0.828125
2649.421875	0.00833333333333333	0	-30	-6.15	2	0.76171875
2652.4296875	0.00833333333333333	0	30	6.37916666666667	2	0.9619140625
2655.9384765625	0.00833333333333333	0	30	6.37916666666667	2	0.90234375
2659.421875	0.00833333333333333	0	-30	-6.15	2	0.7705078125
2662.4384765625	0.00833333333333333	0	30	6.37916666666667	2	1.6015625
2666.455078125	0.00833333333333333	0	30	6.37916666666667	2	1.2333984375
2670.0302734375	0.00833333333333333	0	-30	-6.15	2	0.7783203125
2673.3212890625	0.00833333333333333	0	30	6.25416666666667	2	0.7275390625
2676.3037109375	0.00833333333333333	0	-30	-6.15	2	1.7763671875
2680.5546875	0.00833333333333333	0	30	6.25416666666667	2	1.318359375
2684.25390625	0.00833333333333333	0	30	6.25416666666667	2	1.0986328125
2687.8798828125	0.00833333333333333	0	30	6.25416666666667	2	1.13671875
2691.330078125	0.00833333333333333	0	30	6.25416666666667	2	0.7666015625
2694.4462890625	0.00833333333333333	0	30	6.12916666666667	2	0.8505859375
2697.62109375	0.00833333333333333	0	-30	-6.15	2	0.8125
2701.00390625	0.00833333333333333	0	-30	-6.275	2	0.845703125
2704.080078125	0.00833333333333333	0	-30	-6.275	1	0.6494140625
2707.0625	0.00833333333333333	0	-30	-6.275	1	0.5947265625
2710.23828125	0.00833333333333333	0	-30	-6.275	1	0.859375
2713.705078125	0.00833333333333333	0	30	6.12916666666667	1	0.705078125
2716.896484375	0.00833333333333333	0	-30	-6.275	1	2.41015625
2721.7041015625	0.00833333333333333	0	-30	-6.275	2	1.08984375
2725.4541015625	0.00833333333333333	0	-30	-6.275	1	0.8837890625
2728.845703125	0.00833333333333333	0	-30	-6.275	1	0.5244140625
2731.62890625	0.00833333333333333	0	30	6.12916666666667	1	0.708984375
2734.9208984375	0.00833333333333333	0	-30	-6.275	1	0.6015625
2737.953125	0.00833333333333333	0	-30	-6.275	1	2.3134765625
2742.904296875	0.00833333333333333	0	30	6.12916666666667	1	0.6748046875
2745.9794921875	0.00833333333333333	0	30	6.12916666666667	1	0.607421875
2749.095703125	0.00833333333333333	0	-30	-6.275	1	0.587890625
2752.3623046875	0.00833333333333333	0	-30	-6.15	1	0.625
2755.26953125	0.00833333333333333	0	-30	-6.15	1	0.4697265625
2758.4375	0.00833333333333333	0	-30	-6.15	1	0.58203125
2761.4619140625	0.00833333333333333	0	30	6.12916666666667	1	7.1337890625
2770.9951171875	0.00833333333333333	0	30	6.25416666666667	1	1.1845703125
2774.5029296875	0.00833333333333333	0	-30	-6.15	2	0.7568359375
2777.6865234375	0.00833333333333333	0	30	6.25416666666667	2	0.6611328125
2780.6123046875	0.00833333333333333	0	30	6.25416666666667	2	0.6796875
2783.9453125	0.00833333333333333	0	30	6.25416666666667	2	0.71484375
2786.9951171875	0.00833333333333333	0	30	6.25416666666667	1	0.8408203125
2790.203125	0.00833333333333333	0	-30	-6.15	1	0.96875
2793.611328125	0.00833333333333333	0	-30	-6.15	1	8.025390625
2804.078125	0.00833333333333333	0	30	6.25416666666667	2	0.5263671875
2807.2451171875	0.00833333333333333	0	-30	-6.15	1	0.7841796875
2810.2197265625	0.00833333333333333	0	-30	-6.15	2	0.537109375
2813.0029296875	0.00833333333333333	0	30	6.25416666666667	2	2.41796875
2817.578125	0.00833333333333333	0	30	6.25416666666667	2	0.5791015625
2820.5859375	0.00833333333333333	0	30	6.25416666666667	2	0.595703125
2823.7275390625	0.00833333333333333	0	30	6.25416666666667	2	0.58984375
2826.59375	0.00833333333333333	0	30	6.12916666666667	2	0.515625
2829.419921875	0.00833333333333333	0	30	6.12916666666667	2	0.4736328125
2832.0859375	0.00833333333333333	0	30	6.12916666666667	2	0.3916015625
2834.8447265625	0.00833333333333333	0	30	6.12916666666667	2	0.4169921875
2837.59375	0.00833333333333333	0	-30	-6.15	2	2.9638671875
2843.0029296875	0.00833333333333333	0	-30	-6.15	2	6.5556640625
2851.7275390625	0.00833333333333333	0	-30	-6.15	1	0.6865234375
2854.66796875	0.00833333333333333	0	30	6.12916666666667	1	0.5302734375
2857.8271484375	0.00833333333333333	0	-30	-6.15	1	0.595703125
2860.5693359375	0.00833333333333333	0	30	6.12916666666667	1	0.59765625
2863.2861328125	0.00833333333333333	0	-30	-6.15	1	0.560546875
2866.435546875	0.00833333333333333	0	-30	-6.15	1	0.6669921875
2869.3525390625	0.00833333333333333	0	-30	-6.15	1	1.966796875
2873.6767578125	0.00833333333333333	0	30	6.12916666666667	2	1.1298828125
2877.068359375	0.00833333333333333	0	30	6.12916666666667	2	0.7783203125
2880.251953125	0.00833333333333333	0	30	6.12916666666667	2	0.8427734375
2883.30078125	0.00833333333333333	0	30	6.12916666666667	1	1.4189453125
2886.91796875	0.00833333333333333	0	30	6.12916666666667	2	0.705078125
2890.03515625	0.00833333333333333	0	30	6.12916666666667	2	0.8525390625
2893.0849609375	0.00833333333333333	0	30	6.12916666666667	2	0.970703125
2896.6435546875	0.00833333333333333	0	-30	-6.025	2	0.5810546875
2899.384765625	0.00833333333333333	0	-30	-6.025	2	0.6865234375
2902.3349609375	0.00833333333333333	0	30	6.12916666666667	2	1.2724609375
2906.134765625	0.00833333333333333	0	30	6.12916666666667	2	1.77734375
2910.16015625	0.00833333333333333	0	30	6.00416666666667	2	0.5439453125
2913.16015625	0.00833333333333333	0	-30	-6.025	2	0.591796875
2916.0263671875	0.00833333333333333	0	-30	-6.025	2	0.5341796875
2918.8017578125	0.00833333333333333	0	-30	-6.025	1	1.0302734375
2921.9921875	0.00833333333333333	0	30	6.00416666666667	1	0.8798828125
2925.1015625	0.00833333333333333	0	30	6.00416666666667	1	0.5546875
2948.30078125	0.00833333333333333	0	30	6.00416666666667	2	0.6044921875
2951.1259765625	0.00833333333333333	0	30	6.00416666666667	1	0.9150390625
2954.267578125	0.00833333333333333	0	30	6.00416666666667	2	0.57421875
2957.2841796875	0.00833333333333333	0	-30	-6.025	1	0.9658203125
2960.3095703125	0.00833333333333333	0	30	6.00416666666667	2	0.7001953125
2963.16796875	0.00833333333333333	0	30	6.00416666666667	2	0.6015625
2966.16796875	0.00833333333333333	0	-30	-6.025	1	0.578125
2969.0595703125	0.00833333333333333	0	-30	-6.025	2	0.7099609375
2972.2841796875	0.00833333333333333	0	30	6.00416666666667	1	1.5576171875
2976.0576171875	0.00833333333333333	0	-30	-6.025	1	0.9130859375
2979.1923828125	0.00833333333333333	0	30	6.00416666666667	2	0.40234375
2982.1416015625	0.00833333333333333	0	30	6.00416666666667	2	0.6533203125
2985.0087890625	0.00833333333333333	0	-30	-6.025	1	0.7294921875
2988.0419921875	0.00833333333333333	0	30	6.00416666666667	2	0.5048828125
2990.833984375	0.00833333333333333	0	-30	-6.025	2	0.560546875
2993.8671875	0.00833333333333333	0	30	6.00416666666667	2	0.53515625
2996.6162109375	0.00833333333333333	0	-30	-6.025	2	0.8662109375
2999.9423828125	0.00833333333333333	0	-30	-6.025	2	3.212890625
3005.69140625	0.00833333333333333	0	30	6.00416666666667	1	1.83203125
3010.0166015625	0.00833333333333333	0	30	6.00416666666667	2	0.4345703125
3012.6240234375	0.00833333333333333	0	-30	-6.025	1	0.8203125
3015.783203125	0.00833333333333333	0	-30	-6.025	1	0.724609375
3018.7333984375	0.00833333333333333	0	-30	-6.025	1	0.7900390625
3022.0498046875	0.00833333333333333	0	30	6.00416666666667	1	0.7939453125
3025.0498046875	0.00833333333333333	0	30	6.00416666666667	1	0.5859375
3027.8583984375	0.00833333333333333	0	-30	-6.025	1	0.705078125
3030.8740234375	0.00833333333333333	0	30	6.00416666666667	2	1.673828125
3035.1240234375	0.00833333333333333	0	-30	-6.025	2	1.4560546875
3039.216796875	0.00833333333333333	0	30	6.00416666666667	2	5.2919921875
3046.765625	0.00833333333333333	0	-30	-6.025	2	0.8466796875
3050.0830078125	0.00833333333333333	0	30	6.00416666666667	2	0.7783203125
3053.25	0.00833333333333333	0	30	6.00416666666667	2	0.71484375
3056.4658203125	0.00833333333333333	0	30	6.00416666666667	2	0.4912109375
3059.3076171875	0.00833333333333333	0	-30	-6.025	1	0.45703125
3062.19140625	0.00833333333333333	0	-30	-6.025	1	0.6298828125
3065.21484375	0.00833333333333333	0	-30	-6.025	2	1.3828125
3069.07421875	0.00833333333333333	0	30	5.87916666666667	2	0.5634765625
3072.232421875	0.00833333333333333	0	30	5.87916666666667	1	0.97265625
3075.57421875	0.00833333333333333	0	30	5.87916666666667	1	0.623046875
3078.3740234375	0.00833333333333333	0	30	5.87916666666667	1	0.52734375
3081.349609375	0.00833333333333333	0	30	5.87916666666667	1	0.6240234375
3084.298828125	0.00833333333333333	0	-30	-6.025	2	0.5390625
3087.0078125	0.00833333333333333	0	30	5.87916666666667	2	0.677734375
3089.8408203125	0.00833333333333333	0	30	5.87916666666667	1	0.6611328125
3092.8076171875	0.00833333333333333	0	30	5.87916666666667	1	0.6220703125
3096.056640625	0.00833333333333333	0	-30	-6.025	1	0.662109375
3098.9736328125	0.00833333333333333	0	30	5.87916666666667	1	0.544921875
3102.07421875	0.00833333333333333	0	30	5.87916666666667	1	0.8759765625
3105.3818359375	0.00833333333333333	0	-30	-6.025	1	0.7529296875
3108.7236328125	0.00833333333333333	0	-30	-6.025	1	0.70703125
3112.0478515625	0.00833333333333333	0	-30	-6.025	1	0.5751953125
3114.9140625	0.00833333333333333	0	30	5.87916666666667	1	1.7490234375
3118.8310546875	0.00833333333333333	0	30	6.00416666666667	1	0.5517578125
3121.5234375	0.00833333333333333	0	30	6.00416666666667	1	0.779296875
3124.681640625	0.00833333333333333	0	-30	-6.025	1	0.701171875
3127.7314453125	0.00833333333333333	0	-30	-5.9	1	0.6435546875
3130.515625	0.00833333333333333	0	30	6.00416666666667	2	0.5556640625
3133.3486328125	0.00833333333333333	0	30	6.00416666666667	2	0.6748046875
3136.3564453125	0.00833333333333333	0	-30	-5.9	2	0.71484375
3139.46484375	0.00833333333333333	0	30	6.00416666666667	2	0.7275390625
3142.5068359375	0.00833333333333333	0	-30	-5.9	2	0.5810546875
3145.3818359375	0.00833333333333333	0	-30	-5.9	2	0.490234375
3148.296875	0.00833333333333333	0	30	6.00416666666667	2	0.5595703125
3151.0146484375	0.00833333333333333	0	30	6.00416666666667	2	1.0654296875
3154.6484375	0.00833333333333333	0	-30	-5.9	2	0.912109375
3158.0732421875	0.00833333333333333	0	-30	-5.9	2	0.86328125
3161.5810546875	0.00833333333333333	0	30	5.87916666666667	2	1.21875
3165.314453125	0.00833333333333333	0	-30	-6.025	2	0.990234375
3168.65625	0.00833333333333333	0	-30	-6.025	2	1.7919921875
3172.8056640625	0.00833333333333333	0	-30	-6.025	2	0.802734375
3176.0810546875	0.00833333333333333	0	30	5.87916666666667	2	0.9677734375
3179.322265625	0.00833333333333333	0	30	5.87916666666667	2	0.6865234375
3182.15625	0.00833333333333333	0	30	5.87916666666667	2	0.9169921875
3185.3056640625	0.00833333333333333	0	30	5.87916666666667	2	7.6875
3195.47265625	0.00833333333333333	0	30	5.75416666666667	2	0.80859375
3198.447265625	0.00833333333333333	0	-30	-6.025	2	0.5380859375
3201.22265625	0.00833333333333333	0	30	5.75416666666667	2	0.4912109375
3204.138671875	0.00833333333333333	0	30	5.75416666666667	2	0.52734375
3207.2470703125	0.00833333333333333	0	-30	-6.025	2	0.490234375
3209.921875	0.00833333333333333	0	-30	-6.15	2	1.1923828125
3234.447265625	0.00833333333333333	0	30	5.75416666666667	2	1.0673828125
3237.6630859375	0.00833333333333333	0	-30	-6.15	2	0.755859375
3240.5634765625	0.00833333333333333	0	30	5.75416666666667	2	0.7353515625
3243.763671875	0.00833333333333333	0	-30	-6.15	2	0.7197265625
3246.830078125	0.00833333333333333	0	30	5.62916666666667	2	0.61328125
3249.7548828125	0.00833333333333333	0	-30	-6.15	2	0.583984375
3252.8466796875	0.00833333333333333	0	-30	-6.15	2	0.7490234375
3256.23828125	0.00833333333333333	0	-30	-6.275	2	0.533203125
3259.013671875	0.00833333333333333	0	30	5.62916666666667	2	0.7421875
3262.046875	0.00833333333333333	0	-30	-6.275	2	1.212890625
3265.705078125	0.00833333333333333	0	30	5.62916666666667	2	0.6904296875
3268.779296875	0.00833333333333333	0	30	5.62916666666667	2	0.712890625
3271.8466796875	0.00833333333333333	0	30	5.62916666666667	2	0.693359375
3275.11328125	0.00833333333333333	0	-30	-6.275	2	0.810546875
3278.24609375	0.00833333333333333	0	-30	-6.275	2	1.3896484375
3282.2783203125	0.00833333333333333	0	-30	-6.275	1	0.8701171875
3285.61328125	0.00833333333333333	0	-30	-6.275	1	0.5908203125
3288.4794921875	0.00833333333333333	0	30	5.50416666666667	1	0.6689453125
3291.62109375	0.00833333333333333	0	30	5.50416666666667	1	0.599609375
3294.7373046875	0.00833333333333333	0	30	5.50416666666667	1	0.587890625
3297.5791015625	0.00833333333333333	0	-30	-6.275	1	0.7138671875
3300.8212890625	0.00833333333333333	0	-30	-6.275	1	0.591796875
3303.720703125	0.00833333333333333	0	30	5.50416666666667	1	0.6201171875
3306.6376953125	0.00833333333333333	0	30	5.50416666666667	1	1.359375
3310.24609375	0.00833333333333333	0	-30	-6.275	1	0.646484375
3313.462890625	0.00833333333333333	0	-30	-6.15	1	0.91015625
3316.611328125	0.00833333333333333	0	-30	-6.15	1	1.0263671875
3319.9375	0.00833333333333333	0	30	5.62916666666667	2	0.884765625
3323.203125	0.00833333333333333	0	-30	-6.15	2	0.5302734375
3326.037109375	0.00833333333333333	0	30	5.62916666666667	2	0.79296875
3329.1787109375	0.00833333333333333	0	30	5.62916666666667	2	0.779296875
3332.2783203125	0.00833333333333333	0	30	5.62916666666667	2	0.5517578125
3335.0458984375	0.00833333333333333	0	-30	-6.15	2	0.576171875
3338.2373046875	0.00833333333333333	0	-30	-6.15	2	0.4169921875
3341.228515625	0.00833333333333333	0	30	5.62916666666667	2	0.5693359375
3344.1875	0.00833333333333333	0	30	5.50416666666667	2	0.875
3347.3623046875	0.00833333333333333	0	-30	-6.15	1	0.6923828125
3350.64453125	0.00833333333333333	0	-30	-6.15	2	5.0419921875
3357.986328125	0.00833333333333333	0	30	5.50416666666667	2	0.564453125
3361.1533203125	0.00833333333333333	0	-30	-6.15	2	0.5654296875
3364.244140625	0.00833333333333333	0	-30	-6.15	2	0.482421875
3367.2529296875	0.00833333333333333	0	30	5.50416666666667	2	0.5546875
3370.1025390625	0.00833333333333333	0	-30	-6.15	2	0.6484375
3373.0029296875	0.00833333333333333	0	30	5.50416666666667	2	0.572265625
3376.0283203125	0.00833333333333333	0	30	5.50416666666667	2	0.5869140625
3379.13671875	0.00833333333333333	0	-30	-6.15	2	0.5986328125
3381.986328125	0.00833333333333333	0	30	5.37916666666667	2	0.453125
3384.935546875	0.00833333333333333	0	-30	-6.275	2	0.5126953125
3387.6865234375	0.00833333333333333	0	30	5.37916666666667	2	0.45703125
3390.59375	0.00833333333333333	0	-30	-6.275	2	0.3662109375
3393.1865234375	0.00833333333333333	0	30	5.37916666666667	2	2.3017578125
3397.861328125	0.00833333333333333	0	30	5.37916666666667	2	0.818359375
3401.1943359375	0.00833333333333333	0	-30	-6.275	2	0.61328125
3404.2197265625	0.00833333333333333	0	30	5.37916666666667	2	0.4921875
3406.927734375	0.00833333333333333	0	-30	-6.275	2	0.6806640625
3410.0849609375	0.00833333333333333	0	30	5.25416666666667	2	0.69921875
3413.001953125	0.00833333333333333	0	-30	-6.275	2	0.55078125
3415.9521484375	0.00833333333333333	0	-30	-6.4	2	0.5283203125
3418.7265625	0.00833333333333333	0	30	5.25416666666667	2	0.609375
3421.9853515625	0.00833333333333333	0	30	5.25416666666667	2	0.54296875
3425.134765625	0.00833333333333333	0	30	5.25416666666667	2	0.490234375
3428.2685546875	0.00833333333333333	0	-30	-6.4	2	0.564453125
3431.177734375	0.00833333333333333	0	-30	-6.4	2	0.5751953125
3434.41015625	0.00833333333333333	0	-30	-6.4	2	2.623046875
3439.2607421875	0.00833333333333333	0	-30	-6.4	2	1.541015625
3443.0859375	0.00833333333333333	0	30	5.25416666666667	2	0.68359375
3446.3349609375	0.00833333333333333	0	30	5.12916666666667	2	0.5224609375
3449.2275390625	0.00833333333333333	0	30	5.12916666666667	2	0.478515625
3452.3349609375	0.00833333333333333	0	-30	-6.525	2	0.5703125
3455.4765625	0.00833333333333333	0	-30	-6.525	1	0.6689453125
3458.8017578125	0.00833333333333333	0	-30	-6.525	1	0.48046875
3461.6689453125	0.00833333333333333	0	-30	-6.525	1	0.533203125
3464.7265625	0.00833333333333333	0	-30	-6.525	1	0.611328125
3467.78515625	0.00833333333333333	0	30	5.12916666666667	1	0.521484375
3470.91796875	0.00833333333333333	0	30	5.12916666666667	1	1.1328125
3474.384765625	0.00833333333333333	0	-30	-6.525	1	0.537109375
3477.4931640625	0.00833333333333333	0	-30	-6.4	1	0.4931640625
3480.3935546875	0.00833333333333333	0	-30	-6.4	1	0.6005859375
3483.1767578125	0.00833333333333333	0	30	5.12916666666667	1	0.9375
3486.6767578125	0.00833333333333333	0	30	5.12916666666667	2	0.5576171875
3500.6259765625	0.00833333333333333	0	30	5.12916666666667	2	3.09765625
3506.1591796875	0.00833333333333333	0	30	5.12916666666667	2	2.1162109375
3510.5849609375	0.00833333333333333	0	30	5.12916666666667	1	0.978515625
3513.9677734375	0.00833333333333333	0	-30	-6.4	1	0.603515625
3517.208984375	0.00833333333333333	0	30	5.12916666666667	1	1.2509765625
3520.79296875	0.00833333333333333	0	-30	-6.4	2	1.39453125
3524.3837890625	0.00833333333333333	0	-30	-6.4	2	0.64453125
3527.30078125	0.00833333333333333	0	-30	-6.4	2	0.615234375
3530.2587890625	0.00833333333333333	0	-30	-6.4	2	1.361328125
3534.0087890625	0.00833333333333333	0	30	5.12916666666667	2	0.5634765625
3537.017578125	0.00833333333333333	0	30	5.12916666666667	2	0.71484375
3540.2255859375	0.00833333333333333	0	-30	-6.4	2	1.2431640625
3544.0166015625	0.00833333333333333	0	-30	-6.525	1	0.7080078125
3547.0673828125	0.00833333333333333	0	30	5.12916666666667	2	0.59375
3550.3505859375	0.00833333333333333	0	-30	-6.525	2	1.1259765625
3553.9921875	0.00833333333333333	0	30	5.12916666666667	2	0.5810546875
3556.8759765625	0.00833333333333333	0	30	5.12916666666667	2	0.78515625
3559.892578125	0.00833333333333333	0	30	5.00416666666667	2	0.896484375
3563.4326171875	0.00833333333333333	0	30	5.00416666666667	2	2.044921875
3568.091796875	0.00833333333333333	0	-30	-6.525	2	2.353515625
3572.9833984375	0.00833333333333333	0	30	5.00416666666667	2	0.5341796875
3576.158203125	0.00833333333333333	0	-30	-6.525	2	0.52734375
3579	0.00833333333333333	0	30	5.00416666666667	2	0.5654296875
3581.8837890625	0.00833333333333333	0	-30	-6.525	2	0.9619140625
3585.408203125	0.00833333333333333	0	30	5.00416666666667	2	2.09375
3590.091796875	0.00833333333333333	0	-30	-6.525	2	0.8583984375
3593.5498046875	0.00833333333333333	0	30	4.87916666666667	2	0.6240234375
3596.390625	0.00833333333333333	0	-30	-6.65	2	0.5361328125
3599.3251953125	0.00833333333333333	0	30	4.87916666666667	2	0.361328125
3601.9580078125	0.00833333333333333	0	-30	-6.65	2	0.45703125
3604.6494140625	0.00833333333333333	0	-30	-6.65	2	0.4609375
3607.3076171875	0.00833333333333333	0	-30	-6.65	2	0.4990234375
3610.0986328125	0.00833333333333333	0	30	4.87916666666667	2	0.4521484375
3613.0166015625	0.00833333333333333	0	30	4.87916666666667	2	0.486328125
3615.8740234375	0.00833333333333333	0	30	4.87916666666667	1	0.693359375
3618.849609375	0.00833333333333333	0	-30	-6.65	1	0.61328125
3621.75	0.00833333333333333	0	-30	-6.65	1	0.521484375
3624.44921875	0.00833333333333333	0	30	4.87916666666667	1	0.646484375
3627.5498046875	0.00833333333333333	0	-30	-6.65	1	0.4970703125
3630.607421875	0.00833333333333333	0	-30	-6.65	1	0.4716796875
3633.69140625	0.00833333333333333	0	30	4.87916666666667	1	0.404296875
3636.69921875	0.00833333333333333	0	-30	-6.65	1	1.1728515625
3640.32421875	0.00833333333333333	0	-30	-6.525	1	0.5478515625
3643.1904296875	0.00833333333333333	0	-30	-6.525	1	0.6494140625
3646.1328125	0.00833333333333333	0	30	4.87916666666667	1	0.35546875
3648.6240234375	0.00833333333333333	0	-30	-6.525	1	0.65625
3651.673828125	0.00833333333333333	0	30	4.87916666666667	2	0.958984375
3654.8486328125	0.00833333333333333	0	-30	-6.525	1	0.583984375
3657.9326171875	0.00833333333333333	0	30	4.87916666666667	1	0.4912109375
3660.8076171875	0.00833333333333333	0	-30	-6.525	1	0.8330078125
3664.107421875	0.00833333333333333	0	30	4.87916666666667	1	0.9169921875
3667.2734375	0.00833333333333333	0	30	4.87916666666667	2	1.9111328125
3671.4658203125	0.00833333333333333	0	-30	-6.4	1	0.4951171875
3674.4326171875	0.00833333333333333	0	30	4.87916666666667	1	0.5283203125
3677.2236328125	0.00833333333333333	0	30	4.87916666666667	1	0.609375
3680.4482421875	0.00833333333333333	0	-30	-6.4	1	0.9765625
3683.6484375	0.00833333333333333	0	30	4.87916666666667	1	0.5927734375
3686.740234375	0.00833333333333333	0	-30	-6.4	1	0.5810546875
3689.6572265625	0.00833333333333333	0	-30	-6.4	1	0.6083984375
3692.71484375	0.00833333333333333	0	-30	-6.4	1	0.5341796875
3695.95703125	0.00833333333333333	0	-30	-6.275	2	6.6923828125
3705.0400390625	0.00833333333333333	0	30	4.87916666666667	2	0.5859375
3707.8486328125	0.00833333333333333	0	30	4.87916666666667	1	0.6728515625
3710.78125	0.00833333333333333	0	-30	-6.275	2	0.8291015625
3714.03125	0.00833333333333333	0	30	4.87916666666667	2	0.642578125
3717.2646484375	0.00833333333333333	0	30	4.87916666666667	2	1.369140625
3721.03125	0.00833333333333333	0	30	4.87916666666667	2	0.859375
3724.3310546875	0.00833333333333333	0	30	4.87916666666667	1	1.279296875
3728.3056640625	0.00833333333333333	0	-30	-6.275	2	0.6806640625
3731.2978515625	0.00833333333333333	0	30	4.87916666666667	2	0.625
3734.40625	0.00833333333333333	0	30	4.87916666666667	2	0.5888671875
3737.2392578125	0.00833333333333333	0	-30	-6.275	2	0.443359375
3739.9384765625	0.00833333333333333	0	-30	-6.275	2	4.48828125
3746.564453125	0.00833333333333333	0	-30	-6.4	2	0.5595703125
3749.7978515625	0.00833333333333333	0	-30	-6.4	2	0.5576171875
3752.8056640625	0.00833333333333333	0	-30	-6.4	2	0.517578125
3755.572265625	0.00833333333333333	0	-30	-6.4	2	0.4794921875
3758.5478515625	0.00833333333333333	0	-30	-6.4	2	3.6162109375
3764.7216796875	0.00833333333333333	0	30	4.87916666666667	2	1.73046875
3768.8388671875	0.00833333333333333	0	30	4.87916666666667	2	0.4609375
3791.48046875	0.00833333333333333	0	30	4.87916666666667	1	3.0439453125
3796.9716796875	0.00833333333333333	0	30	4.87916666666667	2	2.46484375
3802.0634765625	0.00833333333333333	0	30	4.87916666666667	1	1.61328125
3806.0634765625	0.00833333333333333	0	-30	-6.525	2	1.4140625
3810.1552734375	0.00833333333333333	0	30	4.87916666666667	1	0.7861328125
3813.4296875	0.00833333333333333	0	-30	-6.525	1	0.6640625
3816.345703125	0.00833333333333333	0	30	4.87916666666667	1	0.5712890625
3819.5380859375	0.00833333333333333	0	-30	-6.525	1	0.4599609375
3822.462890625	0.00833333333333333	0	30	4.87916666666667	1	0.6787109375
3825.671875	0.00833333333333333	0	-30	-6.525	1	0.5654296875
3828.6376953125	0.00833333333333333	0	30	4.87916666666667	1	0.7763671875
3831.7802734375	0.00833333333333333	0	30	5.00416666666667	1	2.7216796875
3836.962890625	0.00833333333333333	0	-30	-6.525	2	4.71484375
3843.904296875	0.00833333333333333	0	30	5.00416666666667	2	0.7666015625
3847.212890625	0.00833333333333333	0	-30	-6.525	1	0.59375
3850.404296875	0.00833333333333333	0	30	5.00416666666667	1	0.498046875
3853.2548828125	0.00833333333333333	0	30	5.00416666666667	1	0.4560546875
3856.271484375	0.00833333333333333	0	-30	-6.525	1	0.54296875
3859.25390625	0.00833333333333333	0	30	5.00416666666667	1	0.5205078125
3862.0791015625	0.00833333333333333	0	-30	-6.525	1	1.359375
3865.9462890625	0.00833333333333333	0	30	5.00416666666667	1	0.63671875
3869.1875	0.00833333333333333	0	30	5.00416666666667	1	0.4833984375
3872.1123046875	0.00833333333333333	0	30	5.12916666666667	2	7.53515625
3882.00390625	0.00833333333333333	0	30	5.12916666666667	2	0.67578125
3885.12890625	0.00833333333333333	0	-30	-6.525	2	0.6708984375
3888.3125	0.00833333333333333	0	-30	-6.525	1	1.951171875
3892.6123046875	0.00833333333333333	0	30	5.12916666666667	2	0.5478515625
3895.5029296875	0.00833333333333333	0	-30	-6.525	2	0.8974609375
3898.8125	0.00833333333333333	0	-30	-6.525	2	0.6591796875
3901.7373046875	0.00833333333333333	0	-30	-6.525	2	0.5107421875
3904.8115234375	0.00833333333333333	0	-30	-6.525	2	0.5888671875
3907.669921875	0.00833333333333333	0	-30	-6.525	2	0.4423828125
3910.669921875	0.00833333333333333	0	30	5.12916666666667	2	0.658203125
3913.5205078125	0.00833333333333333	0	-30	-6.65	2	0.3916015625
3916.4365234375	0.00833333333333333	0	-30	-6.65	2	0.3720703125
3919.1455078125	0.00833333333333333	0	-30	-6.65	2	0.3671875
3922.103515625	0.00833333333333333	0	30	5.12916666666667	2	0.3857421875
3924.9287109375	0.00833333333333333	0	30	5.00416666666667	2	0.50390625
3928.078125	0.00833333333333333	0	-30	-6.65	1	0.5146484375
3931.228515625	0.00833333333333333	0	-30	-6.65	1	0.7490234375
3934.5703125	0.00833333333333333	0	-30	-6.65	1	0.5751953125
3937.6103515625	0.00833333333333333	0	30	5.00416666666667	1	0.6396484375
3940.7451171875	0.00833333333333333	0	-30	-6.65	1	0.5439453125
3943.9111328125	0.00833333333333333	0	-30	-6.65	1	0.6669921875
3946.90234375	0.00833333333333333	0	30	5.00416666666667	1	5.6357421875
3954.876953125	0.00833333333333333	0	-30	-6.525	1	0.548828125
3957.744140625	0.00833333333333333	0	-30	-6.525	1	0.42578125
3960.4609375	0.00833333333333333	0	-30	-6.525	1	0.8134765625
3963.7021484375	0.00833333333333333	0	-30	-6.525	1	1.259765625
3967.3193359375	0.00833333333333333	0	30	5.00416666666667	2	0.7470703125
3970.369140625	0.00833333333333333	0	30	5.00416666666667	2	0.609375
3973.64453125	0.00833333333333333	0	30	5.00416666666667	2	0.6865234375
3976.8359375	0.00833333333333333	0	-30	-6.525	2	1.0302734375
3980.5693359375	0.00833333333333333	0	-30	-6.525	1	1.3056640625
3984.427734375	0.00833333333333333	0	30	5.00416666666667	1	0.7587890625
3987.7275390625	0.00833333333333333	0	30	5.00416666666667	2	0.6669921875
3990.7861328125	0.00833333333333333	0	-30	-6.525	2	1.1689453125
3994.384765625	0.00833333333333333	0	30	5.00416666666667	2	0.6181640625
3997.71875	0.00833333333333333	0	30	5.00416666666667	2	0.572265625
4000.810546875	0.00833333333333333	0	30	5.00416666666667	1	0.6650390625
4003.677734375	0.00833333333333333	0	-30	-6.525	1	0.58984375
4006.4853515625	0.00833333333333333	0	-30	-6.525	2	7.5908203125
4016.4267578125	0.00833333333333333	0	30	5.00416666666667	2	0.6728515625
4019.4423828125	0.00833333333333333	0	30	5.00416666666667	2	0.5224609375
4022.4267578125	0.00833333333333333	0	-30	-6.525	2	0.6015625
4025.54296875	0.00833333333333333	0	-30	-6.525	2	0.4775390625
4028.259765625	0.00833333333333333	0	30	5.00416666666667	2	0.48046875
4031.068359375	0.00833333333333333	0	-30	-6.525	2	0.576171875
4033.96875	0.00833333333333333	0	30	5.00416666666667	2	2.3408203125
4038.7763671875	0.00833333333333333	0	-30	-6.525	1	0.6357421875
4041.6103515625	0.00833333333333333	0	30	5.00416666666667	2	0.4423828125
4044.693359375	0.00833333333333333	0	-30	-6.525	2	0.6953125
4048.1015625	0.00833333333333333	0	30	4.87916666666667	2	0.5673828125
4051.16015625	0.00833333333333333	0	-30	-6.525	2	1.29296875
4054.7255859375	0.00833333333333333	0	-30	-6.525	1	0.615234375
4057.8681640625	0.00833333333333333	0	-30	-6.525	1	0.7451171875
4061.193359375	0.00833333333333333	0	30	4.87916666666667	2	2.7802734375
4066.4013671875	0.00833333333333333	0	-30	-6.525	1	0.66015625
4069.7763671875	0.00833333333333333	0	30	4.87916666666667	1	3.1572265625
4075.5263671875	0.00833333333333333	0	30	4.87916666666667	1	1.4951171875
4095.3173828125	0.00833333333333333	0	30	4.87916666666667	2	1.2890625
4098.8173828125	0.00833333333333333	0	30	4.87916666666667	1	1.021484375
4102.3427734375	0.00833333333333333	0	-30	-6.525	1	0.671875
4105.6259765625	0.00833333333333333	0	-30	-6.525	1	0.5888671875
4108.466796875	0.00833333333333333	0	-30	-6.4	1	0.5478515625
4111.599609375	0.00833333333333333	0	-30	-6.4	1	0.4873046875
4114.42578125	0.00833333333333333	0	-30	-6.4	1	0.685546875
4117.5341796875	0.00833333333333333	0	30	4.87916666666667	2	0.4970703125
4120.466796875	0.00833333333333333	0	-30	-6.4	1	0.484375
4123.55078125	0.00833333333333333	0	30	4.87916666666667	1	0.5361328125
4126.275390625	0.00833333333333333	0	30	4.87916666666667	1	0.4677734375
4129.2578125	0.00833333333333333	0	-30	-6.4	1	0.5341796875
4132.3671875	0.00833333333333333	0	-30	-6.275	1	2.4560546875
4137.1083984375	0.00833333333333333	0	-30	-6.275	2	0.009765625
4139.4423828125	0.00833333333333333	0	30	4.87916666666667	1	0.4931640625
4142.2001953125	0.00833333333333333	0	30	4.87916666666667	2	0.5595703125
4145.2587890625	0.00833333333333333	0	-30	-6.275	2	0.548828125
4148.05859375	0.00833333333333333	0	-30	-6.275	2	0.3974609375
4150.724609375	0.00833333333333333	0	-30	-6.275	2	0.435546875
4153.8583984375	0.00833333333333333	0	30	4.87916666666667	2	5.1982421875
4161.6162109375	0.00833333333333333	0	30	4.87916666666667	1	0.896484375
4165.2001953125	0.00833333333333333	0	30	4.87916666666667	2	0.3681640625
4167.9833984375	0.00833333333333333	0	-30	-6.275	1	0.609375
4170.8916015625	0.00833333333333333	0	30	4.87916666666667	1	0.869140625
4174.1083984375	0.00833333333333333	0	30	4.87916666666667	2	0.5
4176.982421875	0.00833333333333333	0	30	4.87916666666667	2	0.5703125
4179.7333984375	0.00833333333333333	0	30	4.87916666666667	2	1.1318359375
4183.533203125	0.00833333333333333	0	-30	-6.275	2	0.4443359375
4186.3828125	0.00833333333333333	0	30	4.87916666666667	2	0.466796875
4189.3076171875	0.00833333333333333	0	30	4.87916666666667	2	0.318359375
4192.1826171875	0.00833333333333333	0	-30	-6.275	2	0.466796875
4195.232421875	0.00833333333333333	0	30	4.75416666666667	2	2.376953125
4200.1162109375	0.00833333333333333	0	30	4.75416666666667	2	0.517578125
4203.0244140625	0.00833333333333333	0	-30	-6.275	2	0.521484375
4205.857421875	0.00833333333333333	0	30	4.75416666666667	2	0.568359375
4208.607421875	0.00833333333333333	0	30	4.75416666666667	2	0.482421875
4211.57421875	0.00833333333333333	0	30	4.75416666666667	2	0.7802734375
4215.0576171875	0.00833333333333333	0	-30	-6.275	2	0.6328125
4218.33203125	0.00833333333333333	0	30	4.62916666666667	2	0.55078125
4221.1328125	0.00833333333333333	0	-30	-6.275	2	0.3740234375
4224.1572265625	0.00833333333333333	0	30	4.62916666666667	2	0.4853515625
4226.9814453125	0.00833333333333333	0	-30	-6.4	2	0.3330078125
4229.8740234375	0.00833333333333333	0	30	4.62916666666667	2	0.4326171875
4232.7236328125	0.00833333333333333	0	-30	-6.4	2	0.3916015625
4235.765625	0.00833333333333333	0	30	4.62916666666667	2	0.4375
4238.82421875	0.00833333333333333	0	-30	-6.4	2	0.3955078125
4241.83203125	0.00833333333333333	0	30	4.62916666666667	2	0.4033203125
4244.8486328125	0.00833333333333333	0	30	4.50416666666667	2	0.4111328125
4247.58203125	0.00833333333333333	0	-30	-6.4	2	0.4140625
4250.482421875	0.00833333333333333	0	30	4.50416666666667	2	0.4169921875
4253.1982421875	0.00833333333333333	0	30	4.50416666666667	2	0.4208984375
4255.9072265625	0.00833333333333333	0	30	4.50416666666667	2	0.3369140625
4258.490234375	0.00833333333333333	0	30	4.50416666666667	2	0.689453125
4261.70703125	0.00833333333333333	0	-30	-6.4	2	0.4326171875
4264.3740234375	0.00833333333333333	0	30	4.37916666666667	2	0.9658203125
4267.8486328125	0.00833333333333333	0	-30	-6.525	1	0.4755859375
4270.4482421875	0.00833333333333333	0	-30	-6.525	1	0.7724609375
4273.6396484375	0.00833333333333333	0	-30	-6.525	1	0.5244140625
4276.4560546875	0.00833333333333333	0	30	4.37916666666667	1	0.4921875
4279.314453125	0.00833333333333333	0	30	4.37916666666667	1	0.994140625
4282.9150390625	0.00833333333333333	0	-30	-6.525	1	0.4892578125
4285.6728515625	0.00833333333333333	0	30	4.37916666666667	1	3.6845703125
4291.814453125	0.00833333333333333	0	30	4.37916666666667	2	1.0625
4295.3896484375	0.00833333333333333	0	-30	-6.525	2	2.279296875
4300.0234375	0.00833333333333333	0	30	4.37916666666667	2	0.8134765625
4303.2392578125	0.00833333333333333	0	30	4.37916666666667	1	0.8701171875
4306.6064453125	0.00833333333333333	0	-30	-6.525	1	0.55078125
4309.521484375	0.00833333333333333	0	-30	-6.525	2	0.939453125
4312.6640625	0.00833333333333333	0	-30	-6.525	2	0.5654296875
4315.78125	0.00833333333333333	0	30	4.37916666666667	1	1.0166015625
4319.36328125	0.00833333333333333	0	30	4.37916666666667	2	5.0341796875
4326.5810546875	0.00833333333333333	0	-30	-6.525	1	0.4892578125
4329.5810546875	0.00833333333333333	0	30	4.37916666666667	2	0.5849609375
4332.630859375	0.00833333333333333	0	-30	-6.525	2	0.7197265625
4335.9140625	0.00833333333333333	0	-30	-6.525	2	0.3720703125
4338.505859375	0.00833333333333333	0	-30	-6.525	2	0.64453125
4341.505859375	0.00833333333333333	0	-30	-6.525	2	3.796875
4347.630859375	0.00833333333333333	0	30	4.37916666666667	2	0.431640625
4350.2724609375	0.00833333333333333	0	-30	-6.525	2	0.837890625
4353.572265625	0.00833333333333333	0	-30	-6.65	2	0.5947265625
4376.2958984375	0.00833333333333333	0	30	4.37916666666667	2	0.8798828125
4379.4130859375	0.00833333333333333	0	-30	-6.65	2	0.642578125
4382.5380859375	0.00833333333333333	0	-30	-6.65	2	0.525390625
4385.2880859375	0.00833333333333333	0	30	4.37916666666667	2	1.759765625
4389.6220703125	0.00833333333333333	0	30	4.25416666666667	2	0.73828125
4392.6552734375	0.00833333333333333	0	30	4.25416666666667	2	0.6806640625
4395.6376953125	0.00833333333333333	0	-30	-6.65	2	0.5869140625
4398.421875	0.00833333333333333	0	30	4.25416666666667	2	0.505859375
4401.353515625	0.00833333333333333	0	30	4.25416666666667	2	0.4951171875
4404.3046875	0.00833333333333333	0	30	4.25416666666667	2	0.51171875
4407.0537109375	0.00833333333333333	0	-30	-6.65	2	0.5869140625
4409.87109375	0.00833333333333333	0	30	4.12916666666667	2	0.537109375
4412.580078125	0.00833333333333333	0	-30	-6.775	1	0.9248046875
4415.7626953125	0.00833333333333333	0	30	4.12916666666667	2	1.7021484375
4420.1376953125	0.00833333333333333	0	30	4.12916666666667	2	2.615234375
4425.3466796875	0.00833333333333333	0	30	4.12916666666667	2	0.55078125
4428.462890625	0.00833333333333333	0	30	4.12916666666667	2	0.6259765625
4431.3046875	0.00833333333333333	0	30	4.00416666666667	2	0.9287109375
4434.75390625	0.00833333333333333	0	30	4.00416666666667	2	0.4951171875
4437.654296875	0.00833333333333333	0	30	4.00416666666667	2	0.4111328125
4440.2705078125	0.00833333333333333	0	30	4.00416666666667	2	0.5068359375
4443.052734375	0.00833333333333333	0	-30	-6.775	2	0.533203125
4445.8876953125	0.00833333333333333	0	30	4.00416666666667	2	0.673828125
4448.8037109375	0.00833333333333333	0	30	3.87916666666667	2	0.6220703125
4451.7626953125	0.00833333333333333	0	-30	-6.775	2	0.3115234375
4454.7119140625	0.00833333333333333	0	30	3.87916666666667	2	0.921875
4458.0537109375	0.00833333333333333	0	-30	-6.775	2	0.5966796875
4461.25390625	0.00833333333333333	0	30	3.87916666666667	2	0.5087890625
4464.3369140625	0.00833333333333333	0	30	3.87916666666667	2	0.529296875
4467.12890625	0.00833333333333333	0	-30	-6.775	2	0.537109375
4470.0205078125	0.00833333333333333	0	30	3.87916666666667	2	0.4619140625
4472.912109375	0.00833333333333333	0	30	3.75416666666667	2	0.466796875
4476.0283203125	0.00833333333333333	0	30	3.75416666666667	2	0.478515625
4478.9541015625	0.00833333333333333	0	-30	-6.775	2	0.529296875
4482.162109375	0.00833333333333333	0	30	3.75416666666667	2	0.4248046875
4485.103515625	0.00833333333333333	0	-30	-6.9	2	0.451171875
4487.8369140625	0.00833333333333333	0	-30	-6.9	2	0.40625
4490.76171875	0.00833333333333333	0	30	3.75416666666667	2	0.6494140625
4493.5869140625	0.00833333333333333	0	-30	-6.9	2	0.47265625
4496.6953125	0.00833333333333333	0	30	3.75416666666667	2	0.3720703125
4499.5439453125	0.00833333333333333	0	-30	-6.9	2	0.443359375
4502.39453125	0.00833333333333333	0	-30	-6.9	2	0.384765625
4505.1435546875	0.00833333333333333	0	30	3.62916666666667	2	0.5400390625
4508.228515625	0.00833333333333333	0	30	3.62916666666667	2	0.5029296875
4511.0029296875	0.00833333333333333	0	30	3.62916666666667	2	0.6083984375
4514.0029296875	0.00833333333333333	0	30	3.62916666666667	2	0.857421875
4517.078125	0.00833333333333333	0	-30	-7.025	2	0.7255859375
4520.060546875	0.00833333333333333	0	30	3.62916666666667	2	0.4638671875
4523.01953125	0.00833333333333333	0	-30	-7.025	1	0.5927734375
4526.044921875	0.00833333333333333	0	-30	-7.025	1	0.4951171875
4529.0703125	0.00833333333333333	0	30	3.50416666666667	1	0.6376953125
4532.0859375	0.00833333333333333	0	-30	-7.025	1	0.54296875
4534.9599609375	0.00833333333333333	0	-30	-7.025	1	0.548828125
4537.90234375	0.00833333333333333	0	30	3.50416666666667	2	6.966796875
4547.376953125	0.00833333333333333	0	30	3.50416666666667	2	0.388671875
4550.1611328125	0.00833333333333333	0	30	3.50416666666667	1	0.6201171875
4553.0771484375	0.00833333333333333	0	30	3.50416666666667	1	0.4638671875
4555.935546875	0.00833333333333333	0	30	3.50416666666667	1	0.333984375
4558.7529296875	0.00833333333333333	0	30	3.50416666666667	1	0.3642578125
4561.3515625	0.00833333333333333	0	-30	-7.025	1	0.326171875
4563.7939453125	0.00833333333333333	0	30	3.50416666666667	1	0.2841796875
4566.16015625	0.00833333333333333	0	30	3.62916666666667	1	0.3974609375
4568.744140625	0.00833333333333333	0	30	3.62916666666667	1	0.27734375
4571.27734375	0.00833333333333333	0	-30	-6.9	1	0.2802734375
4573.9599609375	0.00833333333333333	0	-30	-6.9	1	0.2861328125
4576.41015625	0.00833333333333333	0	-30	-6.9	1	0.4755859375
4579.060546875	0.00833333333333333	0	30	3.62916666666667	1	1.0654296875
4582.6103515625	0.00833333333333333	0	-30	-6.9	2	0.908203125
4586.126953125	0.00833333333333333	0	-30	-6.9	2	0.4072265625
4588.9599609375	0.00833333333333333	0	-30	-6.9	2	0.53515625
4591.869140625	0.00833333333333333	0	-30	-6.9	2	0.3857421875
4594.7177734375	0.00833333333333333	0	-30	-6.9	2	0.5126953125
4597.818359375	0.00833333333333333	0	-30	-7.025	2	0.3564453125
4600.7431640625	0.00833333333333333	0	-30	-7.025	2	0.3359375
4603.4267578125	0.00833333333333333	0	-30	-7.025	2	0.412109375
4606.0927734375	0.00833333333333333	0	-30	-7.025	2	0.41015625
4608.943359375	0.00833333333333333	0	-30	-7.025	2	0.34375
4611.96875	0.00833333333333333	0	30	3.62916666666667	2	0.2626953125
4614.71875	0.00833333333333333	0	30	3.62916666666667	2	0.423828125
4617.751953125	0.00833333333333333	0	-30	-7.15	1	0.34375
