onset	duration	titr	surround	centre	response	rt
211.8193359375	0.00833333333333333	1	-30	-15	1	1.3662109375
215.2607421875	0.00833333333333333	1	-30	15	2	0.6923828125
218.103515625	0.00833333333333333	1	NaN	-15	1	0.7216796875
221.27734375	0.00833333333333333	1	-30	-14	2	1.3408203125
225.0703125	0.00833333333333333	1	-30	-15	1	1.203125
228.611328125	0.00833333333333333	1	-30	14	2	0.638671875
231.41796875	0.00833333333333333	1	-30	-14	1	1.0078125
234.8017578125	0.00833333333333333	1	NaN	15	2	0.49609375
237.427734375	0.00833333333333333	1	30	15	2	0.630859375
240.21875	0.00833333333333333	1	NaN	14	1	1.583984375
243.9775390625	0.00833333333333333	1	30	14	2	0.529296875
247.0439453125	0.00833333333333333	1	NaN	-14	1	0.5419921875
250.0927734375	0.00833333333333333	1	NaN	-13	1	0.6376953125
253.15234375	0.00833333333333333	1	30	13	2	0.4580078125
256.0771484375	0.00833333333333333	1	30	12	2	0.61328125
258.8515625	0.00833333333333333	1	NaN	15	2	0.5029296875
261.65234375	0.00833333333333333	1	NaN	14	2	0.55078125
264.693359375	0.00833333333333333	1	NaN	13	2	0.4541015625
267.1767578125	0.00833333333333333	1	-30	13	2	0.578125
269.8017578125	0.00833333333333333	1	30	-15	1	0.5693359375
272.8681640625	0.00833333333333333	1	30	-14	1	0.5185546875
275.5849609375	0.00833333333333333	1	NaN	-12	1	0.482421875
278.1337890625	0.00833333333333333	1	NaN	-11	1	0.453125
280.818359375	0.00833333333333333	1	-30	12	2	0.552734375
283.7099609375	0.00833333333333333	1	NaN	12	2	0.4775390625
286.5185546875	0.00833333333333333	1	-30	11	2	0.5009765625
289.234375	0.00833333333333333	1	-30	10	2	0.46484375
291.958984375	0.00833333333333333	1	-30	9	2	0.484375
294.767578125	0.00833333333333333	1	-30	8	2	0.4921875
297.6416015625	0.00833333333333333	1	30	-13	1	0.482421875
300.1591796875	0.00833333333333333	1	NaN	11	2	0.453125
302.9931640625	0.00833333333333333	1	NaN	-10	1	0.451171875
305.9345703125	0.00833333333333333	1	30	-12	1	0.4619140625
308.609375	0.00833333333333333	1	NaN	-9	1	0.6748046875
311.5498046875	0.00833333333333333	1	NaN	10	2	0.4462890625
314.5595703125	0.00833333333333333	1	-30	-13	1	0.7568359375
317.80078125	0.00833333333333333	1	-30	-12	1	0.6357421875
320.5009765625	0.00833333333333333	1	-30	7	2	0.4873046875
323.275390625	0.00833333333333333	1	30	-11	1	0.44921875
325.859375	0.00833333333333333	1	-30	-11	1	0.705078125
328.6748046875	0.00833333333333333	1	30	-10	1	0.4990234375
331.583984375	0.00833333333333333	1	30	-9	1	0.509765625
334.474609375	0.00833333333333333	1	NaN	-8	1	0.73828125
337.734375	0.00833333333333333	1	-30	6	2	0.53515625
340.708984375	0.00833333333333333	1	NaN	9	2	0.46484375
343.5830078125	0.00833333333333333	1	30	-8	1	0.4873046875
346.208984375	0.00833333333333333	1	NaN	8	2	0.46875
348.80859375	0.00833333333333333	1	NaN	-7	1	0.4853515625
351.5419921875	0.00833333333333333	1	30	-7	1	0.51953125
354.19140625	0.00833333333333333	1	30	11	2	0.3984375
357.150390625	0.00833333333333333	1	30	-6	1	0.4873046875
360.1416015625	0.00833333333333333	1	NaN	7	2	0.576171875
363.3251953125	0.00833333333333333	1	-30	-10	2	0.7373046875
366.1669921875	0.00833333333333333	1	NaN	6	2	0.447265625
368.7666015625	0.00833333333333333	1	NaN	5	2	0.5126953125
371.708984375	0.00833333333333333	1	30	-5	1	0.6259765625
374.7001953125	0.00833333333333333	1	30	10	2	0.6982421875
377.9326171875	0.00833333333333333	1	NaN	-6	1	0.5458984375
380.9248046875	0.00833333333333333	1	30	-4	1	0.6181640625
384.091796875	0.00833333333333333	1	30	9	2	0.626953125
386.849609375	0.00833333333333333	1	NaN	-5	1	0.525390625
389.4501953125	0.00833333333333333	1	30	8	2	0.5966796875
392.4912109375	0.00833333333333333	1	-30	-11	1	0.7568359375
395.541015625	0.00833333333333333	1	-30	-10	1	0.810546875
398.765625	0.00833333333333333	1	-30	-9	1	0.74609375
401.8486328125	0.00833333333333333	1	NaN	4	2	0.7265625
404.9658203125	0.00833333333333333	1	30	-3	1	0.833984375
408.08203125	0.00833333333333333	1	-30	-8	2	0.7734375
411.08203125	0.00833333333333333	1	30	-2	1	1.029296875
414.6572265625	0.00833333333333333	1	30	7	2	0.6630859375
417.82421875	0.00833333333333333	1	30	6	2	0.6240234375
420.7998046875	0.00833333333333333	1	-30	5	2	0.4560546875
423.607421875	0.00833333333333333	1	NaN	-4	1	0.6962890625
426.4658203125	0.00833333333333333	1	NaN	3	2	0.57421875
429.4990234375	0.00833333333333333	1	NaN	2	2	0.685546875
432.265625	0.00833333333333333	1	30	5	2	0.5908203125
435.0654296875	0.00833333333333333	1	NaN	1	2	0.5673828125
437.8740234375	0.00833333333333333	1	30	4	2	0.7744140625
440.9736328125	0.00833333333333333	1	30	-1	1	0.69140625
444.015625	0.00833333333333333	1	NaN	0	2	0.6806640625
446.9326171875	0.00833333333333333	1	30	0	1	0.62890625
449.6142578125	0.00833333333333333	1	-30	4	2	0.5068359375
452.291015625	0.00833333333333333	1	-30	3	2	0.494140625
455.08203125	0.00833333333333333	1	-30	-9	2	0.607421875
458.1904296875	0.00833333333333333	1	30	1	2	0.6904296875
461.20703125	0.00833333333333333	1	NaN	-1	2	0.482421875
463.83203125	0.00833333333333333	1	30	3	2	0.4169921875
466.7890625	0.00833333333333333	1	30	2	2	0.4765625
469.84765625	0.00833333333333333	1	30	1	2	0.8984375
473.21484375	0.00833333333333333	1	NaN	-2	2	1.4345703125
477.0810546875	0.00833333333333333	1	-30	-10	1	1.13671875
480.5068359375	0.00833333333333333	1	-30	-9	1	0.8310546875
483.814453125	0.00833333333333333	1	30	0	1	0.6435546875
486.630859375	0.00833333333333333	1	NaN	-3	1	1.5556640625
490.4404296875	0.00833333333333333	1	-30	-8	2	1.0732421875
493.8310546875	0.00833333333333333	1	-30	2	2	0.5234375
496.6064453125	0.00833333333333333	1	30	1	2	0.7158203125
499.8056640625	0.00833333333333333	1	NaN	-3	1	0.8447265625
503.080078125	0.00833333333333333	1	-30	-9	1	0.818359375
506.197265625	0.00833333333333333	1	NaN	-2	2	0.59765625
509.013671875	0.00833333333333333	1	-30	-8	2	0.8134765625
527.4384765625	0.00833333333333333	1	30	0	1	1.109375
530.572265625	0.00833333333333333	1	30	1	1	0.8955078125
533.9296875	0.00833333333333333	1	-30	-9	1	1.009765625
537.3466796875	0.00833333333333333	1	-30	1	2	0.4326171875
540.205078125	0.00833333333333333	1	30	2	1	0.638671875
543.3212890625	0.00833333333333333	1	-30	0	2	0.5146484375
546.1298828125	0.00833333333333333	1	30	0	1	1.1220703125
549.3466796875	0.00833333333333333	1	NaN	-2	1	1.193359375
552.6962890625	0.00833333333333333	1	NaN	-1	1	0.900390625
556.0966796875	0.00833333333333333	1	NaN	-3	1	1.0751953125
559.587890625	0.00833333333333333	1	NaN	-2	1	0.6650390625
562.5712890625	0.00833333333333333	1	NaN	-1	2	0.8251953125
565.86328125	0.00833333333333333	1	-30	-1	2	0.60546875
568.6875	0.00833333333333333	1	NaN	-2	1	0.861328125
571.6884765625	0.00833333333333333	1	30	3	2	0.7646484375
574.87109375	0.00833333333333333	1	NaN	0	2	0.822265625
577.9130859375	0.00833333333333333	1	30	2	2	1.5166015625
581.5546875	0.00833333333333333	1	-30	-2	2	0.642578125
584.3056640625	0.00833333333333333	1	-30	-3	2	0.611328125
587.4130859375	0.00833333333333333	1	30	1	1	0.744140625
590.62109375	0.00833333333333333	1	30	1	1	0.712890625
593.6630859375	0.00833333333333333	1	30	2	2	0.982421875
596.962890625	0.00833333333333333	1	30	2	2	0.7392578125
600.2294921875	0.00833333333333333	1	30	1	1	0.7763671875
603.37890625	0.00833333333333333	1	-30	-4	2	0.5712890625
606.12109375	0.00833333333333333	1	30	1	2	0.46875
608.845703125	0.00833333333333333	1	NaN	-1	2	0.5439453125
611.75390625	0.00833333333333333	1	-30	-5	2	0.6201171875
614.830078125	0.00833333333333333	1	30	2	2	1.1201171875
618.3876953125	0.00833333333333333	1	30	0	2	1.2109375
621.7373046875	0.00833333333333333	1	30	-1	1	0.7734375
624.7041015625	0.00833333333333333	1	-30	-6	2	0.75
627.978515625	0.00833333333333333	1	NaN	-2	2	0.8603515625
631.2783203125	0.00833333333333333	1	NaN	-3	1	1.0322265625
634.50390625	0.00833333333333333	1	NaN	-1	2	0.6396484375
637.62890625	0.00833333333333333	1	30	0	2	0.76171875
640.9287109375	0.00833333333333333	1	30	-1	1	0.5986328125
643.970703125	0.00833333333333333	1	NaN	-2	2	0.7080078125
646.787109375	0.00833333333333333	1	30	0	1	0.64453125
649.728515625	0.00833333333333333	1	NaN	-2	2	0.87109375
653.12890625	0.00833333333333333	1	30	1	1	0.806640625
656.2119140625	0.00833333333333333	1	30	1	2	0.68359375
659.103515625	0.00833333333333333	1	NaN	-3	1	0.6083984375
662.1376953125	0.00833333333333333	1	-30	-7	2	0.58203125
665.0029296875	0.00833333333333333	1	30	0	1	0.6689453125
667.7041015625	0.00833333333333333	1	NaN	-2	1	0.7041015625
670.9208984375	0.00833333333333333	1	-30	-8	2	0.6953125
674.0615234375	0.00833333333333333	1	30	1	1	0.810546875
677.169921875	0.00833333333333333	1	30	2	2	1.3505859375
680.611328125	0.00833333333333333	1	NaN	-1	2	1.28515625
684.361328125	0.00833333333333333	1	NaN	-3	1	0.86328125
687.544921875	0.00833333333333333	1	-30	-9	2	0.767578125
690.552734375	0.00833333333333333	1	30	2	2	0.6083984375
693.26953125	0.00833333333333333	1	30	1	1	1.35546875
696.927734375	0.00833333333333333	1	30	1	1	0.712890625
699.994140625	0.00833333333333333	1	NaN	-2	1	1.447265625
703.7109375	0.00833333333333333	1	-30	-10	1	1.39453125
707.310546875	0.00833333333333333	1	NaN	-2	1	0.818359375
710.2939453125	0.00833333333333333	1	NaN	-1	1	0.8837890625
713.34375	0.00833333333333333	1	NaN	-1	2	0.5859375
716.4775390625	0.00833333333333333	1	-30	-9	1	1.5244140625
720.419921875	0.00833333333333333	1	NaN	-2	1	0.662109375
723.328125	0.00833333333333333	1	NaN	-1	1	0.5458984375
726.0107421875	0.00833333333333333	1	-30	-8	1	0.4794921875
728.7939453125	0.00833333333333333	1	NaN	0	1	0.9677734375
732.1357421875	0.00833333333333333	1	30	2	2	1.1220703125
735.6865234375	0.00833333333333333	1	NaN	0	1	0.7958984375
738.6357421875	0.00833333333333333	1	-30	-7	2	0.6142578125
741.3857421875	0.00833333333333333	1	NaN	1	2	0.6962890625
744.6103515625	0.00833333333333333	1	-30	-8	2	0.720703125
747.5439453125	0.00833333333333333	1	-30	-9	1	1.0908203125
750.828125	0.00833333333333333	1	NaN	0	1	0.8388671875
753.9775390625	0.00833333333333333	1	NaN	1	2	0.9931640625
757.5107421875	0.00833333333333333	1	-30	-8	1	0.8359375
760.6103515625	0.00833333333333333	1	-30	-7	2	0.736328125
763.5185546875	0.00833333333333333	1	-30	-8	2	0.8125
766.4853515625	0.00833333333333333	1	-30	-9	1	0.7177734375
769.51953125	0.00833333333333333	1	-30	-8	1	1.34765625
773.0185546875	0.00833333333333333	1	-30	-7	2	1.201171875
776.54296875	0.00833333333333333	1	-30	-8	2	1.1884765625
780.193359375	0.00833333333333333	1	-30	-9	1	1.162109375
783.8427734375	0.00833333333333333	1	-30	-8	2	0.7529296875
787.068359375	0.00833333333333333	1	-30	-9	1	1.2392578125
790.66796875	0.00833333333333333	1	-30	-8	1	1.0166015625
793.9677734375	0.00833333333333333	1	-30	-7	1	1.412109375
797.634765625	0.00833333333333333	1	-30	-6	2	1.3935546875
801.326171875	0.00833333333333333	1	-30	-8.83333333333333	2	0.6064453125
804.1435546875	0.00833333333333333	1	30	1.41666666666667	1	1.7568359375
808.2099609375	0.00833333333333333	1	-30	-8.95833333333333	2	0.939453125
811.5927734375	0.00833333333333333	1	30	0.416666666666667	1	0.8125
814.9365234375	0.00833333333333333	1	-30	-9.08333333333333	2	0.7724609375
818.17578125	0.00833333333333333	1	30	1.54166666666667	2	0.765625
821.201171875	0.00833333333333333	1	-30	-7.83333333333333	2	0.6044921875
824.0009765625	0.00833333333333333	1	-30	-9.20833333333333	2	0.6123046875
826.7431640625	0.00833333333333333	1	NaN	-0.833333333333333	1	1.181640625
886.5087890625	0.00833333333333333	1	NaN	-1.83333333333333	1	0.986328125
889.7666015625	0.00833333333333333	1	-30	-7.95833333333333	1	1.728515625
893.8837890625	0.00833333333333333	1	NaN	-1.70833333333333	1	1.1796875
897.3330078125	0.00833333333333333	1	-30	-9.33333333333333	1	1.1865234375
900.5078125	0.00833333333333333	1	NaN	-0.708333333333333	2	1.099609375
903.859375	0.00833333333333333	1	NaN	-0.833333333333333	1	0.97265625
907.1748046875	0.00833333333333333	1	-30	-7.83333333333333	1	1.1689453125
910.416015625	0.00833333333333333	1	NaN	-1.58333333333333	2	2.17578125
915.1083984375	0.00833333333333333	1	NaN	-0.708333333333333	2	0.8759765625
918.44140625	0.00833333333333333	1	-30	-7.70833333333333	1	1.7509765625
922.4580078125	0.00833333333333333	1	NaN	-0.833333333333333	1	0.9580078125
925.5751953125	0.00833333333333333	1	NaN	-0.708333333333333	1	0.9609375
928.8994140625	0.00833333333333333	1	30	0.541666666666667	2	2.5654296875
933.8076171875	0.00833333333333333	1	30	0.416666666666667	1	1.1611328125
937.4912109375	0.00833333333333333	1	NaN	-1.70833333333333	1	1.0302734375
941.0322265625	0.00833333333333333	1	30	0.541666666666667	1	2.697265625
945.82421875	0.00833333333333333	1	30	0.666666666666667	2	2.697265625
951.08203125	0.00833333333333333	1	NaN	-1.58333333333333	2	21.6640625
975.3486328125	0.00833333333333333	1	30	0.541666666666667	1	1.4052734375
978.8408203125	0.00833333333333333	1	NaN	-1.70833333333333	1	1.11328125
981.9736328125	0.00833333333333333	1	-30	-7.58333333333333	1	2.2451171875
986.306640625	0.00833333333333333	1	NaN	-1.58333333333333	1	1.0234375
989.6650390625	0.00833333333333333	1	NaN	-0.583333333333333	2	0.7138671875
992.6318359375	0.00833333333333333	1	30	0.666666666666667	1	1.73828125
996.8486328125	0.00833333333333333	1	30	0.791666666666667	2	1.498046875
1000.82421875	0.00833333333333333	1	30	0.666666666666667	1	1.2666015625
1004.3896484375	0.00833333333333333	1	30	1.41666666666667	2	0.7734375
1007.373046875	0.00833333333333333	1	NaN	-0.708333333333333	2	0.685546875
1010.3232421875	0.00833333333333333	1	-30	-7.45833333333333	2	0.65625
1013.248046875	0.00833333333333333	1	NaN	-0.833333333333333	2	0.6591796875
1015.990234375	0.00833333333333333	1	30	0.791666666666667	2	0.724609375
1019.0478515625	0.00833333333333333	1	-30	-9.20833333333333	2	0.68359375
1022.2734375	0.00833333333333333	1	NaN	-0.958333333333333	2	0.642578125
1025.28125	0.00833333333333333	1	30	1.29166666666667	2	0.826171875
1028.1904296875	0.00833333333333333	1	-30	-9.33333333333333	1	0.796875
1031.2734375	0.00833333333333333	1	-30	-9.20833333333333	2	0.8740234375
1034.58984375	0.00833333333333333	1	-30	-7.58333333333333	1	0.6943359375
1037.373046875	0.00833333333333333	1	-30	-7.45833333333333	1	0.5986328125
1040.28125	0.00833333333333333	1	NaN	-1.08333333333333	2	0.5712890625
1043.1982421875	0.00833333333333333	1	-30	-7.33333333333333	2	0.734375
1046.08984375	0.00833333333333333	1	-30	-9.33333333333333	1	0.6025390625
1049.072265625	0.00833333333333333	1	-30	-7.45833333333333	2	0.732421875
1052.107421875	0.00833333333333333	1	NaN	-1.45833333333333	2	0.7373046875
1054.9306640625	0.00833333333333333	1	-30	-9.20833333333333	1	1.2744140625
1058.748046875	0.00833333333333333	1	30	0.666666666666667	2	0.9443359375
1061.9892578125	0.00833333333333333	1	-30	-9.08333333333333	1	0.6953125
1065.1806640625	0.00833333333333333	1	30	0.541666666666667	1	0.8564453125
1068.4892578125	0.00833333333333333	1	NaN	-1.20833333333333	2	0.603515625
1071.513671875	0.00833333333333333	1	30	0.666666666666667	2	1.2353515625
1075.23046875	0.00833333333333333	1	30	0.541666666666667	1	1.0791015625
1078.59765625	0.00833333333333333	1	NaN	-1.58333333333333	2	0.7353515625
1081.9140625	0.00833333333333333	1	-30	-7.58333333333333	1	0.8759765625
1084.9892578125	0.00833333333333333	1	NaN	-1.33333333333333	2	0.671875
1088.10546875	0.00833333333333333	1	NaN	-1.70833333333333	2	0.6201171875
1091.138671875	0.00833333333333333	1	30	1.16666666666667	2	0.6591796875
1094.09765625	0.00833333333333333	1	-30	-8.95833333333333	1	0.8525390625
1097.0048828125	0.00833333333333333	1	30	1.04166666666667	1	0.849609375
1099.947265625	0.00833333333333333	1	-30	-7.45833333333333	1	0.5703125
1102.5634765625	0.00833333333333333	1	30	1.16666666666667	2	0.642578125
1105.3388671875	0.00833333333333333	1	30	0.666666666666667	1	0.70703125
1108.4970703125	0.00833333333333333	1	NaN	-1.45833333333333	1	0.716796875
1111.36328125	0.00833333333333333	1	30	1.04166666666667	1	0.634765625
1114.421875	0.00833333333333333	1	-30	-8.83333333333333	1	0.6640625
1117.4130859375	0.00833333333333333	1	30	0.791666666666667	1	0.4091796875
1120.0224609375	0.00833333333333333	1	NaN	-1.83333333333333	2	0.7763671875
1123.11328125	0.00833333333333333	1	-30	-8.70833333333333	1	0.708984375
1125.896484375	0.00833333333333333	1	-30	-8.58333333333333	1	0.822265625
1129.1630859375	0.00833333333333333	1	-30	-8.45833333333333	1	0.6923828125
1132.1298828125	0.00833333333333333	1	NaN	-1.33333333333333	2	0.6376953125
1135.11328125	0.00833333333333333	1	NaN	-1.45833333333333	2	0.685546875
1138.296875	0.00833333333333333	1	-30	-7.33333333333333	1	0.71875
1141.271484375	0.00833333333333333	1	NaN	-1.95833333333333	1	1
1144.521484375	0.00833333333333333	1	30	0.916666666666667	1	0.814453125
1147.712890625	0.00833333333333333	1	NaN	-1.83333333333333	2	0.6630859375
1150.6708984375	0.00833333333333333	1	-30	-7.20833333333333	2	0.7451171875
1153.8544921875	0.00833333333333333	1	-30	-7.33333333333333	1	0.7138671875
1156.7626953125	0.00833333333333333	1	-30	-7.20833333333333	1	0.8056640625
1159.9296875	0.00833333333333333	1	NaN	-1.95833333333333	2	0.55859375
1162.6708984375	0.00833333333333333	1	30	1.04166666666667	1	0.6171875
1165.7294921875	0.00833333333333333	1	-30	-8.33333333333333	1	0.5908203125
1168.3876953125	0.00833333333333333	1	30	1.16666666666667	1	0.8681640625
1171.6875	0.00833333333333333	1	NaN	-1.58333333333333	1	0.048828125
1174.2294921875	0.00833333333333333	1	NaN	-1.45833333333333	2	0.6513671875
1177.1123046875	0.00833333333333333	1	-30	-7.08333333333333	1	0.736328125
1179.955078125	0.00833333333333333	1	30	1.29166666666667	2	0.7333984375
1183.0126953125	0.00833333333333333	1	30	1.16666666666667	2	0.7724609375
1185.8623046875	0.00833333333333333	1	NaN	-2.08333333333333	1	1.05859375
1208.4375	0.00833333333333333	1	NaN	-1.58333333333333	1	0.8603515625
1211.62109375	0.00833333333333333	1	-30	-6.95833333333333	1	1.29296875
1215.1201171875	0.00833333333333333	1	-30	-8.20833333333333	2	0.9296875
1218.279296875	0.00833333333333333	1	-30	-8.33333333333333	2	1.2421875
1221.8369140625	0.00833333333333333	1	NaN	-1.95833333333333	1	0.6455078125
1224.8291015625	0.00833333333333333	1	30	1.04166666666667	1	0.6767578125
1227.728515625	0.00833333333333333	1	30	1.16666666666667	1	0.826171875
1230.8037109375	0.00833333333333333	1	30	1.29166666666667	1	0.71875
1234.01171875	0.00833333333333333	1	NaN	-1.45833333333333	2	0.630859375
1236.8955078125	0.00833333333333333	1	-30	-8.45833333333333	1	0.69921875
1239.7451171875	0.00833333333333333	1	NaN	-1.58333333333333	2	0.609375
1242.595703125	0.00833333333333333	1	-30	-6.83333333333333	1	0.4951171875
1245.5712890625	0.00833333333333333	1	-30	-8.33333333333333	2	0.615234375
1248.6611328125	0.00833333333333333	1	-30	-6.70833333333333	2	0.662109375
1251.8212890625	0.00833333333333333	1	30	1.41666666666667	1	0.6376953125
1254.76953125	0.00833333333333333	1	-30	-6.83333333333333	2	0.6259765625
1257.5693359375	0.00833333333333333	1	-30	-6.95833333333333	2	0.578125
1260.6611328125	0.00833333333333333	1	NaN	-1.70833333333333	2	0.7021484375
1263.5859375	0.00833333333333333	1	30	1.54166666666667	1	0.9052734375
1266.6611328125	0.00833333333333333	1	30	1.16666666666667	1	1.55078125
1270.5859375	0.00833333333333333	1	30	1.29166666666667	2	0.9140625
1273.89453125	0.00833333333333333	1	30	1.66666666666667	2	0.861328125
1276.8857421875	0.00833333333333333	1	NaN	-1.83333333333333	2	0.55859375
1279.51953125	0.00833333333333333	1	NaN	-1.95833333333333	2	0.6845703125
1282.302734375	0.00833333333333333	1	30	1.54166666666667	2	0.685546875
1285.287109375	0.00833333333333333	1	-30	-7.08333333333333	2	0.6689453125
1288.111328125	0.00833333333333333	1	NaN	-2.08333333333333	2	1.1171875
1291.6357421875	0.00833333333333333	1	30	1.16666666666667	2	1.2646484375
1295.01953125	0.00833333333333333	1	30	1.41666666666667	2	1.1689453125
1298.302734375	0.00833333333333333	1	-30	-7.20833333333333	2	1.677734375
1302.185546875	0.00833333333333333	1	30	1.04166666666667	2	0.8115234375
1305.4853515625	0.00833333333333333	1	NaN	-1.83333333333333	2	0.7998046875
1308.4443359375	0.00833333333333333	1	30	1.29166666666667	2	1.0322265625
1311.5693359375	0.00833333333333333	1	-30	-7.33333333333333	2	0.84375
1314.9189453125	0.00833333333333333	1	-30	-8.45833333333333	1	0.7822265625
1317.744140625	0.00833333333333333	1	-30	-7.45833333333333	1	0.97265625
1321.02734375	0.00833333333333333	1	NaN	-1.95833333333333	1	0.841796875
1324.01953125	0.00833333333333333	1	30	1.16666666666667	1	1.490234375
1328.001953125	0.00833333333333333	1	30	1.29166666666667	2	0.7314453125
1330.935546875	0.00833333333333333	1	-30	-7.33333333333333	2	0.9658203125
1334.0849609375	0.00833333333333333	1	NaN	-2.20833333333333	1	1.1611328125
1337.71875	0.00833333333333333	1	NaN	-2.08333333333333	1	0.8310546875
1340.7607421875	0.00833333333333333	1	30	0.916666666666667	1	0.9248046875
1343.8515625	0.00833333333333333	1	-30	-7.45833333333333	1	0.6181640625
1346.7099609375	0.00833333333333333	1	-30	-8.33333333333333	1	0.904296875
1349.7353515625	0.00833333333333333	1	-30	-8.20833333333333	1	0.6953125
1352.685546875	0.00833333333333333	1	-30	-8.08333333333333	1	0.720703125
1355.9013671875	0.00833333333333333	1	30	1.04166666666667	1	0.6728515625
1358.701171875	0.00833333333333333	1	30	1.16666666666667	1	0.8173828125
1361.810546875	0.00833333333333333	1	NaN	-1.95833333333333	1	0.7880859375
1364.9931640625	0.00833333333333333	1	-30	-7.33333333333333	2	1.373046875
1368.626953125	0.00833333333333333	1	-30	-7.45833333333333	1	0.755859375
1371.6181640625	0.00833333333333333	1	-30	-7.95833333333333	1	0.740234375
1374.8349609375	0.00833333333333333	1	NaN	-1.83333333333333	1	1.1240234375
1378.318359375	0.00833333333333333	1	NaN	-1.83333333333333	1	0.9453125
1381.4091796875	0.00833333333333333	1	-30	-7.33333333333333	1	0.8701171875
1384.8017578125	0.00833333333333333	1	NaN	-1.70833333333333	1	0.853515625
1388.076171875	0.00833333333333333	1	NaN	-1.58333333333333	1	0.603515625
1390.8525390625	0.00833333333333333	1	-30	-7.83333333333333	1	0.70703125
1393.734375	0.00833333333333333	1	NaN	-1.70833333333333	1	0.705078125
1396.734375	0.00833333333333333	1	-30	-7.70833333333333	1	0.6650390625
1399.66796875	0.00833333333333333	1	-30	-7.20833333333333	1	0.587890625
1402.326171875	0.00833333333333333	1	-30	-7.58333333333333	1	0.76171875
1405.4677734375	0.00833333333333333	1	-30	-7.45833333333333	1	0.6767578125
1408.451171875	0.00833333333333333	1	-30	-7.08333333333333	1	1.029296875
1411.9677734375	0.00833333333333333	1	NaN	-1.58333333333333	2	0.7841796875
1414.833984375	0.00833333333333333	1	-30	-6.95833333333333	1	1.0703125
1418.1591796875	0.00833333333333333	1	-30	-7.33333333333333	1	1.7216796875
1422.0009765625	0.00833333333333333	1	-30	-7.20833333333333	1	1.3994140625
1425.818359375	0.00833333333333333	1	NaN	-1.70833333333333	1	1.2783203125
1429.275390625	0.00833333333333333	1	NaN	-1.45833333333333	1	0.7490234375
1432.4921875	0.00833333333333333	1	30	1.29166666666667	2	1.4287109375
1436.1171875	0.00833333333333333	1	-30	-6.83333333333333	1	1.1484375
1439.767578125	0.00833333333333333	1	30	1.16666666666667	1	1.2333984375
1443.18359375	0.00833333333333333	1	NaN	-1.58333333333333	2	0.7861328125
1446.3251953125	0.00833333333333333	1	30	1.29166666666667	2	0.65234375
1449.1337890625	0.00833333333333333	1	NaN	-1.70833333333333	2	0.931640625
1452.2177734375	0.00833333333333333	1	NaN	-1.33333333333333	2	0.6318359375
1455.30078125	0.00833333333333333	1	-30	-6.70833333333333	2	1.212890625
1458.5	0.00833333333333333	1	30	1.16666666666667	2	0.845703125
1461.6171875	0.00833333333333333	1	-30	-6.83333333333333	2	1.736328125
1465.80859375	0.00833333333333333	1	-30	-6.95833333333333	1	1.3134765625
1469.466796875	0.00833333333333333	1	-30	-7.08333333333333	1	0.8076171875
1472.525390625	0.00833333333333333	1	-30	-6.95833333333333	1	0.6845703125
1475.5	0.00833333333333333	1	-30	-6.83333333333333	1	0.9267578125
1478.7001953125	0.00833333333333333	1	NaN	-1.83333333333333	1	1.166015625
1481.908203125	0.00833333333333333	1	NaN	-1.45833333333333	1	0.9990234375
1485.0078125	0.00833333333333333	1	30	1.04166666666667	2	1.1552734375
1488.43359375	0.00833333333333333	1	NaN	-1.70833333333333	2	1.1611328125
1491.9501953125	0.00833333333333333	1	30	0.916666666666667	1	1.068359375
1495.216796875	0.00833333333333333	1	30	1.04166666666667	2	1.21875
1498.6748046875	0.00833333333333333	1	30	0.916666666666667	2	0.736328125
1501.533203125	0.00833333333333333	1	NaN	-1.33333333333333	2	0.853515625
1504.80859375	0.00833333333333333	1	-30	-6.70833333333333	1	0.6826171875
1507.6416015625	0.00833333333333333	1	30	0.791666666666667	2	0.8095703125
1559.69921875	0.00833333333333333	1	-30	-6.58333333333333	1	0.8173828125
1562.791015625	0.00833333333333333	1	30	0.666666666666667	1	1.0458984375
1566.2568359375	0.00833333333333333	1	-30	-6.45833333333333	2	0.65234375
1569.2158203125	0.00833333333333333	1	30	0.791666666666667	1	0.58984375
1571.9912109375	0.00833333333333333	1	30	0.916666666666667	1	0.654296875
1574.9482421875	0.00833333333333333	1	30	1.04166666666667	1	0.6494140625
1577.8486328125	0.00833333333333333	1	-30	-6.58333333333333	2	0.63671875
1580.748046875	0.00833333333333333	1	30	1.16666666666667	1	0.6015625
1583.58203125	0.00833333333333333	1	30	1.29166666666667	1	1.6162109375
1587.390625	0.00833333333333333	1	30	1.41666666666667	1	1.7275390625
1591.15625	0.00833333333333333	1	30	1.54166666666667	2	0.6494140625
1594.1318359375	0.00833333333333333	1	30	1.41666666666667	1	0.71484375
1597.248046875	0.00833333333333333	1	30	1.54166666666667	1	1.005859375
1600.4814453125	0.00833333333333333	1	-30	-6.70833333333333	2	0.63671875
1603.3232421875	0.00833333333333333	1	-30	-6.83333333333333	2	0.5390625
1606.0234375	0.00833333333333333	1	30	1.66666666666667	1	0.5673828125
1608.6650390625	0.00833333333333333	1	-30	-6.95833333333333	2	0.60546875
1611.3486328125	0.00833333333333333	1	30	1.79166666666667	2	0.6982421875
1614.28125	0.00833333333333333	1	-30	-7.08333333333333	2	0.60546875
1616.9072265625	0.00833333333333333	1	-30	-7.20833333333333	2	0.5234375
1619.607421875	0.00833333333333333	1	-30	-7.33333333333333	2	0.5361328125
1622.5234375	0.00833333333333333	1	-30	-7.45833333333333	2	0.5234375
1625.4326171875	0.00833333333333333	1	-30	-7.58333333333333	2	0.5029296875
1628.2060546875	0.00833333333333333	1	-30	-7.70833333333333	2	0.7216796875
1631.40625	0.00833333333333333	1	-30	-7.83333333333333	2	1.9208984375
1635.431640625	0.00833333333333333	1	-30	-7.95833333333333	2	1.095703125
1638.5810546875	0.00833333333333333	1	-30	-8.08333333333333	2	0.642578125
1641.623046875	0.00833333333333333	1	-30	-8.20833333333333	2	0.65625
1644.7568359375	0.00833333333333333	1	-30	-8.33333333333333	2	0.5556640625
1647.7060546875	0.00833333333333333	1	-30	-8.45833333333333	2	0.509765625
1650.2392578125	0.00833333333333333	1	-30	-8.58333333333333	1	0.79296875
1653.10546875	0.00833333333333333	1	-30	-8.45833333333333	1	0.822265625
1656.2724609375	0.00833333333333333	1	-30	-8.33333333333333	1	0.599609375
1659.2724609375	0.00833333333333333	1	-30	-8.20833333333333	1	0.599609375
1661.9970703125	0.00833333333333333	1	-30	-8.08333333333333	1	0.69921875
1664.8642578125	0.00833333333333333	1	-30	-7.95833333333333	1	0.7841796875
1667.763671875	0.00833333333333333	1	-30	-7.83333333333333	1	0.732421875
1670.8974609375	0.00833333333333333	1	-30	-7.70833333333333	2	0.8310546875
1674.10546875	0.00833333333333333	1	-30	-7.83333333333333	2	0.52734375
1677.09765625	0.00833333333333333	1	-30	-7.95833333333333	1	0.966796875
1680.322265625	0.00833333333333333	1	-30	-7.83333333333333	2	0.54296875
1683.0556640625	0.00833333333333333	1	-30	-7.95833333333333	2	0.5849609375
1686.130859375	0.00833333333333333	1	-30	-8.08333333333333	2	0.8466796875
1689.123046875	0.00833333333333333	1	-30	-8.20833333333333	2	0.654296875
1692.33984375	0.00833333333333333	1	-30	-8.33333333333333	2	0.7578125
1695.6630859375	0.00833333333333333	1	-30	-8.45833333333333	1	0.9619140625
1698.97265625	0.00833333333333333	0	30	1.08541666666667	1	0.97265625
1702.4150390625	0.00833333333333333	0	-30	-7.62083333333333	2	0.71484375
1705.2470703125	0.00833333333333333	0	30	1.08541666666667	2	0.794921875
1708.2978515625	0.00833333333333333	0	-30	-7.62083333333333	2	0.9921875
1711.5224609375	0.00833333333333333	0	30	1.08541666666667	2	0.759765625
1714.73046875	0.00833333333333333	0	-30	-7.62083333333333	2	0.751953125
1717.830078125	0.00833333333333333	0	30	1.08541666666667	2	0.8046875
1721.1552734375	0.00833333333333333	0	30	1.08541666666667	2	0.8154296875
1724.0556640625	0.00833333333333333	0	30	1.08541666666667	2	0.7470703125
1726.99609375	0.00833333333333333	0	30	0.960416666666666	2	0.58984375
1730.11328125	0.00833333333333333	0	30	0.960416666666666	2	1.3056640625
1733.8642578125	0.00833333333333333	0	30	0.960416666666666	2	0.73046875
1736.8798828125	0.00833333333333333	0	30	0.960416666666666	1	1.474609375
1740.830078125	0.00833333333333333	0	30	0.960416666666666	2	0.98046875
1744.1220703125	0.00833333333333333	0	-30	-7.62083333333333	2	1.857421875
1748.36328125	0.00833333333333333	0	-30	-7.62083333333333	1	0.759765625
1751.24609375	0.00833333333333333	0	-30	-7.62083333333333	2	0.96484375
1754.5546875	0.00833333333333333	0	30	0.960416666666666	2	0.7763671875
1757.3798828125	0.00833333333333333	0	-30	-7.62083333333333	2	0.5517578125
1760.337890625	0.00833333333333333	0	-30	-7.62083333333333	2	1.2177734375
1763.888671875	0.00833333333333333	0	30	0.960416666666666	2	0.619140625
1766.654296875	0.00833333333333333	0	30	0.960416666666666	1	0.517578125
1769.4794921875	0.00833333333333333	0	30	0.960416666666666	1	1.4765625
1773.029296875	0.00833333333333333	0	30	0.960416666666666	2	1.287109375
1776.8876953125	0.00833333333333333	0	-30	-7.62083333333333	2	0.732421875
1780.12109375	0.00833333333333333	0	-30	-7.62083333333333	2	0.68359375
1783.3037109375	0.00833333333333333	0	-30	-7.74583333333333	2	0.5966796875
1786.220703125	0.00833333333333333	0	30	0.960416666666666	2	0.5439453125
1788.970703125	0.00833333333333333	0	-30	-7.74583333333333	1	0.8095703125
1791.87109375	0.00833333333333333	0	30	0.960416666666666	1	0.62109375
1794.919921875	0.00833333333333333	0	-30	-7.74583333333333	1	0.7646484375
1797.9453125	0.00833333333333333	0	-30	-7.74583333333333	2	0.7392578125
1800.7705078125	0.00833333333333333	0	30	0.960416666666666	1	0.72265625
1803.6533203125	0.00833333333333333	0	-30	-7.74583333333333	2	1.2880859375
1807.294921875	0.00833333333333333	0	30	0.960416666666666	2	1.1826171875
1810.76171875	0.00833333333333333	0	-30	-7.74583333333333	2	1.5634765625
1814.4365234375	0.00833333333333333	0	-30	-7.74583333333333	2	0.5849609375
1817.4619140625	0.00833333333333333	0	-30	-7.74583333333333	1	0.7197265625
1820.419921875	0.00833333333333333	0	-30	-7.74583333333333	1	0.666015625
1823.3623046875	0.00833333333333333	0	30	0.960416666666666	2	0.619140625
1826.5029296875	0.00833333333333333	0	-30	-7.74583333333333	1	0.7666015625
1829.38671875	0.00833333333333333	0	30	0.960416666666666	2	0.5869140625
1832.51953125	0.00833333333333333	0	30	0.960416666666666	2	0.6787109375
1835.654296875	0.00833333333333333	0	-30	-7.74583333333333	1	0.7041015625
1838.845703125	0.00833333333333333	0	30	0.960416666666666	1	0.6884765625
1841.64453125	0.00833333333333333	0	30	0.960416666666666	2	0.6416015625
1844.453125	0.00833333333333333	0	30	0.960416666666666	1	0.6650390625
1847.328125	0.00833333333333333	0	-30	-7.74583333333333	2	0.5107421875
1850.044921875	0.00833333333333333	0	30	0.960416666666666	2	0.6494140625
1853.1025390625	0.00833333333333333	0	-30	-7.74583333333333	1	0.6396484375
1855.787109375	0.00833333333333333	0	-30	-7.74583333333333	1	0.6435546875
1858.4365234375	0.00833333333333333	0	-30	-7.74583333333333	2	0.650390625
1861.369140625	0.00833333333333333	0	30	0.960416666666666	2	0.75
1864.51953125	0.00833333333333333	0	-30	-7.74583333333333	1	0.623046875
1867.4033203125	0.00833333333333333	0	-30	-7.74583333333333	1	0.6357421875
1870.1025390625	0.00833333333333333	0	30	0.960416666666666	1	0.5205078125
1872.703125	0.00833333333333333	0	30	0.960416666666666	1	0.5283203125
1875.3447265625	0.00833333333333333	0	30	0.960416666666666	2	0.7587890625
1878.2021484375	0.00833333333333333	0	30	0.960416666666666	1	0.7412109375
1881.3271484375	0.00833333333333333	0	30	0.960416666666666	2	0.8486328125
1884.46875	0.00833333333333333	0	30	0.960416666666666	1	0.69140625
1887.59375	0.00833333333333333	0	30	0.960416666666666	1	0.6376953125
1890.353515625	0.00833333333333333	0	30	0.960416666666666	1	0.638671875
1893.251953125	0.00833333333333333	0	30	0.960416666666666	1	0.6279296875
1896.3525390625	0.00833333333333333	0	30	0.960416666666666	1	0.6240234375
1899.310546875	0.00833333333333333	0	-30	-7.74583333333333	1	0.529296875
1902.2529296875	0.00833333333333333	0	30	1.08541666666667	1	0.4912109375
1905.185546875	0.00833333333333333	0	-30	-7.74583333333333	1	0.455078125
1908.0029296875	0.00833333333333333	0	-30	-7.74583333333333	1	0.509765625
1910.9599609375	0.00833333333333333	0	30	1.08541666666667	1	0.49609375
1913.5771484375	0.00833333333333333	0	-30	-7.62083333333333	1	0.5029296875
1916.1103515625	0.00833333333333333	0	-30	-7.62083333333333	1	0.5947265625
1918.90234375	0.00833333333333333	0	-30	-7.62083333333333	1	0.7060546875
1921.91015625	0.00833333333333333	0	30	1.08541666666667	2	0.71484375
1924.8193359375	0.00833333333333333	0	30	1.08541666666667	2	0.509765625
1927.59375	0.00833333333333333	0	30	1.08541666666667	2	0.591796875
1930.619140625	0.00833333333333333	0	-30	-7.62083333333333	2	0.5576171875
1933.4931640625	0.00833333333333333	0	-30	-7.62083333333333	1	1.01171875
1936.5859375	0.00833333333333333	0	-30	-7.62083333333333	2	1.19140625
1940.177734375	0.00833333333333333	0	30	1.08541666666667	2	0.607421875
1992.91796875	0.00833333333333333	0	-30	-7.62083333333333	1	3.9013671875
1999.310546875	0.00833333333333333	0	30	1.08541666666667	2	2.2607421875
2004.083984375	0.00833333333333333	0	-30	-7.62083333333333	1	0.9755859375
2007.3671875	0.00833333333333333	0	30	0.960416666666666	1	0.9091796875
2010.5263671875	0.00833333333333333	0	-30	-7.62083333333333	2	0.7890625
2013.5927734375	0.00833333333333333	0	-30	-7.62083333333333	1	1.4912109375
2017.3837890625	0.00833333333333333	0	-30	-7.62083333333333	1	0.7880859375
2020.2177734375	0.00833333333333333	0	30	0.960416666666666	2	0.9619140625
2023.4423828125	0.00833333333333333	0	30	0.960416666666666	2	1.009765625
2026.701171875	0.00833333333333333	0	-30	-7.62083333333333	1	0.7109375
2029.55078125	0.00833333333333333	0	-30	-7.62083333333333	1	0.685546875
2032.55078125	0.00833333333333333	0	-30	-7.62083333333333	1	0.75
2035.708984375	0.00833333333333333	0	30	0.960416666666666	2	1.103515625
2039.142578125	0.00833333333333333	0	30	0.960416666666666	2	0.734375
2042.083984375	0.00833333333333333	0	30	0.960416666666666	2	0.8251953125
2045.42578125	0.00833333333333333	0	-30	-7.49583333333333	2	1.955078125
2049.8916015625	0.00833333333333333	0	-30	-7.49583333333333	1	0.6650390625
2052.66796875	0.00833333333333333	0	-30	-7.49583333333333	1	0.712890625
2055.75	0.00833333333333333	0	30	0.835416666666666	2	0.6953125
2058.6669921875	0.00833333333333333	0	30	0.835416666666666	2	0.5947265625
2061.56640625	0.00833333333333333	0	30	0.835416666666666	2	0.783203125
2064.8994140625	0.00833333333333333	0	-30	-7.49583333333333	1	0.6337890625
2067.951171875	0.00833333333333333	0	-30	-7.49583333333333	1	0.630859375
2070.833984375	0.00833333333333333	0	30	0.835416666666666	2	0.5078125
2073.7919921875	0.00833333333333333	0	-30	-7.49583333333333	2	0.677734375
2076.7421875	0.00833333333333333	0	-30	-7.49583333333333	1	0.6640625
2079.5244140625	0.00833333333333333	0	-30	-7.49583333333333	1	0.537109375
2082.1669921875	0.00833333333333333	0	-30	-7.49583333333333	1	0.775390625
2085.1416015625	0.00833333333333333	0	30	0.835416666666666	2	0.720703125
2088.4091796875	0.00833333333333333	0	30	0.710416666666666	2	0.701171875
2091.5166015625	0.00833333333333333	0	30	0.710416666666666	2	0.5859375
2094.18359375	0.00833333333333333	0	30	0.710416666666666	2	0.599609375
2097.1337890625	0.00833333333333333	0	30	0.710416666666666	2	0.537109375
2099.7587890625	0.00833333333333333	0	30	0.710416666666666	2	0.6962890625
2102.6083984375	0.00833333333333333	0	30	0.585416666666666	2	0.654296875
2105.6240234375	0.00833333333333333	0	30	0.585416666666666	2	0.806640625
2108.8837890625	0.00833333333333333	0	30	0.585416666666666	2	0.787109375
2112.158203125	0.00833333333333333	0	-30	-7.49583333333333	1	0.697265625
2115.275390625	0.00833333333333333	0	30	0.585416666666666	2	1.0673828125
2118.8583984375	0.00833333333333333	0	-30	-7.49583333333333	1	0.62109375
2121.6826171875	0.00833333333333333	0	-30	-7.37083333333333	1	0.572265625
2124.6748046875	0.00833333333333333	0	30	0.585416666666666	1	0.8046875
2127.625	0.00833333333333333	0	30	0.585416666666666	1	0.5107421875
2130.4912109375	0.00833333333333333	0	30	0.585416666666666	1	0.66796875
2133.5751953125	0.00833333333333333	0	30	0.585416666666666	1	0.744140625
2136.8583984375	0.00833333333333333	0	30	0.585416666666666	2	0.8212890625
2140.08203125	0.00833333333333333	0	-30	-7.37083333333333	1	0.56640625
2143.1328125	0.00833333333333333	0	30	0.585416666666666	1	0.8671875
2146.0498046875	0.00833333333333333	0	30	0.585416666666666	1	0.5107421875
2148.724609375	0.00833333333333333	0	-30	-7.37083333333333	1	0.580078125
2151.482421875	0.00833333333333333	0	30	0.585416666666666	1	0.60546875
2154.2744140625	0.00833333333333333	0	-30	-7.37083333333333	1	0.517578125
2156.94140625	0.00833333333333333	0	-30	-7.37083333333333	1	0.794921875
2160.0244140625	0.00833333333333333	0	30	0.585416666666666	2	0.6640625
2162.798828125	0.00833333333333333	0	30	0.585416666666666	1	0.673828125
2165.9658203125	0.00833333333333333	0	30	0.585416666666666	1	0.71484375
2168.8740234375	0.00833333333333333	0	-30	-7.24583333333333	2	0.798828125
2171.9736328125	0.00833333333333333	0	30	0.585416666666666	1	0.603515625
2174.724609375	0.00833333333333333	0	30	0.585416666666666	1	0.6689453125
2177.923828125	0.00833333333333333	0	-30	-7.24583333333333	2	0.6611328125
2181.0986328125	0.00833333333333333	0	30	0.585416666666666	1	0.6708984375
2183.8154296875	0.00833333333333333	0	30	0.710416666666666	1	0.7783203125
2186.8232421875	0.00833333333333333	0	-30	-7.24583333333333	2	0.8349609375
2190.1982421875	0.00833333333333333	0	-30	-7.24583333333333	1	0.8037109375
2193.298828125	0.00833333333333333	0	30	0.710416666666666	1	0.646484375
2196.33203125	0.00833333333333333	0	30	0.710416666666666	1	1.853515625
2200.482421875	0.00833333333333333	0	-30	-7.24583333333333	2	0.83203125
2203.5908203125	0.00833333333333333	0	30	0.710416666666666	1	0.916015625
2206.9990234375	0.00833333333333333	0	-30	-7.24583333333333	1	0.7626953125
2209.8408203125	0.00833333333333333	0	-30	-7.24583333333333	1	0.625
2212.8486328125	0.00833333333333333	0	-30	-7.24583333333333	1	0.8818359375
2216.2490234375	0.00833333333333333	0	30	0.710416666666666	1	0.6494140625
2219.2900390625	0.00833333333333333	0	-30	-7.24583333333333	1	1.2568359375
2222.673828125	0.00833333333333333	0	-30	-7.24583333333333	1	0.7294921875
2225.73046875	0.00833333333333333	0	30	0.835416666666666	1	0.6318359375
2228.615234375	0.00833333333333333	0	-30	-7.12083333333333	1	0.7880859375
2231.6904296875	0.00833333333333333	0	30	0.835416666666666	2	0.6328125
2234.4482421875	0.00833333333333333	0	30	0.835416666666666	2	0.73046875
2237.5234375	0.00833333333333333	0	-30	-7.12083333333333	1	0.7685546875
2240.65625	0.00833333333333333	0	-30	-7.12083333333333	1	0.810546875
2273.9560546875	0.00833333333333333	0	-30	-7.12083333333333	1	0.5361328125
2276.53125	0.00833333333333333	0	-30	-7.12083333333333	2	0.5849609375
2279.47265625	0.00833333333333333	0	30	0.835416666666666	1	0.587890625
2282.5224609375	0.00833333333333333	0	30	0.835416666666666	1	0.6259765625
2285.6064453125	0.00833333333333333	0	-30	-7.12083333333333	1	1.173828125
2288.97265625	0.00833333333333333	0	30	0.835416666666666	2	0.6162109375
2291.947265625	0.00833333333333333	0	30	0.835416666666666	1	0.7294921875
2294.7392578125	0.00833333333333333	0	-30	-7.12083333333333	1	0.697265625
2297.65625	0.00833333333333333	0	-30	-7.12083333333333	2	0.5810546875
2300.388671875	0.00833333333333333	0	-30	-7.12083333333333	1	0.6962890625
2303.48046875	0.00833333333333333	0	-30	-7.12083333333333	2	0.564453125
2306.505859375	0.00833333333333333	0	30	0.835416666666666	1	0.611328125
2309.447265625	0.00833333333333333	0	-30	-7.12083333333333	1	0.7900390625
2312.3056640625	0.00833333333333333	0	-30	-7.12083333333333	2	0.6435546875
2314.9892578125	0.00833333333333333	0	30	0.835416666666666	1	0.48046875
2317.755859375	0.00833333333333333	0	-30	-7.12083333333333	2	0.59375
2320.572265625	0.00833333333333333	0	-30	-7.12083333333333	2	0.77734375
2323.5302734375	0.00833333333333333	0	30	0.835416666666666	1	0.580078125
2326.34765625	0.00833333333333333	0	-30	-7.12083333333333	1	0.642578125
2329.3720703125	0.00833333333333333	0	30	0.835416666666666	2	0.650390625
2332.263671875	0.00833333333333333	0	-30	-7.12083333333333	2	0.5986328125
2334.9306640625	0.00833333333333333	0	-30	-7.12083333333333	2	0.7314453125
2337.85546875	0.00833333333333333	0	-30	-7.12083333333333	2	0.6708984375
2341.072265625	0.00833333333333333	0	-30	-7.12083333333333	1	0.638671875
2343.73828125	0.00833333333333333	0	-30	-7.12083333333333	2	0.5244140625
2346.6884765625	0.00833333333333333	0	30	0.835416666666666	2	0.59765625
2349.7294921875	0.00833333333333333	0	-30	-7.12083333333333	2	0.453125
2352.4638671875	0.00833333333333333	0	30	0.835416666666666	1	0.71875
2355.4384765625	0.00833333333333333	0	-30	-7.12083333333333	1	0.80078125
2358.4462890625	0.00833333333333333	0	30	0.835416666666666	2	0.5849609375
2361.330078125	0.00833333333333333	0	30	0.835416666666666	1	0.6533203125
2364.3212890625	0.00833333333333333	0	30	0.835416666666666	2	0.6298828125
2367.330078125	0.00833333333333333	0	30	0.835416666666666	2	0.677734375
2370.0791015625	0.00833333333333333	0	-30	-7.12083333333333	2	0.576171875
2372.9052734375	0.00833333333333333	0	-30	-7.12083333333333	1	1.470703125
2376.845703125	0.00833333333333333	0	-30	-7.12083333333333	2	1.185546875
2380.5966796875	0.00833333333333333	0	30	0.835416666666666	2	1.251953125
2384.0126953125	0.00833333333333333	0	-30	-7.12083333333333	1	1.1796875
2387.587890625	0.00833333333333333	0	30	0.835416666666666	1	0.65234375
2390.51171875	0.00833333333333333	0	30	0.835416666666666	2	0.736328125
2393.529296875	0.00833333333333333	0	-30	-7.12083333333333	2	0.5595703125
2396.5380859375	0.00833333333333333	0	30	0.835416666666666	2	0.669921875
2399.5712890625	0.00833333333333333	0	-30	-7.12083333333333	2	0.533203125
2402.3623046875	0.00833333333333333	0	30	0.835416666666666	2	0.4541015625
2405.0126953125	0.00833333333333333	0	-30	-7.12083333333333	2	0.6279296875
2407.8115234375	0.00833333333333333	0	-30	-7.12083333333333	1	1.205078125
2411.228515625	0.00833333333333333	0	30	0.835416666666666	1	0.740234375
2414.1044921875	0.00833333333333333	0	-30	-7.12083333333333	2	0.552734375
2416.8623046875	0.00833333333333333	0	-30	-7.12083333333333	2	0.626953125
2419.87109375	0.00833333333333333	0	-30	-7.12083333333333	2	0.6103515625
2422.87109375	0.00833333333333333	0	-30	-7.12083333333333	1	0.818359375
2425.8037109375	0.00833333333333333	0	30	0.835416666666666	1	0.7412109375
2428.9287109375	0.00833333333333333	0	30	0.835416666666666	2	0.7451171875
2431.8623046875	0.00833333333333333	0	30	0.835416666666666	1	1.515625
2435.779296875	0.00833333333333333	0	-30	-7.12083333333333	2	0.6064453125
2438.63671875	0.00833333333333333	0	30	0.835416666666666	2	0.7490234375
2441.4951171875	0.00833333333333333	0	30	0.835416666666666	2	0.634765625
2444.177734375	0.00833333333333333	0	30	0.835416666666666	2	0.904296875
2447.5283203125	0.00833333333333333	0	30	0.835416666666666	2	0.681640625
2450.478515625	0.00833333333333333	0	-30	-7.12083333333333	2	0.572265625
2453.1875	0.00833333333333333	0	-30	-7.12083333333333	2	0.5185546875
2455.8955078125	0.00833333333333333	0	-30	-7.12083333333333	2	0.4345703125
2458.4375	0.00833333333333333	0	-30	-7.12083333333333	2	0.572265625
2461.2197265625	0.00833333333333333	0	-30	-7.24583333333333	2	0.9345703125
2464.419921875	0.00833333333333333	0	30	0.835416666666666	2	0.375
2467.177734375	0.00833333333333333	0	-30	-7.24583333333333	2	0.568359375
2470.0537109375	0.00833333333333333	0	-30	-7.24583333333333	2	0.4931640625
2473.0537109375	0.00833333333333333	0	-30	-7.24583333333333	2	0.5009765625
2476.0703125	0.00833333333333333	0	30	0.710416666666666	1	0.5810546875
2479.169921875	0.00833333333333333	0	-30	-7.24583333333333	1	0.720703125
2482.13671875	0.00833333333333333	0	30	0.710416666666666	1	0.9228515625
2485.2861328125	0.00833333333333333	0	-30	-7.24583333333333	2	0.8291015625
2488.677734375	0.00833333333333333	0	30	0.710416666666666	2	0.6533203125
2491.8603515625	0.00833333333333333	0	-30	-7.24583333333333	2	1.1591796875
2495.5771484375	0.00833333333333333	0	30	0.710416666666666	2	0.6103515625
2498.376953125	0.00833333333333333	0	-30	-7.24583333333333	1	0.626953125
2501.052734375	0.00833333333333333	0	30	0.710416666666666	2	0.703125
2504.236328125	0.00833333333333333	0	-30	-7.24583333333333	2	0.6396484375
2507.2275390625	0.00833333333333333	0	-30	-7.24583333333333	1	0.9599609375
2510.2685546875	0.00833333333333333	0	30	0.710416666666666	2	0.623046875
2533.0439453125	0.00833333333333333	0	30	0.710416666666666	2	1.1611328125
2536.4931640625	0.00833333333333333	0	30	0.585416666666666	2	5.48828125
2544.5009765625	0.00833333333333333	0	-30	-7.24583333333333	1	0.6640625
2547.2431640625	0.00833333333333333	0	30	0.585416666666666	1	0.818359375
2550.2431640625	0.00833333333333333	0	30	0.585416666666666	1	0.71484375
2553.326171875	0.00833333333333333	0	-30	-7.24583333333333	2	1.0634765625
2556.96875	0.00833333333333333	0	-30	-7.24583333333333	2	0.65234375
2559.7265625	0.00833333333333333	0	30	0.585416666666666	2	0.646484375
2562.6357421875	0.00833333333333333	0	30	0.585416666666666	1	0.6181640625
2565.517578125	0.00833333333333333	0	30	0.585416666666666	1	0.48828125
2568.1689453125	0.00833333333333333	0	30	0.585416666666666	1	0.5009765625
2571.09375	0.00833333333333333	0	-30	-7.24583333333333	2	1.0244140625
2574.2431640625	0.00833333333333333	0	-30	-7.24583333333333	1	0.69921875
2577.3271484375	0.00833333333333333	0	30	0.585416666666666	1	0.55078125
2579.8515625	0.00833333333333333	0	30	0.585416666666666	1	0.6025390625
2582.5849609375	0.00833333333333333	0	-30	-7.24583333333333	1	0.62109375
2585.259765625	0.00833333333333333	0	-30	-7.24583333333333	1	0.4990234375
2588.2099609375	0.00833333333333333	0	30	0.710416666666666	1	0.6689453125
2591.201171875	0.00833333333333333	0	-30	-7.24583333333333	1	0.78125
2594.30078125	0.00833333333333333	0	-30	-7.24583333333333	1	1.146484375
2597.7431640625	0.00833333333333333	0	-30	-7.12083333333333	2	0.8798828125
2601.1181640625	0.00833333333333333	0	-30	-7.12083333333333	1	0.6650390625
2604.1513671875	0.00833333333333333	0	-30	-7.12083333333333	1	0.599609375
2606.8681640625	0.00833333333333333	0	-30	-7.12083333333333	1	0.5947265625
2609.91796875	0.00833333333333333	0	-30	-7.12083333333333	1	0.681640625
2612.716796875	0.00833333333333333	0	30	0.710416666666666	1	0.6826171875
2615.8427734375	0.00833333333333333	0	30	0.710416666666666	1	0.548828125
2618.7265625	0.00833333333333333	0	-30	-7.12083333333333	1	0.5927734375
2621.8759765625	0.00833333333333333	0	30	0.710416666666666	1	0.5712890625
2624.7177734375	0.00833333333333333	0	30	0.710416666666666	1	0.6181640625
2627.80859375	0.00833333333333333	0	-30	-6.99583333333333	1	1.126953125
2631.3515625	0.00833333333333333	0	-30	-6.99583333333333	1	0.6884765625
2634.17578125	0.00833333333333333	0	30	0.835416666666666	2	1.0400390625
2637.7177734375	0.00833333333333333	0	30	0.835416666666666	1	1.1865234375
2641.2587890625	0.00833333333333333	0	30	0.835416666666666	2	0.861328125
2644.6845703125	0.00833333333333333	0	30	0.835416666666666	2	0.66015625
2647.5673828125	0.00833333333333333	0	30	0.835416666666666	1	0.5771484375
2650.4248046875	0.00833333333333333	0	30	0.835416666666666	1	0.7119140625
2653.525390625	0.00833333333333333	0	30	0.835416666666666	1	0.5712890625
2656.3837890625	0.00833333333333333	0	-30	-6.99583333333333	1	0.6005859375
2659.5009765625	0.00833333333333333	0	30	0.835416666666666	1	0.7158203125
2662.67578125	0.00833333333333333	0	-30	-6.99583333333333	1	1.1728515625
2666.0341796875	0.00833333333333333	0	-30	-6.99583333333333	1	0.5908203125
2668.916015625	0.00833333333333333	0	30	0.835416666666666	1	1.28515625
2672.55078125	0.00833333333333333	0	30	0.960416666666666	1	0.794921875
2675.517578125	0.00833333333333333	0	30	0.960416666666666	1	0.611328125
2678.392578125	0.00833333333333333	0	30	0.960416666666666	1	1.0576171875
2681.7080078125	0.00833333333333333	0	-30	-6.87083333333333	1	0.8779296875
2684.9501953125	0.00833333333333333	0	30	0.960416666666666	2	1.66796875
2688.80859375	0.00833333333333333	0	-30	-6.87083333333333	1	0.609375
2691.908203125	0.00833333333333333	0	-30	-6.87083333333333	2	1.5498046875
2695.841796875	0.00833333333333333	0	-30	-6.87083333333333	1	0.8720703125
2699.033203125	0.00833333333333333	0	-30	-6.87083333333333	1	1.12890625
2702.275390625	0.00833333333333333	0	30	0.960416666666666	2	0.71875
2705.1162109375	0.00833333333333333	0	30	0.960416666666666	1	0.6220703125
2708.033203125	0.00833333333333333	0	-30	-6.87083333333333	1	0.625
2710.80859375	0.00833333333333333	0	30	0.960416666666666	1	0.5859375
2713.783203125	0.00833333333333333	0	-30	-6.87083333333333	1	0.5234375
2716.75	0.00833333333333333	0	-30	-6.87083333333333	1	0.541015625
2719.732421875	0.00833333333333333	0	30	0.960416666666666	2	0.494140625
2722.625	0.00833333333333333	0	30	0.960416666666666	1	1.2021484375
2725.9912109375	0.00833333333333333	0	-30	-6.74583333333333	1	0.5634765625
2728.916015625	0.00833333333333333	0	30	0.960416666666666	1	0.9111328125
2732.091796875	0.00833333333333333	0	30	0.960416666666666	1	0.767578125
2735.224609375	0.00833333333333333	0	-30	-6.74583333333333	1	0.6826171875
2737.9658203125	0.00833333333333333	0	30	0.960416666666666	1	0.7734375
2740.8828125	0.00833333333333333	0	-30	-6.74583333333333	1	0.7685546875
2743.94140625	0.00833333333333333	0	-30	-6.74583333333333	1	0.654296875
2746.732421875	0.00833333333333333	0	-30	-6.74583333333333	1	0.767578125
2749.70703125	0.00833333333333333	0	30	0.960416666666666	1	0.9208984375
2752.857421875	0.00833333333333333	0	30	1.08541666666667	2	0.7392578125
2755.82421875	0.00833333333333333	0	30	1.08541666666667	1	1.2119140625
2759.2412109375	0.00833333333333333	0	-30	-6.62083333333333	2	0.8427734375
2762.390625	0.00833333333333333	0	-30	-6.62083333333333	1	0.7890625
2765.6328125	0.00833333333333333	0	-30	-6.62083333333333	1	0.6279296875
2768.3662109375	0.00833333333333333	0	30	1.08541666666667	1	0.59765625
2771.140625	0.00833333333333333	0	30	1.08541666666667	1	0.607421875
2774.015625	0.00833333333333333	0	-30	-6.62083333333333	1	0.65234375
2777.041015625	0.00833333333333333	0	-30	-6.62083333333333	1	0.7392578125
2779.8818359375	0.00833333333333333	0	-30	-6.62083333333333	1	0.5625
2800.7900390625	0.00833333333333333	0	30	1.08541666666667	2	0.9111328125
2803.95703125	0.00833333333333333	0	-30	-6.49583333333333	1	0.6083984375
2806.9072265625	0.00833333333333333	0	-30	-6.49583333333333	1	1.21875
2810.5322265625	0.00833333333333333	0	30	1.08541666666667	1	1.2099609375
2813.7900390625	0.00833333333333333	0	-30	-6.49583333333333	2	0.935546875
2817.0400390625	0.00833333333333333	0	30	1.08541666666667	1	1.0615234375
2820.3818359375	0.00833333333333333	0	-30	-6.49583333333333	1	0.7763671875
2823.4482421875	0.00833333333333333	0	-30	-6.49583333333333	1	0.59765625
2826.365234375	0.00833333333333333	0	30	1.08541666666667	1	0.5927734375
2829.1396484375	0.00833333333333333	0	30	1.08541666666667	2	0.7783203125
2832.056640625	0.00833333333333333	0	30	1.08541666666667	2	0.7177734375
2835.2978515625	0.00833333333333333	0	-30	-6.49583333333333	1	0.7001953125
2838.4892578125	0.00833333333333333	0	30	1.08541666666667	2	0.8056640625
2841.8720703125	0.00833333333333333	0	-30	-6.49583333333333	2	0.7021484375
2844.8564453125	0.00833333333333333	0	30	1.08541666666667	2	0.5908203125
2847.96484375	0.00833333333333333	0	-30	-6.49583333333333	1	1.0498046875
2851.1806640625	0.00833333333333333	0	30	1.08541666666667	2	1.3623046875
2854.96484375	0.00833333333333333	0	30	0.960416666666666	2	0.7626953125
2858.0966796875	0.00833333333333333	0	30	0.960416666666666	1	0.9423828125
2861.1474609375	0.00833333333333333	0	30	0.960416666666666	1	0.6123046875
2864.1640625	0.00833333333333333	0	30	0.960416666666666	1	0.9794921875
2867.36328125	0.00833333333333333	0	-30	-6.49583333333333	1	1.1318359375
2870.6884765625	0.00833333333333333	0	-30	-6.49583333333333	2	1.6953125
2874.6728515625	0.00833333333333333	0	30	0.960416666666666	2	0.7919921875
2878.013671875	0.00833333333333333	0	-30	-6.49583333333333	1	0.8583984375
2880.99609375	0.00833333333333333	0	30	0.960416666666666	1	1.7158203125
2884.814453125	0.00833333333333333	0	30	0.960416666666666	1	1.7373046875
2888.6806640625	0.00833333333333333	0	-30	-6.49583333333333	1	2.0478515625
2892.99609375	0.00833333333333333	0	-30	-6.49583333333333	1	0.6767578125
2895.796875	0.00833333333333333	0	30	0.960416666666666	1	1.7802734375
2899.7470703125	0.00833333333333333	0	30	0.960416666666666	2	1.166015625
2903.421875	0.00833333333333333	0	-30	-6.49583333333333	1	0.7392578125
2906.513671875	0.00833333333333333	0	-30	-6.49583333333333	1	0.791015625
2909.5302734375	0.00833333333333333	0	30	0.960416666666666	1	0.646484375
2912.421875	0.00833333333333333	0	-30	-6.37083333333333	1	0.5712890625
2915.4052734375	0.00833333333333333	0	30	0.960416666666666	1	0.7236328125
2918.4384765625	0.00833333333333333	0	-30	-6.37083333333333	1	0.4912109375
2921.1298828125	0.00833333333333333	0	30	0.960416666666666	2	0.919921875
2924.0966796875	0.00833333333333333	0	30	0.960416666666666	1	0.6572265625
2927.3466796875	0.00833333333333333	0	-30	-6.37083333333333	1	0.6064453125
2930.205078125	0.00833333333333333	0	-30	-6.37083333333333	1	0.548828125
2933.1796875	0.00833333333333333	0	30	0.960416666666666	1	0.5263671875
2935.87109375	0.00833333333333333	0	-30	-6.37083333333333	1	0.794921875
2938.9716796875	0.00833333333333333	0	30	0.960416666666666	1	0.470703125
2941.646484375	0.00833333333333333	0	30	0.960416666666666	1	0.4833984375
2944.24609375	0.00833333333333333	0	30	0.960416666666666	1	0.6923828125
2947.1953125	0.00833333333333333	0	30	1.08541666666667	1	0.5029296875
2949.7626953125	0.00833333333333333	0	30	1.08541666666667	2	0.85546875
2953.0126953125	0.00833333333333333	0	30	1.08541666666667	1	0.57421875
2955.9462890625	0.00833333333333333	0	30	1.08541666666667	1	0.48828125
2958.86328125	0.00833333333333333	0	-30	-6.24583333333333	1	0.5234375
2961.4130859375	0.00833333333333333	0	-30	-6.24583333333333	1	0.4775390625
2964.1708984375	0.00833333333333333	0	30	1.08541666666667	2	0.51953125
2967.154296875	0.00833333333333333	0	-30	-6.24583333333333	2	0.712890625
2969.9541015625	0.00833333333333333	0	30	1.08541666666667	1	0.5849609375
2972.6376953125	0.00833333333333333	0	-30	-6.24583333333333	1	0.62109375
2975.6533203125	0.00833333333333333	0	30	1.08541666666667	2	0.7099609375
2978.6708984375	0.00833333333333333	0	-30	-6.24583333333333	1	0.6123046875
2981.37890625	0.00833333333333333	0	30	1.08541666666667	1	0.720703125
2984.5625	0.00833333333333333	0	30	1.08541666666667	1	0.7451171875
2987.8212890625	0.00833333333333333	0	-30	-6.24583333333333	1	0.5498046875
2990.669921875	0.00833333333333333	0	-30	-6.24583333333333	1	0.6298828125
2993.5458984375	0.00833333333333333	0	30	1.08541666666667	2	0.673828125
2996.62890625	0.00833333333333333	0	30	1.08541666666667	1	0.55859375
2999.2626953125	0.00833333333333333	0	30	1.08541666666667	1	0.548828125
3002.1708984375	0.00833333333333333	0	-30	-6.24583333333333	1	0.712890625
3005.37109375	0.00833333333333333	0	-30	-6.12083333333333	1	0.8408203125
3008.3369140625	0.00833333333333333	0	-30	-6.12083333333333	1	0.771484375
3011.3203125	0.00833333333333333	0	30	1.08541666666667	1	0.6435546875
3014.2041015625	0.00833333333333333	0	-30	-6.12083333333333	1	0.6318359375
3017.00390625	0.00833333333333333	0	30	1.08541666666667	2	0.728515625
3020.162109375	0.00833333333333333	0	30	1.08541666666667	2	0.7783203125
3023.0791015625	0.00833333333333333	0	30	1.08541666666667	1	0.685546875
3026.25390625	0.00833333333333333	0	30	1.08541666666667	2	0.6865234375
3029.203125	0.00833333333333333	0	30	1.08541666666667	1	0.5615234375
3032.1611328125	0.00833333333333333	0	-30	-6.12083333333333	1	0.515625
3034.9287109375	0.00833333333333333	0	-30	-6.12083333333333	2	1.6201171875
3039.0869140625	0.00833333333333333	0	30	1.08541666666667	2	0.646484375
3042.111328125	0.00833333333333333	0	-30	-6.12083333333333	1	0.509765625
3044.953125	0.00833333333333333	0	30	1.08541666666667	1	0.5322265625
3055.669921875	0.00833333333333333	0	-30	-6.12083333333333	1	0.51171875
3058.4189453125	0.00833333333333333	0	-30	-6.12083333333333	1	0.5947265625
3061.26953125	0.00833333333333333	0	30	1.08541666666667	1	0.6484375
3064.361328125	0.00833333333333333	0	-30	-6.12083333333333	1	0.564453125
3067.0361328125	0.00833333333333333	0	30	1.08541666666667	2	1.07421875
3070.4033203125	0.00833333333333333	0	-30	-6.12083333333333	2	1.0185546875
3073.77734375	0.00833333333333333	0	30	1.08541666666667	2	1.27734375
3077.4775390625	0.00833333333333333	0	-30	-6.12083333333333	2	0.6171875
3080.2109375	0.00833333333333333	0	-30	-6.12083333333333	1	0.8671875
3083.294921875	0.00833333333333333	0	30	1.08541666666667	2	0.6796875
3086.14453125	0.00833333333333333	0	30	1.08541666666667	1	0.662109375
3089.1435546875	0.00833333333333333	0	-30	-6.12083333333333	1	0.623046875
3092.2861328125	0.00833333333333333	0	30	1.08541666666667	2	0.6650390625
3095.3359375	0.00833333333333333	0	30	1.08541666666667	2	0.630859375
3098.1025390625	0.00833333333333333	0	30	1.08541666666667	1	0.79296875
3101.2021484375	0.00833333333333333	0	-30	-6.12083333333333	1	0.6611328125
3104.1357421875	0.00833333333333333	0	-30	-6.12083333333333	1	0.52734375
3106.76953125	0.00833333333333333	0	-30	-6.12083333333333	1	0.4853515625
3109.3193359375	0.00833333333333333	0	30	1.08541666666667	1	0.583984375
3112.0361328125	0.00833333333333333	0	30	1.08541666666667	1	0.595703125
3114.7861328125	0.00833333333333333	0	-30	-5.99583333333333	1	0.4375
3117.3779296875	0.00833333333333333	0	30	1.08541666666667	1	0.4775390625
3120.0771484375	0.00833333333333333	0	30	1.08541666666667	2	0.5947265625
3122.9609375	0.00833333333333333	0	30	1.08541666666667	1	0.4384765625
3125.626953125	0.00833333333333333	0	30	1.08541666666667	1	0.484375
3128.4775390625	0.00833333333333333	0	30	1.08541666666667	1	0.4423828125
3131.376953125	0.00833333333333333	0	30	1.08541666666667	2	0.54296875
3134.46875	0.00833333333333333	0	30	1.08541666666667	1	0.451171875
3136.994140625	0.00833333333333333	0	-30	-5.99583333333333	1	0.3984375
3139.5009765625	0.00833333333333333	0	30	1.08541666666667	2	0.626953125
3142.7099609375	0.00833333333333333	0	-30	-5.99583333333333	1	0.6748046875
3145.7021484375	0.00833333333333333	0	30	1.08541666666667	1	0.6259765625
3148.376953125	0.00833333333333333	0	30	1.08541666666667	2	0.51953125
3151.2431640625	0.00833333333333333	0	-30	-5.99583333333333	1	0.501953125
3153.818359375	0.00833333333333333	0	-30	-5.99583333333333	1	0.4619140625
3156.6181640625	0.00833333333333333	0	-30	-5.87083333333333	1	0.5751953125
3159.46875	0.00833333333333333	0	30	1.08541666666667	1	0.5244140625
3162.3515625	0.00833333333333333	0	-30	-5.87083333333333	1	0.322265625
3164.734375	0.00833333333333333	0	30	1.08541666666667	1	0.40234375
3167.251953125	0.00833333333333333	0	-30	-5.87083333333333	1	0.5654296875
3170.04296875	0.00833333333333333	0	-30	-5.87083333333333	1	0.478515625
3172.5849609375	0.00833333333333333	0	30	1.08541666666667	2	0.5927734375
3175.6767578125	0.00833333333333333	0	30	1.08541666666667	2	0.8125
3178.5849609375	0.00833333333333333	0	-30	-5.87083333333333	1	0.79296875
3181.5849609375	0.00833333333333333	0	-30	-5.74583333333333	2	1.033203125
3185.083984375	0.00833333333333333	0	30	1.08541666666667	2	0.7333984375
3188.2587890625	0.00833333333333333	0	30	1.08541666666667	2	0.7431640625
3191.2421875	0.00833333333333333	0	-30	-5.74583333333333	1	0.607421875
3194.0087890625	0.00833333333333333	0	-30	-5.74583333333333	1	0.513671875
3196.958984375	0.00833333333333333	0	-30	-5.74583333333333	1	0.67578125
3200.1181640625	0.00833333333333333	0	-30	-5.74583333333333	2	0.84375
3203.2421875	0.00833333333333333	0	-30	-5.74583333333333	1	0.81640625
3206.5673828125	0.00833333333333333	0	30	1.08541666666667	2	0.5947265625
3209.3095703125	0.00833333333333333	0	30	0.960416666666666	2	0.533203125
3212.2841796875	0.00833333333333333	0	-30	-5.74583333333333	1	0.6787109375
3215.283203125	0.00833333333333333	0	30	0.960416666666666	2	0.759765625
3218.2587890625	0.00833333333333333	0	-30	-5.74583333333333	2	0.9443359375
3221.5009765625	0.00833333333333333	0	30	0.960416666666666	2	1.0458984375
3224.7421875	0.00833333333333333	0	-30	-5.74583333333333	2	0.724609375
3228.0166015625	0.00833333333333333	0	30	0.960416666666666	2	0.6748046875
3230.8759765625	0.00833333333333333	0	30	0.960416666666666	2	0.7197265625
3234.0009765625	0.00833333333333333	0	-30	-5.74583333333333	2	0.818359375
3237.025390625	0.00833333333333333	0	30	0.835416666666666	1	0.578125
3239.80078125	0.00833333333333333	0	30	0.835416666666666	1	0.6669921875
3242.767578125	0.00833333333333333	0	-30	-5.74583333333333	2	0.716796875
3245.8251953125	0.00833333333333333	0	30	0.835416666666666	1	0.578125
3248.5341796875	0.00833333333333333	0	-30	-5.74583333333333	2	0.533203125
3251.142578125	0.00833333333333333	0	30	0.835416666666666	1	0.517578125
3253.708984375	0.00833333333333333	0	30	0.835416666666666	1	0.5107421875
3256.5087890625	0.00833333333333333	0	30	0.960416666666666	1	0.4951171875
3259.2666015625	0.00833333333333333	0	-30	-5.87083333333333	2	0.5615234375
3262.3408203125	0.00833333333333333	0	30	0.960416666666666	1	0.51171875
3264.900390625	0.00833333333333333	0	-30	-5.87083333333333	2	0.5517578125
3267.658203125	0.00833333333333333	0	30	0.960416666666666	2	0.5947265625
3270.6083984375	0.00833333333333333	0	-30	-5.87083333333333	2	0.8125
3273.69140625	0.00833333333333333	0	30	0.960416666666666	2	0.5615234375
3276.658203125	0.00833333333333333	0	30	0.960416666666666	1	0.6591796875
3279.607421875	0.00833333333333333	0	-30	-5.87083333333333	2	0.453125
3282.4169921875	0.00833333333333333	0	-30	-5.87083333333333	2	0.66015625
3285.44921875	0.00833333333333333	0	30	0.960416666666666	1	0.6123046875
3312.8076171875	0.00833333333333333	0	-30	-5.99583333333333	1	0.7744140625
3316.07421875	0.00833333333333333	0	-30	-5.99583333333333	2	0.8359375
3319.3486328125	0.00833333333333333	0	30	0.960416666666666	1	1.0654296875
3322.82421875	0.00833333333333333	0	-30	-5.99583333333333	1	1.09375
3325.998046875	0.00833333333333333	0	-30	-5.99583333333333	1	0.7607421875
3329.0830078125	0.00833333333333333	0	30	0.960416666666666	1	0.611328125
3331.69921875	0.00833333333333333	0	30	0.960416666666666	1	0.5712890625
3334.33203125	0.00833333333333333	0	-30	-5.99583333333333	2	0.626953125
3337.2236328125	0.00833333333333333	0	30	1.08541666666667	1	0.5751953125
3340.19921875	0.00833333333333333	0	30	1.08541666666667	1	0.6396484375
3343.115234375	0.00833333333333333	0	30	1.08541666666667	1	0.7080078125
3345.8740234375	0.00833333333333333	0	-30	-5.99583333333333	1	0.7333984375
3348.72265625	0.00833333333333333	0	-30	-5.99583333333333	2	0.6044921875
3351.7314453125	0.00833333333333333	0	30	1.08541666666667	1	0.6279296875
3354.7236328125	0.00833333333333333	0	30	1.08541666666667	1	0.6513671875
3357.6904296875	0.00833333333333333	0	30	1.21041666666667	1	0.64453125
3360.8486328125	0.00833333333333333	0	-30	-5.99583333333333	2	1.0390625
3364.1982421875	0.00833333333333333	0	30	1.21041666666667	2	0.59375
3366.9072265625	0.00833333333333333	0	-30	-5.99583333333333	1	1.0361328125
3370.064453125	0.00833333333333333	0	30	1.21041666666667	1	0.9111328125
3373.181640625	0.00833333333333333	0	30	1.21041666666667	1	0.74609375
3375.9990234375	0.00833333333333333	0	30	1.21041666666667	1	0.7373046875
3379.064453125	0.00833333333333333	0	-30	-5.99583333333333	2	0.8076171875
3382.0478515625	0.00833333333333333	0	30	1.21041666666667	1	0.576171875
3384.72265625	0.00833333333333333	0	-30	-5.99583333333333	1	0.5732421875
3387.7314453125	0.00833333333333333	0	30	1.21041666666667	1	0.4453125
3390.2392578125	0.00833333333333333	0	30	1.33541666666667	1	0.5927734375
3393.2978515625	0.00833333333333333	0	-30	-5.99583333333333	2	0.7109375
3396.3232421875	0.00833333333333333	0	-30	-5.99583333333333	2	1.173828125
3399.990234375	0.00833333333333333	0	-30	-5.99583333333333	2	0.5869140625
3402.689453125	0.00833333333333333	0	30	1.33541666666667	2	0.6396484375
3405.7724609375	0.00833333333333333	0	30	1.33541666666667	1	0.740234375
3408.6064453125	0.00833333333333333	0	-30	-5.99583333333333	2	0.69921875
3411.6064453125	0.00833333333333333	0	30	1.33541666666667	2	1.234375
3415.123046875	0.00833333333333333	0	-30	-5.99583333333333	2	0.89453125
3418.373046875	0.00833333333333333	0	30	1.33541666666667	1	1.076171875
3421.7060546875	0.00833333333333333	0	30	1.33541666666667	1	0.623046875
3424.7978515625	0.00833333333333333	0	30	1.33541666666667	1	0.66015625
3427.873046875	0.00833333333333333	0	30	1.33541666666667	2	0.6650390625
3431.064453125	0.00833333333333333	0	30	1.33541666666667	2	0.673828125
3434.33984375	0.00833333333333333	0	30	1.33541666666667	2	0.6142578125
3437.4560546875	0.00833333333333333	0	-30	-6.12083333333333	2	0.681640625
3440.373046875	0.00833333333333333	0	-30	-6.12083333333333	2	0.60546875
3443.4638671875	0.00833333333333333	0	30	1.33541666666667	2	0.7138671875
3446.6142578125	0.00833333333333333	0	-30	-6.12083333333333	2	0.66015625
3449.513671875	0.00833333333333333	0	-30	-6.12083333333333	2	0.5927734375
3452.4140625	0.00833333333333333	0	-30	-6.12083333333333	2	0.6123046875
3455.513671875	0.00833333333333333	0	-30	-6.24583333333333	2	0.6005859375
3458.4052734375	0.00833333333333333	0	-30	-6.24583333333333	2	0.517578125
3461.0302734375	0.00833333333333333	0	-30	-6.24583333333333	2	0.62890625
3464.0634765625	0.00833333333333333	0	30	1.33541666666667	2	0.6357421875
3466.72265625	0.00833333333333333	0	-30	-6.24583333333333	1	0.7919921875
3469.8134765625	0.00833333333333333	0	-30	-6.24583333333333	2	0.7333984375
3473.013671875	0.00833333333333333	0	30	1.21041666666667	1	0.57421875
3476.1220703125	0.00833333333333333	0	30	1.21041666666667	1	0.6416015625
3479.171875	0.00833333333333333	0	-30	-6.24583333333333	2	0.607421875
3482.330078125	0.00833333333333333	0	30	1.21041666666667	1	0.544921875
3485.0888671875	0.00833333333333333	0	30	1.21041666666667	1	0.6826171875
3488.2880859375	0.00833333333333333	0	-30	-6.24583333333333	1	0.7470703125
3491.197265625	0.00833333333333333	0	-30	-6.24583333333333	1	0.6220703125
3494.1376953125	0.00833333333333333	0	-30	-6.24583333333333	2	0.6337890625
3497.0966796875	0.00833333333333333	0	30	1.21041666666667	2	0.6591796875
3500.029296875	0.00833333333333333	0	-30	-6.24583333333333	2	0.6875
3502.896484375	0.00833333333333333	0	-30	-6.24583333333333	1	0.67578125
3505.6376953125	0.00833333333333333	0	-30	-6.24583333333333	1	0.55859375
3508.5048828125	0.00833333333333333	0	-30	-6.24583333333333	1	0.611328125
3511.48046875	0.00833333333333333	0	30	1.21041666666667	1	0.5400390625
3514.24609375	0.00833333333333333	0	30	1.21041666666667	1	0.478515625
3516.955078125	0.00833333333333333	0	30	1.21041666666667	1	0.3212890625
3519.4052734375	0.00833333333333333	0	30	1.21041666666667	1	0.447265625
3522.2216796875	0.00833333333333333	0	30	1.21041666666667	1	0.3828125
3524.771484375	0.00833333333333333	0	-30	-6.24583333333333	1	0.3369140625
3527.1630859375	0.00833333333333333	0	-30	-6.24583333333333	1	0.505859375
3529.74609375	0.00833333333333333	0	-30	-6.12083333333333	1	0.38671875
3532.2880859375	0.00833333333333333	0	-30	-6.12083333333333	1	0.4052734375
3535.087890625	0.00833333333333333	0	30	1.33541666666667	1	0.92578125
3538.2548828125	0.00833333333333333	0	-30	-6.12083333333333	1	1.3427734375
3541.6953125	0.00833333333333333	0	30	1.33541666666667	2	0.837890625
3544.8544921875	0.00833333333333333	0	-30	-6.12083333333333	1	0.7109375
3548.1044921875	0.00833333333333333	0	30	1.33541666666667	2	0.884765625
3589.6708984375	0.00833333333333333	0	30	1.33541666666667	2	0.904296875
3592.845703125	0.00833333333333333	0	30	1.33541666666667	1	0.5615234375
3595.5703125	0.00833333333333333	0	-30	-6.12083333333333	2	0.62890625
3598.2783203125	0.00833333333333333	0	-30	-6.12083333333333	1	0.640625
3601.1953125	0.00833333333333333	0	-30	-6.12083333333333	1	0.6923828125
3604.2197265625	0.00833333333333333	0	-30	-6.12083333333333	1	0.8037109375
3607.12890625	0.00833333333333333	0	-30	-6.12083333333333	2	0.5908203125
3609.927734375	0.00833333333333333	0	-30	-6.12083333333333	2	0.6240234375
3612.5869140625	0.00833333333333333	0	-30	-6.12083333333333	2	0.533203125
3615.1201171875	0.00833333333333333	0	-30	-6.12083333333333	1	0.5751953125
3617.8603515625	0.00833333333333333	0	30	1.33541666666667	2	0.6435546875
3620.978515625	0.00833333333333333	0	-30	-6.12083333333333	1	0.701171875
3623.703125	0.00833333333333333	0	-30	-6.12083333333333	1	0.640625
3626.8203125	0.00833333333333333	0	30	1.33541666666667	2	0.7724609375
3629.8779296875	0.00833333333333333	0	30	1.33541666666667	1	0.5458984375
3632.5361328125	0.00833333333333333	0	-30	-6.12083333333333	2	0.6083984375
3635.228515625	0.00833333333333333	0	-30	-6.12083333333333	2	0.732421875
3638.51953125	0.00833333333333333	0	30	1.33541666666667	1	0.5927734375
3641.302734375	0.00833333333333333	0	30	1.33541666666667	2	0.5380859375
3644.21875	0.00833333333333333	0	30	1.33541666666667	1	0.5498046875
3647.26953125	0.00833333333333333	0	-30	-6.12083333333333	1	0.5556640625
3649.943359375	0.00833333333333333	0	30	1.33541666666667	2	0.5771484375
3652.89453125	0.00833333333333333	0	30	1.33541666666667	1	0.5703125
3655.8779296875	0.00833333333333333	0	30	1.33541666666667	1	0.5068359375
3658.736328125	0.00833333333333333	0	-30	-6.12083333333333	1	0.392578125
3661.5859375	0.00833333333333333	0	30	1.33541666666667	1	0.431640625
3664.1689453125	0.00833333333333333	0	-30	-6.12083333333333	1	0.4638671875
3667.0107421875	0.00833333333333333	0	30	1.33541666666667	1	0.6630859375
3669.9189453125	0.00833333333333333	0	-30	-6.12083333333333	1	0.458984375
3672.84375	0.00833333333333333	0	30	1.33541666666667	1	0.5341796875
3675.611328125	0.00833333333333333	0	-30	-6.12083333333333	1	0.6142578125
3678.4599609375	0.00833333333333333	0	30	1.46041666666667	2	0.6142578125
3681.59375	0.00833333333333333	0	-30	-5.99583333333333	2	1.0322265625
3684.744140625	0.00833333333333333	0	30	1.46041666666667	1	0.75390625
3687.66015625	0.00833333333333333	0	30	1.46041666666667	1	0.494140625
3690.4443359375	0.00833333333333333	0	30	1.46041666666667	1	0.486328125
3693.1103515625	0.00833333333333333	0	-30	-5.99583333333333	1	0.4521484375
3696.0771484375	0.00833333333333333	0	30	1.46041666666667	2	0.701171875
3699.1181640625	0.00833333333333333	0	30	1.46041666666667	1	0.7080078125
3702.40234375	0.00833333333333333	0	30	1.46041666666667	2	0.576171875
3705.2275390625	0.00833333333333333	0	-30	-5.99583333333333	2	0.5673828125
3708.1767578125	0.00833333333333333	0	-30	-5.99583333333333	1	0.513671875
3711.060546875	0.00833333333333333	0	30	1.46041666666667	1	0.486328125
3713.77734375	0.00833333333333333	0	30	1.46041666666667	2	0.865234375
3717.0849609375	0.00833333333333333	0	-30	-5.99583333333333	1	0.56640625
3719.943359375	0.00833333333333333	0	30	1.46041666666667	1	0.5556640625
3722.626953125	0.00833333333333333	0	-30	-5.99583333333333	1	0.591796875
3725.7509765625	0.00833333333333333	0	-30	-5.99583333333333	2	2.068359375
3730.318359375	0.00833333333333333	0	30	1.46041666666667	1	0.708984375
3733.3095703125	0.00833333333333333	0	-30	-5.99583333333333	1	0.58984375
3735.951171875	0.00833333333333333	0	30	1.46041666666667	2	0.5
3739.009765625	0.00833333333333333	0	30	1.46041666666667	2	0.8095703125
3742.1103515625	0.00833333333333333	0	30	1.46041666666667	2	1.4375
3746.091796875	0.00833333333333333	0	30	1.46041666666667	1	1.3046875
3749.9765625	0.00833333333333333	0	-30	-5.99583333333333	2	1.083984375
3753.193359375	0.00833333333333333	0	-30	-5.99583333333333	2	1.1064453125
3756.6259765625	0.00833333333333333	0	30	1.46041666666667	1	0.7861328125
3759.6337890625	0.00833333333333333	0	30	1.46041666666667	1	1.05859375
3763.0009765625	0.00833333333333333	0	-30	-5.99583333333333	1	0.67578125
3766.201171875	0.00833333333333333	0	-30	-5.99583333333333	1	0.451171875
3769.142578125	0.00833333333333333	0	30	1.46041666666667	1	0.4384765625
3771.6259765625	0.00833333333333333	0	-30	-5.99583333333333	1	0.4267578125
3774.451171875	0.00833333333333333	0	-30	-5.99583333333333	1	0.4658203125
3777.30078125	0.00833333333333333	0	-30	-5.99583333333333	1	0.48828125
3780.0009765625	0.00833333333333333	0	-30	-5.87083333333333	1	0.5
3782.7431640625	0.00833333333333333	0	30	1.46041666666667	1	0.333984375
3785.6337890625	0.00833333333333333	0	-30	-5.87083333333333	1	0.4755859375
3788.283203125	0.00833333333333333	0	-30	-5.87083333333333	1	0.4580078125
3790.93359375	0.00833333333333333	0	-30	-5.87083333333333	1	0.4482421875
3793.7177734375	0.00833333333333333	0	-30	-5.87083333333333	1	0.51171875
3796.55078125	0.00833333333333333	0	30	1.58541666666667	1	0.462890625
3799.083984375	0.00833333333333333	0	30	1.58541666666667	2	0.4580078125
3801.7177734375	0.00833333333333333	0	30	1.58541666666667	2	0.6474609375
3804.4423828125	0.00833333333333333	0	30	1.58541666666667	1	1.099609375
3807.69140625	0.00833333333333333	0	-30	-5.74583333333333	1	0.6748046875
3810.4169921875	0.00833333333333333	0	-30	-5.74583333333333	1	0.6611328125
3813.5419921875	0.00833333333333333	0	-30	-5.74583333333333	2	0.5439453125
3816.1591796875	0.00833333333333333	0	-30	-5.74583333333333	2	0.54296875
3819.1748046875	0.00833333333333333	0	-30	-5.74583333333333	2	0.51171875
3821.7255859375	0.00833333333333333	0	30	1.58541666666667	2	0.4970703125
3831.82421875	0.00833333333333333	0	30	1.58541666666667	2	0.6142578125
3834.6171875	0.00833333333333333	0	30	1.58541666666667	2	0.7412109375
3837.5654296875	0.00833333333333333	0	-30	-5.74583333333333	1	0.521484375
3840.1748046875	0.00833333333333333	0	30	1.58541666666667	2	0.9365234375
3843.5	0.00833333333333333	0	-30	-5.74583333333333	1	0.7548828125
3846.4833984375	0.00833333333333333	0	-30	-5.74583333333333	2	0.5078125
3849.2080078125	0.00833333333333333	0	30	1.58541666666667	2	0.943359375
3852.625	0.00833333333333333	0	30	1.46041666666667	2	0.90234375
3855.9912109375	0.00833333333333333	0	-30	-5.74583333333333	1	0.6640625
3859.20703125	0.00833333333333333	0	30	1.46041666666667	2	0.80078125
3862.1162109375	0.00833333333333333	0	-30	-5.74583333333333	1	0.66796875
3865.158203125	0.00833333333333333	0	-30	-5.74583333333333	1	0.5537109375
3867.9248046875	0.00833333333333333	0	-30	-5.74583333333333	1	0.611328125
3871.0576171875	0.00833333333333333	0	30	1.46041666666667	1	0.7900390625
3874.3583984375	0.00833333333333333	0	-30	-5.74583333333333	1	0.5458984375
3876.9833984375	0.00833333333333333	0	30	1.46041666666667	1	0.640625
3880.06640625	0.00833333333333333	0	-30	-5.62083333333333	1	0.4541015625
3882.7158203125	0.00833333333333333	0	-30	-5.62083333333333	1	0.4609375
3885.2666015625	0.00833333333333333	0	-30	-5.62083333333333	1	0.6455078125
3888.2158203125	0.00833333333333333	0	30	1.46041666666667	1	0.544921875
3891.2412109375	0.00833333333333333	0	-30	-5.62083333333333	1	0.5673828125
3894.283203125	0.00833333333333333	0	-30	-5.62083333333333	2	0.5732421875
3897.166015625	0.00833333333333333	0	-30	-5.62083333333333	1	0.875
3900.291015625	0.00833333333333333	0	-30	-5.62083333333333	1	0.662109375
3903.265625	0.00833333333333333	0	-30	-5.62083333333333	1	0.5830078125
3906.2734375	0.00833333333333333	0	-30	-5.62083333333333	1	1
3909.298828125	0.00833333333333333	0	30	1.46041666666667	2	0.7587890625
3912.2490234375	0.00833333333333333	0	-30	-5.62083333333333	1	0.568359375
3915.291015625	0.00833333333333333	0	30	1.46041666666667	2	1.0458984375
3918.6142578125	0.00833333333333333	0	-30	-5.49583333333333	1	0.634765625
3921.4326171875	0.00833333333333333	0	30	1.46041666666667	1	0.625
3924.173828125	0.00833333333333333	0	-30	-5.49583333333333	1	0.515625
3927.166015625	0.00833333333333333	0	30	1.46041666666667	2	0.65234375
3929.97265625	0.00833333333333333	0	-30	-5.49583333333333	1	0.453125
3932.9326171875	0.00833333333333333	0	30	1.46041666666667	2	0.5009765625
3935.681640625	0.00833333333333333	0	30	1.46041666666667	1	0.4169921875
3938.298828125	0.00833333333333333	0	-30	-5.49583333333333	1	0.5517578125
3941.0400390625	0.00833333333333333	0	30	1.46041666666667	1	0.986328125
3944.431640625	0.00833333333333333	0	-30	-5.49583333333333	1	0.41015625
3947.173828125	0.00833333333333333	0	-30	-5.37083333333333	1	0.724609375
3950.423828125	0.00833333333333333	0	-30	-5.37083333333333	1	0.5791015625
3953.0986328125	0.00833333333333333	0	-30	-5.37083333333333	1	0.927734375
3956.173828125	0.00833333333333333	0	-30	-5.37083333333333	1	0.6044921875
3959.115234375	0.00833333333333333	0	-30	-5.37083333333333	2	0.87109375
3962.130859375	0.00833333333333333	0	30	1.46041666666667	2	0.6640625
3965.3154296875	0.00833333333333333	0	-30	-5.37083333333333	1	0.6640625
3968.3564453125	0.00833333333333333	0	-30	-5.37083333333333	1	1.5185546875
3972.314453125	0.00833333333333333	0	30	1.46041666666667	2	0.728515625
3975.439453125	0.00833333333333333	0	-30	-5.37083333333333	1	0.587890625
3978.40625	0.00833333333333333	0	-30	-5.37083333333333	1	0.6455078125
3981.4150390625	0.00833333333333333	0	-30	-5.37083333333333	1	0.548828125
3984.0732421875	0.00833333333333333	0	30	1.46041666666667	1	0.5302734375
3986.931640625	0.00833333333333333	0	-30	-5.24583333333333	1	0.5439453125
3989.681640625	0.00833333333333333	0	30	1.46041666666667	1	0.4658203125
3992.46484375	0.00833333333333333	0	30	1.46041666666667	1	0.4267578125
3994.998046875	0.00833333333333333	0	-30	-5.24583333333333	1	0.4619140625
3997.96484375	0.00833333333333333	0	30	1.46041666666667	2	0.7353515625
4001.2314453125	0.00833333333333333	0	-30	-5.24583333333333	1	0.4443359375
4004.22265625	0.00833333333333333	0	-30	-5.24583333333333	1	0.4375
4006.85546875	0.00833333333333333	0	30	1.46041666666667	1	0.3486328125
4009.314453125	0.00833333333333333	0	30	1.46041666666667	2	0.59375
4012.2890625	0.00833333333333333	0	30	1.46041666666667	2	0.451171875
4014.8896484375	0.00833333333333333	0	30	1.46041666666667	1	0.38671875
4017.755859375	0.00833333333333333	0	-30	-5.24583333333333	1	0.46484375
4020.4970703125	0.00833333333333333	0	30	1.46041666666667	1	0.435546875
4023.322265625	0.00833333333333333	0	-30	-5.12083333333333	1	0.71484375
4026.5478515625	0.00833333333333333	0	-30	-5.12083333333333	1	0.498046875
4029.4228515625	0.00833333333333333	0	-30	-5.12083333333333	2	0.6943359375
4032.3720703125	0.00833333333333333	0	-30	-5.12083333333333	2	0.712890625
4035.59765625	0.00833333333333333	0	30	1.46041666666667	2	0.4794921875
4038.5810546875	0.00833333333333333	0	-30	-5.12083333333333	1	0.65625
4041.630859375	0.00833333333333333	0	-30	-5.12083333333333	1	0.623046875
4044.822265625	0.00833333333333333	0	30	1.46041666666667	1	0.6474609375
4047.796875	0.00833333333333333	0	30	1.46041666666667	2	0.4169921875
4050.4638671875	0.00833333333333333	0	30	1.46041666666667	1	0.3974609375
4053.296875	0.00833333333333333	0	-30	-5.12083333333333	1	0.5009765625
4056.2060546875	0.00833333333333333	0	-30	-5.12083333333333	1	0.439453125
4058.9306640625	0.00833333333333333	0	30	1.46041666666667	2	0.53125
4062.0380859375	0.00833333333333333	0	-30	-5.12083333333333	1	0.48828125
4064.646484375	0.00833333333333333	0	-30	-4.99583333333333	1	0.447265625
4083.9130859375	0.00833333333333333	0	-30	-4.99583333333333	1	0.525390625
4086.796875	0.00833333333333333	0	-30	-4.99583333333333	2	1.4580078125
4090.73828125	0.00833333333333333	0	30	1.46041666666667	2	0.7568359375
4093.904296875	0.00833333333333333	0	30	1.46041666666667	2	0.638671875
4096.8134765625	0.00833333333333333	0	-30	-4.99583333333333	1	0.6416015625
4099.6220703125	0.00833333333333333	0	30	1.46041666666667	2	0.5849609375
4102.3876953125	0.00833333333333333	0	-30	-4.99583333333333	1	0.5712890625
4104.962890625	0.00833333333333333	0	-30	-4.99583333333333	1	0.5166015625
4107.587890625	0.00833333333333333	0	-30	-4.99583333333333	1	0.603515625
4110.4208984375	0.00833333333333333	0	-30	-4.99583333333333	2	0.5703125
4113.3037109375	0.00833333333333333	0	-30	-4.99583333333333	2	0.5361328125
4115.9296875	0.00833333333333333	0	-30	-4.99583333333333	1	0.7978515625
4119.0625	0.00833333333333333	0	-30	-4.99583333333333	1	0.521484375
4121.6796875	0.00833333333333333	0	-30	-4.99583333333333	1	0.4560546875
4124.521484375	0.00833333333333333	0	-30	-4.99583333333333	1	0.486328125
4127.50390625	0.00833333333333333	0	-30	-4.99583333333333	1	0.4560546875
4130.1875	0.00833333333333333	0	-30	-4.87083333333333	1	0.453125
4133.1044921875	0.00833333333333333	0	30	1.46041666666667	1	0.4638671875
4135.904296875	0.00833333333333333	0	30	1.46041666666667	1	0.4560546875
4138.50390625	0.00833333333333333	0	30	1.46041666666667	1	0.48828125
4141.337890625	0.00833333333333333	0	-30	-4.87083333333333	2	0.623046875
4144.162109375	0.00833333333333333	0	-30	-4.87083333333333	1	0.5908203125
4147.00390625	0.00833333333333333	0	-30	-4.87083333333333	1	0.8134765625
4149.9951171875	0.00833333333333333	0	30	1.46041666666667	2	0.4541015625
4152.669921875	0.00833333333333333	0	-30	-4.87083333333333	1	0.5234375
4155.3125	0.00833333333333333	0	30	1.46041666666667	2	0.5927734375
4158.1953125	0.00833333333333333	0	30	1.46041666666667	2	0.89453125
4161.6123046875	0.00833333333333333	0	-30	-4.87083333333333	1	0.7490234375
4164.470703125	0.00833333333333333	0	-30	-4.87083333333333	2	0.5224609375
4167.1875	0.00833333333333333	0	-30	-4.87083333333333	1	0.8056640625
4170.203125	0.00833333333333333	0	30	1.46041666666667	1	0.486328125
4172.7451171875	0.00833333333333333	0	-30	-4.87083333333333	1	0.4482421875
4175.595703125	0.00833333333333333	0	-30	-4.87083333333333	1	0.4384765625
4178.3779296875	0.00833333333333333	0	-30	-4.87083333333333	1	0.431640625
4180.9287109375	0.00833333333333333	0	-30	-4.87083333333333	1	0.5615234375
4183.7705078125	0.00833333333333333	0	-30	-4.74583333333333	1	0.3837890625
4186.34375	0.00833333333333333	0	30	1.46041666666667	2	0.53125
4189.12890625	0.00833333333333333	0	-30	-4.74583333333333	1	0.3935546875
4191.8115234375	0.00833333333333333	0	30	1.46041666666667	2	0.638671875
4194.7861328125	0.00833333333333333	0	30	1.46041666666667	2	0.400390625
4197.6865234375	0.00833333333333333	0	30	1.46041666666667	2	0.4599609375
4200.5537109375	0.00833333333333333	0	30	1.46041666666667	2	0.44921875
4203.34375	0.00833333333333333	0	30	1.33541666666667	2	0.70703125
4206.1279296875	0.00833333333333333	0	30	1.33541666666667	2	0.5703125
4209.01171875	0.00833333333333333	0	-30	-4.74583333333333	1	0.8232421875
4212.13671875	0.00833333333333333	0	30	1.33541666666667	2	0.6904296875
4215.2275390625	0.00833333333333333	0	30	1.33541666666667	1	0.759765625
4218.494140625	0.00833333333333333	0	-30	-4.74583333333333	1	0.8291015625
4221.8359375	0.00833333333333333	0	-30	-4.74583333333333	1	0.775390625
4224.994140625	0.00833333333333333	0	30	1.33541666666667	2	0.6171875
4227.8447265625	0.00833333333333333	0	-30	-4.62083333333333	1	0.5185546875
4230.552734375	0.00833333333333333	0	-30	-4.62083333333333	1	0.490234375
4233.0947265625	0.00833333333333333	0	30	1.33541666666667	2	0.556640625
4235.8359375	0.00833333333333333	0	30	1.33541666666667	1	0.8876953125
4238.810546875	0.00833333333333333	0	30	1.33541666666667	1	0.7451171875
4241.7939453125	0.00833333333333333	0	30	1.33541666666667	1	0.5703125
4244.8193359375	0.00833333333333333	0	30	1.33541666666667	1	0.6328125
4247.935546875	0.00833333333333333	0	30	1.33541666666667	1	0.4765625
4250.5361328125	0.00833333333333333	0	30	1.46041666666667	1	0.5078125
4253.494140625	0.00833333333333333	0	30	1.46041666666667	1	0.58984375
4256.5361328125	0.00833333333333333	0	-30	-4.62083333333333	1	0.6845703125
4259.251953125	0.00833333333333333	0	-30	-4.62083333333333	1	0.6083984375
4261.9775390625	0.00833333333333333	0	-30	-4.62083333333333	2	1.3232421875
4265.4609375	0.00833333333333333	0	30	1.46041666666667	2	0.6552734375
4268.6259765625	0.00833333333333333	0	-30	-4.62083333333333	1	0.642578125
4271.7353515625	0.00833333333333333	0	30	1.46041666666667	1	0.59765625
4274.384765625	0.00833333333333333	0	-30	-4.62083333333333	2	1.1484375
4277.6103515625	0.00833333333333333	0	-30	-4.62083333333333	1	0.5947265625
4280.41015625	0.00833333333333333	0	30	1.46041666666667	2	0.6435546875
4283.318359375	0.00833333333333333	0	30	1.46041666666667	1	0.5673828125
4286.34375	0.00833333333333333	0	-30	-4.62083333333333	2	1.26953125
4289.96875	0.00833333333333333	0	30	1.46041666666667	2	0.541015625
4292.6181640625	0.00833333333333333	0	30	1.46041666666667	1	0.6669921875
4295.751953125	0.00833333333333333	0	30	1.46041666666667	1	0.5498046875
4298.634765625	0.00833333333333333	0	30	1.46041666666667	1	0.53125
4301.509765625	0.00833333333333333	0	-30	-4.62083333333333	1	0.6318359375
4304.267578125	0.00833333333333333	0	30	1.46041666666667	2	0.578125
4307.16796875	0.00833333333333333	0	30	1.46041666666667	1	0.9423828125
4310.2265625	0.00833333333333333	0	-30	-4.62083333333333	1	1.0439453125
4313.4677734375	0.00833333333333333	0	30	1.46041666666667	2	1.05859375
