onset	duration	titr	surround	centre	response	rt
139.5244140625	0.00833333333333333	1	-30	15	2	4.544921875
146.3154296875	0.00833333333333333	1	-30	14	2	0.7783203125
149.5322265625	0.00833333333333333	1	-30	-15	1	1.033203125
152.9248046875	0.00833333333333333	1	30	-15	1	0.6572265625
155.7734375	0.00833333333333333	1	NaN	-15	1	0.6162109375
158.5576171875	0.00833333333333333	1	30	15	2	0.81640625
161.6318359375	0.00833333333333333	1	-30	13	2	0.630859375
164.740234375	0.00833333333333333	1	NaN	-14	1	0.7939453125
167.9736328125	0.00833333333333333	1	-30	-14	1	0.8408203125
171.115234375	0.00833333333333333	1	NaN	15	2	0.6513671875
174.181640625	0.00833333333333333	1	30	14	2	0.728515625
177.064453125	0.00833333333333333	1	30	-14	2	50.2314453125
229.388671875	0.00833333333333333	1	-30	12	2	0.69921875
232.5224609375	0.00833333333333333	1	30	-15	1	0.59765625
235.21484375	0.00833333333333333	1	-30	-13	1	0.7939453125
238.0068359375	0.00833333333333333	1	NaN	-13	1	0.75390625
240.8486328125	0.00833333333333333	1	30	13	2	0.7841796875
243.8896484375	0.00833333333333333	1	-30	11	2	0.71875
246.7216796875	0.00833333333333333	1	30	12	2	0.7587890625
249.73046875	0.00833333333333333	1	-30	10	2	0.630859375
252.6650390625	0.00833333333333333	1	-30	9	2	0.5595703125
255.431640625	0.00833333333333333	1	-30	8	2	0.5771484375
258.2900390625	0.00833333333333333	1	-30	7	2	0.7509765625
261.130859375	0.00833333333333333	1	NaN	14	2	0.75
264.255859375	0.00833333333333333	1	NaN	13	2	0.8251953125
267.59765625	0.00833333333333333	1	-30	-12	1	0.828125
270.630859375	0.00833333333333333	1	-30	6	2	0.8349609375
273.48828125	0.00833333333333333	1	NaN	12	2	1.0732421875
277.0048828125	0.00833333333333333	1	30	11	2	0.7724609375
279.8310546875	0.00833333333333333	1	30	10	2	0.8505859375
282.8974609375	0.00833333333333333	1	-30	-11	1	1.376953125
286.40625	0.00833333333333333	1	30	9	2	1.251953125
289.7548828125	0.00833333333333333	1	NaN	-12	1	1.6630859375
293.580078125	0.00833333333333333	1	NaN	11	2	0.7744140625
296.5458984375	0.00833333333333333	1	30	-14	1	0.728515625
299.6552734375	0.00833333333333333	1	NaN	-11	1	0.6591796875
302.5556640625	0.00833333333333333	1	NaN	-10	1	0.7744140625
305.513671875	0.00833333333333333	1	30	-13	1	0.6650390625
308.5634765625	0.00833333333333333	1	-30	5	2	0.6787109375
311.3046875	0.00833333333333333	1	30	-12	1	0.5859375
314.2548828125	0.00833333333333333	1	NaN	10	2	0.46875
316.73828125	0.00833333333333333	1	NaN	-9	1	0.544921875
319.421875	0.00833333333333333	1	30	8	2	0.6611328125
322.4638671875	0.00833333333333333	1	NaN	-8	1	0.6435546875
325.4970703125	0.00833333333333333	1	-30	4	2	0.5546875
328.2470703125	0.00833333333333333	1	-30	3	2	0.6845703125
331.3046875	0.00833333333333333	1	-30	2	2	0.6103515625
333.98828125	0.00833333333333333	1	30	7	1	1.3037109375
337.5546875	0.00833333333333333	1	NaN	9	2	0.5693359375
340.6044921875	0.00833333333333333	1	NaN	8	2	0.4794921875
343.2294921875	0.00833333333333333	1	-30	1	2	0.669921875
346.046875	0.00833333333333333	1	NaN	-7	1	0.7490234375
349.0048828125	0.00833333333333333	1	-30	-10	1	1.8154296875
352.87109375	0.00833333333333333	1	NaN	7	2	0.5810546875
355.5048828125	0.00833333333333333	1	30	-11	1	0.587890625
358.2041015625	0.00833333333333333	1	-30	-9	1	1.0078125
361.462890625	0.00833333333333333	1	-30	-8	1	1.7412109375
365.5546875	0.00833333333333333	1	30	-10	1	0.7138671875
368.6962890625	0.00833333333333333	1	30	8	2	0.884765625
371.962890625	0.00833333333333333	1	NaN	6	2	0.833984375
375.0625	0.00833333333333333	1	-30	0	2	0.88671875
378.4296875	0.00833333333333333	1	NaN	-6	1	0.791015625
381.5546875	0.00833333333333333	1	-30	-1	2	1.0986328125
384.9794921875	0.00833333333333333	1	NaN	-5	1	0.681640625
388.095703125	0.00833333333333333	1	-30	-7	1	0.94921875
391.1875	0.00833333333333333	1	NaN	-4	1	1.689453125
395.287109375	0.00833333333333333	1	30	7	2	2.71875
400.328125	0.00833333333333333	1	30	-9	1	0.685546875
403.4873046875	0.00833333333333333	1	30	6	2	1.646484375
407.4365234375	0.00833333333333333	1	-30	-6	2	2.44140625
412.052734375	0.00833333333333333	1	-30	-2	2	2.025390625
416.51171875	0.00833333333333333	1	30	-8	1	0.7265625
419.6875	0.00833333333333333	1	-30	-3	2	0.9345703125
422.8115234375	0.00833333333333333	1	-30	-7	1	1.02734375
426.1865234375	0.00833333333333333	1	30	-7	1	1.076171875
429.470703125	0.00833333333333333	1	30	-6	1	3.16015625
434.919921875	0.00833333333333333	1	NaN	5	2	0.8466796875
438.1943359375	0.00833333333333333	1	-30	-6	1	1.1962890625
587.9931640625	0.00833333333333333	1	30	5	2	0.8427734375
591.25	0.00833333333333333	1	NaN	4	2	0.7373046875
594.30078125	0.00833333333333333	1	-30	-4	2	0.8232421875
597.142578125	0.00833333333333333	1	NaN	-3	1	0.8291015625
600.359375	0.00833333333333333	1	30	-5	1	0.6923828125
603.4677734375	0.00833333333333333	1	-30	-5	2	0.9208984375
606.6845703125	0.00833333333333333	1	30	4	2	0.8154296875
609.625	0.00833333333333333	1	-30	-6	2	0.9072265625
612.94140625	0.00833333333333333	1	-30	-7	1	1.0712890625
616.1171875	0.00833333333333333	1	-30	-5	2	1.4873046875
619.9755859375	0.00833333333333333	1	-30	-6	2	1.029296875
623.150390625	0.00833333333333333	1	-30	-7	2	1.158203125
626.30859375	0.00833333333333333	1	NaN	3	2	0.6083984375
629.1162109375	0.00833333333333333	1	NaN	2	2	0.6484375
631.8837890625	0.00833333333333333	1	NaN	1	2	0.7529296875
634.900390625	0.00833333333333333	1	30	-4	1	0.6572265625
637.55859375	0.00833333333333333	1	NaN	0	2	0.654296875
640.4755859375	0.00833333333333333	1	NaN	-2	1	0.6494140625
643.25	0.00833333333333333	1	30	3	2	0.916015625
646.625	0.00833333333333333	1	-30	-8	1	0.7724609375
649.6083984375	0.00833333333333333	1	30	-3	1	0.5810546875
652.458984375	0.00833333333333333	1	30	-2	1	0.5302734375
655.4326171875	0.00833333333333333	1	-30	-6	2	0.61328125
658.4833984375	0.00833333333333333	1	30	-1	1	0.72265625
661.400390625	0.00833333333333333	1	NaN	-1	1	0.8779296875
664.2587890625	0.00833333333333333	1	-30	-7	1	0.947265625
667.6171875	0.00833333333333333	1	-30	-7	1	0.724609375
670.6416015625	0.00833333333333333	1	-30	-6	1	1.7724609375
674.44140625	0.00833333333333333	1	30	0	1	0.7255859375
677.3330078125	0.00833333333333333	1	NaN	0	1	1.857421875
681.57421875	0.00833333333333333	1	NaN	-1	2	1.1923828125
685.1748046875	0.00833333333333333	1	30	1	1	0.728515625
688.1748046875	0.00833333333333333	1	-30	-5	2	1.3681640625
691.7822265625	0.00833333333333333	1	NaN	1	2	0.8408203125
694.82421875	0.00833333333333333	1	-30	-6	1	1.0546875
697.916015625	0.00833333333333333	1	-30	-6	1	0.9072265625
701.099609375	0.00833333333333333	1	30	2	1	0.8037109375
704.06640625	0.00833333333333333	1	30	3	2	2.1494140625
708.4580078125	0.00833333333333333	1	NaN	-2	1	0.91796875
711.56640625	0.00833333333333333	1	30	2	2	1.6171875
715.5908203125	0.00833333333333333	1	-30	-5	2	1.0732421875
719.0986328125	0.00833333333333333	1	30	1	1	1.1416015625
722.564453125	0.00833333333333333	1	NaN	0	2	1.115234375
725.8662109375	0.00833333333333333	1	30	2	1	1.24609375
729.6396484375	0.00833333333333333	1	NaN	-1	1	1.080078125
733.041015625	0.00833333333333333	1	30	3	1	0.87890625
736.0986328125	0.00833333333333333	1	-30	-6	1	0.990234375
739.265625	0.00833333333333333	1	NaN	-1	1	1.3349609375
742.5908203125	0.00833333333333333	1	30	4	1	1.154296875
745.8486328125	0.00833333333333333	1	-30	-5	1	1.583984375
749.5068359375	0.00833333333333333	1	-30	-4	1	1.2216796875
752.740234375	0.00833333333333333	1	30	5	1	1.1484375
756.20703125	0.00833333333333333	1	-30	-3	2	1.5224609375
759.8740234375	0.00833333333333333	1	30	6	2	1.3916015625
763.6396484375	0.00833333333333333	1	NaN	0	2	1.3056640625
767.1064453125	0.00833333333333333	1	30	5	2	1.2470703125
770.3984375	0.00833333333333333	1	NaN	0	2	1.203125
773.9560546875	0.00833333333333333	1	-30	-5	2	0.9658203125
776.9482421875	0.00833333333333333	1	30	2	2	1.3017578125
780.2734375	0.00833333333333333	1	NaN	-1	2	1.2802734375
783.6552734375	0.00833333333333333	1	30	4	2	1.03515625
787.0478515625	0.00833333333333333	1	-30	-4	2	1.05859375
790.0986328125	0.00833333333333333	1	NaN	-1	2	1.103515625
793.23046875	0.00833333333333333	1	-30	-5	1	1.5
797.064453125	0.00833333333333333	1	-30	-6	1	1.177734375
800.7060546875	0.00833333333333333	1	30	1	2	1.400390625
804.28125	0.00833333333333333	1	-30	-4	1	2.337890625
809.08984375	0.00833333333333333	1	-30	-5	1	0.873046875
812.3232421875	0.00833333333333333	1	NaN	-2	1	0.83203125
815.2890625	0.00833333333333333	1	NaN	-1	1	0.75390625
818.5634765625	0.00833333333333333	1	NaN	-2	1	0.767578125
821.71484375	0.00833333333333333	1	NaN	0	1	0.81640625
824.8134765625	0.00833333333333333	1	-30	-3	1	1.166015625
828.21484375	0.00833333333333333	1	30	3	1	1.724609375
832.2548828125	0.00833333333333333	1	-30	-2	1	0.7724609375
835.255859375	0.00833333333333333	1	-30	-4	1	1.251953125
838.697265625	0.00833333333333333	1	-30	-1	2	0.810546875
841.9560546875	0.00833333333333333	1	30	4	2	1.3115234375
845.630859375	0.00833333333333333	1	30	3	2	1.0927734375
848.9306640625	0.00833333333333333	1	30	0	1	1.337890625
852.7294921875	0.00833333333333333	1	NaN	1	2	0.73046875
855.84765625	0.00833333333333333	1	NaN	0	2	0.884765625
858.7470703125	0.00833333333333333	1	NaN	-1	2	0.8095703125
861.9140625	0.00833333333333333	1	NaN	-1	2	0.73046875
865.0390625	0.00833333333333333	1	-30	-3	1	1.005859375
868.080078125	0.00833333333333333	1	30	2	2	0.7724609375
871.2138671875	0.00833333333333333	1	NaN	-2	1	0.791015625
874.3056640625	0.00833333333333333	1	-30	-2	2	1.1953125
877.5302734375	0.00833333333333333	1	30	1	2	1.466796875
881.3212890625	0.00833333333333333	1	-30	-3	1	1.8115234375
885.263671875	0.00833333333333333	1	-30	-2	2	0.75
1036.7529296875	0.00833333333333333	1	30	0	1	0.705078125
1039.9111328125	0.00833333333333333	1	NaN	-2	1	0.7548828125
1043.1357421875	0.00833333333333333	1	30	1	1	0.9951171875
1046.52734375	0.00833333333333333	1	NaN	-1	2	0.9794921875
1049.7685546875	0.00833333333333333	1	NaN	-2	1	0.689453125
1052.8359375	0.00833333333333333	1	NaN	-1	2	0.8466796875
1056.1357421875	0.00833333333333333	1	30	1	1	1.0986328125
1059.2861328125	0.00833333333333333	1	-30	-3	2	1.3173828125
1062.7763671875	0.00833333333333333	1	NaN	-1	1	0.802734375
1065.810546875	0.00833333333333333	1	NaN	0	2	0.744140625
1068.71875	0.00833333333333333	1	30	2	1	0.724609375
1071.744140625	0.00833333333333333	1	-30	-4	1	0.9228515625
1074.6943359375	0.00833333333333333	1	30	3	1	0.7568359375
1077.7939453125	0.00833333333333333	1	30	4	1	0.9052734375
1081.126953125	0.00833333333333333	1	-30	-3	2	0.7568359375
1084.0263671875	0.00833333333333333	1	NaN	-1	1	0.6650390625
1086.7265625	0.00833333333333333	1	NaN	0	1	0.7412109375
1089.884765625	0.00833333333333333	1	30	5	2	1.046875
1093.3427734375	0.00833333333333333	1	30	2	1	0.693359375
1096.4765625	0.00833333333333333	1	30	3	1	0.6953125
1099.193359375	0.00833333333333333	1	30	4	1	0.6669921875
1102.1103515625	0.00833333333333333	1	30	4	1	0.662109375
1104.8095703125	0.00833333333333333	1	NaN	1	1	1.0830078125
1107.91796875	0.00833333333333333	1	30	5	2	0.7666015625
1111.0595703125	0.00833333333333333	1	NaN	2	2	1.392578125
1114.8583984375	0.00833333333333333	1	NaN	1	2	0.673828125
1117.54296875	0.00833333333333333	1	30	4	2	0.8134765625
1120.517578125	0.00833333333333333	1	NaN	0	2	0.8955078125
1123.66796875	0.00833333333333333	1	NaN	-1	1	0.4970703125
1126.4599609375	0.00833333333333333	1	30	3	1	0.8173828125
1129.6591796875	0.00833333333333333	1	30	4	1	0.849609375
1132.6591796875	0.00833333333333333	1	30	5	2	1.1298828125
1135.9267578125	0.00833333333333333	1	-30	-4.58333333333333	1	0.982421875
1139.3505859375	0.00833333333333333	1	NaN	-1.33333333333333	2	0.86328125
1142.4833984375	0.00833333333333333	1	NaN	-0.333333333333333	1	0.994140625
1145.6015625	0.00833333333333333	1	-30	-3.58333333333333	1	0.8837890625
1148.6259765625	0.00833333333333333	1	30	2.58333333333333	1	0.755859375
1151.5	0.00833333333333333	1	-30	-3.45833333333333	2	0.826171875
1154.384765625	0.00833333333333333	1	30	3.58333333333333	1	0.7412109375
1157.458984375	0.00833333333333333	1	30	2.70833333333333	2	0.8349609375
1160.392578125	0.00833333333333333	1	NaN	-1.45833333333333	2	0.7978515625
1163.6669921875	0.00833333333333333	1	-30	-3.58333333333333	1	0.771484375
1166.708984375	0.00833333333333333	1	-30	-4.45833333333333	1	1.0888671875
1169.7998046875	0.00833333333333333	1	30	2.58333333333333	1	0.9833984375
1173.1669921875	0.00833333333333333	1	-30	-3.45833333333333	1	0.8876953125
1176.3837890625	0.00833333333333333	1	-30	-3.33333333333333	1	0.9912109375
1179.650390625	0.00833333333333333	1	-30	-3.20833333333333	1	0.9326171875
1182.67578125	0.00833333333333333	1	-30	-4.33333333333333	1	0.8671875
1185.7255859375	0.00833333333333333	1	NaN	-1.58333333333333	1	0.8095703125
1188.8837890625	0.00833333333333333	1	30	2.70833333333333	2	1.5234375
1192.43359375	0.00833333333333333	1	-30	-3.08333333333333	2	0.7412109375
1195.5419921875	0.00833333333333333	1	-30	-3.20833333333333	1	0.8974609375
1198.708984375	0.00833333333333333	1	NaN	-0.208333333333333	2	0.818359375
1202.0498046875	0.00833333333333333	1	30	2.58333333333333	1	1.013671875
1205.3330078125	0.00833333333333333	1	NaN	-0.333333333333333	2	0.9541015625
1208.4501953125	0.00833333333333333	1	30	3.70833333333333	2	1.1337890625
1211.8408203125	0.00833333333333333	1	NaN	-1.45833333333333	1	0.9189453125
1214.841796875	0.00833333333333333	1	-30	-4.20833333333333	1	1.142578125
1218.3330078125	0.00833333333333333	1	30	2.70833333333333	2	1.2353515625
1221.775390625	0.00833333333333333	1	30	2.58333333333333	1	0.96875
1225.125	0.00833333333333333	1	-30	-4.08333333333333	1	0.7626953125
1228.2919921875	0.00833333333333333	1	NaN	-1.33333333333333	2	0.7646484375
1231.5068359375	0.00833333333333333	1	-30	-3.08333333333333	1	0.765625
1234.4248046875	0.00833333333333333	1	30	2.70833333333333	2	0.7353515625
1237.591796875	0.00833333333333333	1	NaN	-1.45833333333333	2	1.1044921875
1241.224609375	0.00833333333333333	1	30	3.58333333333333	2	0.83984375
1244.4912109375	0.00833333333333333	1	NaN	-1.58333333333333	1	0.7578125
1247.6494140625	0.00833333333333333	1	30	2.58333333333333	2	0.83984375
1250.482421875	0.00833333333333333	1	-30	-2.95833333333333	1	2.2861328125
1254.916015625	0.00833333333333333	1	-30	-2.83333333333333	1	0.708984375
1257.7900390625	0.00833333333333333	1	30	3.45833333333333	2	0.6513671875
1260.515625	0.00833333333333333	1	30	3.33333333333333	1	1.4052734375
1264.3662109375	0.00833333333333333	1	30	2.45833333333333	2	0.69921875
1267.33203125	0.00833333333333333	1	30	2.33333333333333	2	0.6376953125
1270.08203125	0.00833333333333333	1	NaN	-0.458333333333333	2	0.7998046875
1273.173828125	0.00833333333333333	1	-30	-3.95833333333333	1	0.828125
1276.291015625	0.00833333333333333	1	-30	-3.83333333333333	2	0.783203125
1279.1826171875	0.00833333333333333	1	-30	-2.70833333333333	2	0.5634765625
1281.81640625	0.00833333333333333	1	30	2.20833333333333	1	1.025390625
1284.9072265625	0.00833333333333333	1	-30	-2.83333333333333	1	0.89453125
1287.8564453125	0.00833333333333333	1	30	2.33333333333333	1	0.7294921875
1290.990234375	0.00833333333333333	1	30	3.45833333333333	2	0.8359375
1294.32421875	0.00833333333333333	1	-30	-2.70833333333333	1	0.822265625
1297.1572265625	0.00833333333333333	1	-30	-3.95833333333333	1	0.7890625
1300.08203125	0.00833333333333333	1	30	3.33333333333333	2	1.064453125
1303.2490234375	0.00833333333333333	1	NaN	-0.583333333333333	1	0.7216796875
1305.990234375	0.00833333333333333	1	-30	-3.83333333333333	1	0.724609375
1309.1064453125	0.00833333333333333	1	NaN	-0.458333333333333	2	0.5361328125
1312.140625	0.00833333333333333	1	NaN	-0.583333333333333	2	0.5986328125
1314.95703125	0.00833333333333333	1	30	3.20833333333333	2	0.58203125
1317.58984375	0.00833333333333333	1	-30	-3.70833333333333	1	1.109375
1320.7822265625	0.00833333333333333	1	-30	-2.58333333333333	2	0.9248046875
1323.9482421875	0.00833333333333333	1	NaN	-0.708333333333333	1	0.791015625
1326.814453125	0.00833333333333333	1	-30	-3.58333333333333	2	0.693359375
1329.9150390625	0.00833333333333333	1	NaN	-1.45833333333333	2	0.6962890625
1332.7978515625	0.00833333333333333	1	NaN	-0.583333333333333	2	0.7578125
1335.9736328125	0.00833333333333333	1	30	3.08333333333333	2	0.7265625
1462.8701171875	0.00833333333333333	1	NaN	-1.58333333333333	1	0.658203125
1465.6630859375	0.00833333333333333	1	-30	-2.70833333333333	2	0.896484375
1469.0380859375	0.00833333333333333	1	-30	-3.70833333333333	1	0.76171875
1472.0380859375	0.00833333333333333	1	30	2.95833333333333	1	0.6259765625
1475.0625	0.00833333333333333	1	30	3.08333333333333	1	0.8095703125
1478.2880859375	0.00833333333333333	1	NaN	-1.45833333333333	1	0.640625
1481.0791015625	0.00833333333333333	1	-30	-2.83333333333333	2	0.76171875
1484.24609375	0.00833333333333333	1	-30	-3.58333333333333	2	1.07421875
1487.6044921875	0.00833333333333333	1	30	3.20833333333333	1	0.8037109375
1490.9296875	0.00833333333333333	1	-30	-3.70833333333333	2	0.6953125
1493.7294921875	0.00833333333333333	1	NaN	-0.708333333333333	2	0.927734375
1496.8544921875	0.00833333333333333	1	NaN	-1.33333333333333	1	0.7705078125
1499.7041015625	0.00833333333333333	1	NaN	-1.20833333333333	2	1.15234375
1503.26953125	0.00833333333333333	1	NaN	-0.833333333333333	2	0.603515625
1506.0791015625	0.00833333333333333	1	30	2.45833333333333	1	0.6015625
1508.9453125	0.00833333333333333	1	30	2.58333333333333	1	0.5595703125
1511.5205078125	0.00833333333333333	1	-30	-2.95833333333333	2	1.12109375
1515.0869140625	0.00833333333333333	1	NaN	-1.33333333333333	2	0.642578125
1518.0947265625	0.00833333333333333	1	30	2.70833333333333	1	0.6826171875
1520.9951171875	0.00833333333333333	1	-30	-3.83333333333333	2	0.638671875
1524.044921875	0.00833333333333333	1	NaN	-1.45833333333333	2	0.556640625
1527.00390625	0.00833333333333333	1	30	2.83333333333333	1	0.501953125
1529.853515625	0.00833333333333333	1	NaN	-1.58333333333333	2	0.5966796875
1532.6533203125	0.00833333333333333	1	-30	-3.95833333333333	2	0.541015625
1535.5537109375	0.00833333333333333	1	-30	-4.08333333333333	2	0.83984375
1538.6201171875	0.00833333333333333	1	NaN	-1.70833333333333	1	0.5986328125
1541.6787109375	0.00833333333333333	1	30	2.95833333333333	1	0.5556640625
1544.39453125	0.00833333333333333	1	30	3.08333333333333	1	0.7197265625
1547.169921875	0.00833333333333333	1	NaN	-0.958333333333333	2	1.0966796875
1550.578125	0.00833333333333333	1	30	3.33333333333333	1	0.576171875
1553.228515625	0.00833333333333333	1	-30	-4.20833333333333	2	0.56640625
1556.2529296875	0.00833333333333333	1	NaN	-1.08333333333333	1	0.91015625
1559.177734375	0.00833333333333333	1	30	3.45833333333333	1	0.5048828125
1562.0693359375	0.00833333333333333	1	30	3.58333333333333	1	0.517578125
1564.89453125	0.00833333333333333	1	NaN	-1.58333333333333	1	0.63671875
1567.5947265625	0.00833333333333333	1	30	3.20833333333333	2	0.9921875
1570.6611328125	0.00833333333333333	1	30	3.70833333333333	1	0.830078125
1573.4697265625	0.00833333333333333	1	30	3.83333333333333	1	0.8212890625
1576.7939453125	0.00833333333333333	1	-30	-3.08333333333333	1	1.2822265625
1580.302734375	0.00833333333333333	1	-30	-2.95833333333333	1	0.95703125
1583.27734375	0.00833333333333333	1	NaN	-1.45833333333333	2	0.6865234375
1586.3447265625	0.00833333333333333	1	NaN	-1.58333333333333	1	0.9306640625
1589.361328125	0.00833333333333333	1	NaN	-1.45833333333333	2	0.802734375
1592.4697265625	0.00833333333333333	1	NaN	-0.958333333333333	2	0.75
1595.2529296875	0.00833333333333333	1	-30	-4.33333333333333	2	0.630859375
1597.927734375	0.00833333333333333	1	30	3.08333333333333	2	0.9248046875
1601.2939453125	0.00833333333333333	1	-30	-2.83333333333333	2	0.630859375
1604.3603515625	0.00833333333333333	1	NaN	-1.58333333333333	2	0.908203125
1607.7939453125	0.00833333333333333	1	-30	-4.45833333333333	2	0.7783203125
1610.677734375	0.00833333333333333	1	30	2.95833333333333	1	0.974609375
1613.91015625	0.00833333333333333	1	-30	-2.95833333333333	2	0.638671875
1616.859375	0.00833333333333333	1	NaN	-1.70833333333333	2	0.6494140625
1619.560546875	0.00833333333333333	1	NaN	-1.08333333333333	2	0.65234375
1622.3525390625	0.00833333333333333	1	NaN	-1.83333333333333	2	0.580078125
1625.21875	0.00833333333333333	1	-30	-4.58333333333333	1	0.8984375
1628.4755859375	0.00833333333333333	1	30	3.95833333333333	2	0.5458984375
1631.494140625	0.00833333333333333	1	-30	-3.08333333333333	1	0.8388671875
1634.7353515625	0.00833333333333333	1	NaN	-1.95833333333333	2	0.6142578125
1637.8349609375	0.00833333333333333	1	NaN	-2.08333333333333	1	0.650390625
1640.693359375	0.00833333333333333	1	-30	-2.95833333333333	1	1.015625
1643.9853515625	0.00833333333333333	1	30	3.08333333333333	2	0.755859375
1646.9931640625	0.00833333333333333	1	NaN	-1.95833333333333	1	0.572265625
1649.6181640625	0.00833333333333333	1	-30	-4.45833333333333	1	0.7314453125
1652.54296875	0.00833333333333333	1	30	3.83333333333333	1	1.20703125
1655.951171875	0.00833333333333333	1	NaN	-1.20833333333333	1	0.9345703125
1659.076171875	0.00833333333333333	1	NaN	-1.83333333333333	1	0.8662109375
1662.29296875	0.00833333333333333	1	NaN	-1.70833333333333	1	0.681640625
1665.068359375	0.00833333333333333	1	30	2.95833333333333	1	2.4736328125
1669.759765625	0.00833333333333333	1	NaN	-1.58333333333333	2	0.630859375
1672.7099609375	0.00833333333333333	1	-30	-2.83333333333333	2	0.4326171875
1675.5009765625	0.00833333333333333	1	30	3.08333333333333	1	0.921875
1678.6337890625	0.00833333333333333	1	-30	-2.95833333333333	2	0.5810546875
1681.7265625	0.00833333333333333	1	30	3.20833333333333	1	0.6318359375
1684.7763671875	0.00833333333333333	1	NaN	-1.70833333333333	1	0.6142578125
1687.93359375	0.00833333333333333	1	30	3.95833333333333	2	0.7294921875
1690.9013671875	0.00833333333333333	1	-30	-3.08333333333333	2	0.76953125
1693.92578125	0.00833333333333333	1	-30	-4.33333333333333	1	1.1533203125
1697.4765625	0.00833333333333333	1	-30	-4.20833333333333	1	0.8427734375
1700.7431640625	0.00833333333333333	1	NaN	-1.58333333333333	1	0.560546875
1703.583984375	0.00833333333333333	1	30	3.83333333333333	1	0.8232421875
1706.576171875	0.00833333333333333	1	NaN	-1.45833333333333	1	1.0556640625
1710.1005859375	0.00833333333333333	1	30	3.95833333333333	2	0.68359375
1713.1494140625	0.00833333333333333	1	-30	-4.08333333333333	2	0.666015625
1715.7919921875	0.00833333333333333	1	-30	-4.20833333333333	2	0.8720703125
1719.05078125	0.00833333333333333	1	-30	-3.20833333333333	1	1.1494140625
1722.517578125	0.00833333333333333	1	30	3.33333333333333	1	0.986328125
1725.783203125	0.00833333333333333	1	NaN	-1.08333333333333	2	0.79296875
1728.67578125	0.00833333333333333	1	-30	-4.33333333333333	1	0.8046875
1731.55078125	0.00833333333333333	1	-30	-4.20833333333333	2	0.6494140625
1734.517578125	0.00833333333333333	1	30	3.45833333333333	1	0.779296875
1737.3837890625	0.00833333333333333	1	NaN	-1.20833333333333	2	0.6484375
1740.4501953125	0.00833333333333333	1	30	3.83333333333333	2	0.91015625
1743.5419921875	0.00833333333333333	1	NaN	-1.33333333333333	2	0.6826171875
1746.3173828125	0.00833333333333333	1	30	3.70833333333333	2	0.7314453125
1749.3505859375	0.00833333333333333	1	NaN	-1.33333333333333	1	3.962890625
1755.4248046875	0.00833333333333333	1	-30	-4.33333333333333	2	0.80078125
1758.2587890625	0.00833333333333333	1	-30	-3.08333333333333	2	0.8623046875
1761.3076171875	0.00833333333333333	1	-30	-4.45833333333333	2	0.60546875
1879.5732421875	0.00833333333333333	1	-30	-3.20833333333333	2	0.8720703125
1882.7978515625	0.00833333333333333	1	30	3.58333333333333	1	0.6474609375
1885.6982421875	0.00833333333333333	1	-30	-3.33333333333333	2	0.6513671875
1888.7392578125	0.00833333333333333	1	-30	-4.58333333333333	2	0.666015625
1891.439453125	0.00833333333333333	1	NaN	-1.45833333333333	1	1.005859375
1894.78125	0.00833333333333333	1	NaN	-1.20833333333333	1	0.6884765625
1897.8232421875	0.00833333333333333	1	NaN	-1.08333333333333	2	0.791015625
1900.623046875	0.00833333333333333	1	-30	-4.70833333333333	2	0.630859375
1903.28125	0.00833333333333333	1	-30	-4.83333333333333	1	0.6689453125
1906.15625	0.00833333333333333	1	30	3.58333333333333	1	0.6494140625
1909.1640625	0.00833333333333333	1	30	3.70833333333333	1	0.7060546875
1912.046875	0.00833333333333333	1	NaN	-1.20833333333333	1	0.9033203125
1915.0810546875	0.00833333333333333	1	NaN	-1.08333333333333	1	1.0615234375
1918.5556640625	0.00833333333333333	1	-30	-4.70833333333333	2	0.8583984375
1921.623046875	0.00833333333333333	1	30	3.83333333333333	2	1.0390625
1924.6962890625	0.00833333333333333	1	30	3.70833333333333	2	1.0380859375
1928.11328125	0.00833333333333333	1	-30	-3.45833333333333	2	0.7255859375
1931.0556640625	0.00833333333333333	1	30	3.70833333333333	2	0.9755859375
1934.388671875	0.00833333333333333	1	-30	-3.58333333333333	2	0.7138671875
1937.271484375	0.00833333333333333	1	30	3.58333333333333	1	0.7275390625
1940.10546875	0.00833333333333333	1	30	3.58333333333333	2	0.7099609375
1943.1474609375	0.00833333333333333	1	-30	-3.70833333333333	2	0.66796875
1945.85546875	0.00833333333333333	1	30	3.45833333333333	1	0.7841796875
1948.86328125	0.00833333333333333	1	NaN	-0.958333333333333	2	0.6162109375
1951.830078125	0.00833333333333333	1	-30	-3.83333333333333	2	0.5693359375
1954.6630859375	0.00833333333333333	1	30	3.58333333333333	1	0.6162109375
1957.447265625	0.00833333333333333	1	-30	-4.83333333333333	2	0.65625
1960.138671875	0.00833333333333333	1	30	3.70833333333333	1	0.64453125
1963.013671875	0.00833333333333333	1	30	3.70833333333333	2	0.9619140625
1966.4052734375	0.00833333333333333	1	30	3.58333333333333	2	0.90625
1969.3134765625	0.00833333333333333	1	-30	-4.95833333333333	1	0.951171875
1972.5380859375	0.00833333333333333	1	30	3.83333333333333	1	1.6064453125
1976.3720703125	0.00833333333333333	1	-30	-3.95833333333333	1	0.67578125
1979.421875	0.00833333333333333	1	-30	-3.83333333333333	2	0.72265625
1982.25390625	0.00833333333333333	1	30	3.95833333333333	1	0.72265625
1985.3134765625	0.00833333333333333	1	30	4.08333333333333	2	1.271484375
1988.7548828125	0.00833333333333333	1	-30	-4.83333333333333	2	0.78125
1991.962890625	0.00833333333333333	1	NaN	-1.08333333333333	2	0.861328125
1995.205078125	0.00833333333333333	1	30	3.45833333333333	1	1.8037109375
1999.50390625	0.00833333333333333	1	30	3.58333333333333	1	0.9052734375
2002.7880859375	0.00833333333333333	1	-30	-4.95833333333333	2	1.2529296875
2006.3544921875	0.00833333333333333	1	NaN	-1.20833333333333	2	0.814453125
2009.1875	0.00833333333333333	1	30	3.70833333333333	1	1.341796875
2012.5380859375	0.00833333333333333	1	-30	-5.08333333333333	1	1.0712890625
2015.6962890625	0.00833333333333333	1	30	3.83333333333333	2	0.9208984375
2018.8212890625	0.00833333333333333	1	NaN	-1.33333333333333	1	0.8759765625
2021.9296875	0.00833333333333333	1	NaN	-1.20833333333333	2	0.568359375
2024.7119140625	0.00833333333333333	1	-30	-4.95833333333333	1	1.1455078125
2027.99609375	0.00833333333333333	1	-30	-4.83333333333333	1	0.8935546875
2031.25390625	0.00833333333333333	1	-30	-4.70833333333333	2	0.7958984375
2034.546875	0.00833333333333333	0	30	3.42708333333333	2	0.6318359375
2037.3955078125	0.00833333333333333	0	-30	-3.88333333333333	2	0.8388671875
2040.4287109375	0.00833333333333333	0	-30	-3.88333333333333	2	0.677734375
2043.24609375	0.00833333333333333	0	30	3.42708333333333	1	0.8125
2046.1044921875	0.00833333333333333	0	-30	-3.88333333333333	2	0.7060546875
2049.154296875	0.00833333333333333	0	-30	-3.88333333333333	2	0.7041015625
2052.203125	0.00833333333333333	0	-30	-3.88333333333333	1	1.087890625
2055.603515625	0.00833333333333333	0	30	3.42708333333333	1	0.951171875
2058.8955078125	0.00833333333333333	0	-30	-3.88333333333333	2	0.68359375
2061.7451171875	0.00833333333333333	0	-30	-3.88333333333333	1	1.009765625
2065.1533203125	0.00833333333333333	0	-30	-3.88333333333333	2	0.9619140625
2068.6455078125	0.00833333333333333	0	-30	-3.88333333333333	2	0.8134765625
2071.720703125	0.00833333333333333	0	30	3.42708333333333	2	0.71484375
2074.8203125	0.00833333333333333	0	-30	-3.88333333333333	2	0.6953125
2077.728515625	0.00833333333333333	0	-30	-3.88333333333333	2	0.6748046875
2080.7119140625	0.00833333333333333	0	30	3.42708333333333	1	0.69140625
2083.478515625	0.00833333333333333	0	30	3.42708333333333	1	0.796875
2086.4365234375	0.00833333333333333	0	30	3.42708333333333	2	1.0234375
2089.9365234375	0.00833333333333333	0	30	3.42708333333333	2	0.6435546875
2092.89453125	0.00833333333333333	0	-30	-3.88333333333333	1	0.95703125
2096.287109375	0.00833333333333333	0	-30	-3.88333333333333	2	0.8125
2099.2529296875	0.00833333333333333	0	30	3.42708333333333	1	0.6396484375
2102.3779296875	0.00833333333333333	0	-30	-3.88333333333333	2	0.658203125
2105.1025390625	0.00833333333333333	0	30	3.42708333333333	2	0.693359375
2107.9033203125	0.00833333333333333	0	30	3.42708333333333	2	0.5888671875
2110.794921875	0.00833333333333333	0	-30	-3.88333333333333	1	0.689453125
2113.669921875	0.00833333333333333	0	30	3.42708333333333	1	0.6787109375
2116.453125	0.00833333333333333	0	-30	-3.88333333333333	1	0.6552734375
2119.169921875	0.00833333333333333	0	-30	-3.88333333333333	2	0.6591796875
2122.16015625	0.00833333333333333	0	30	3.42708333333333	2	0.869140625
2125.419921875	0.00833333333333333	0	-30	-3.88333333333333	2	0.609375
2128.486328125	0.00833333333333333	0	30	3.42708333333333	1	1.150390625
2132.02734375	0.00833333333333333	0	30	3.42708333333333	2	0.8740234375
2135.15234375	0.00833333333333333	0	-30	-3.88333333333333	1	0.9091796875
2138.310546875	0.00833333333333333	0	30	3.42708333333333	1	0.638671875
2140.9609375	0.00833333333333333	0	30	3.42708333333333	1	0.732421875
2143.7939453125	0.00833333333333333	0	-30	-3.88333333333333	1	0.763671875
2146.7607421875	0.00833333333333333	0	30	3.42708333333333	2	1.0537109375
2150.2275390625	0.00833333333333333	0	-30	-3.88333333333333	1	0.7939453125
2153.3603515625	0.00833333333333333	0	-30	-3.88333333333333	1	1.3251953125
2156.7685546875	0.00833333333333333	0	30	3.42708333333333	2	0.75
2159.802734375	0.00833333333333333	0	30	3.42708333333333	2	0.7470703125
2162.7607421875	0.00833333333333333	0	-30	-3.88333333333333	1	1.1494140625
2166.2021484375	0.00833333333333333	0	-30	-3.75833333333333	1	0.7802734375
2169.2607421875	0.00833333333333333	0	30	3.42708333333333	2	0.921875
2172.3935546875	0.00833333333333333	0	-30	-3.75833333333333	2	0.716796875
2175.2353515625	0.00833333333333333	0	30	3.42708333333333	2	1.4755859375
2178.8857421875	0.00833333333333333	0	-30	-3.75833333333333	2	0.7373046875
2181.7685546875	0.00833333333333333	0	-30	-3.75833333333333	2	0.9501953125
2185.1591796875	0.00833333333333333	0	-30	-3.75833333333333	2	0.8232421875
2188.1689453125	0.00833333333333333	0	30	3.30208333333333	1	0.7578125
2191.310546875	0.00833333333333333	0	-30	-3.75833333333333	2	0.8486328125
2194.310546875	0.00833333333333333	0	30	3.30208333333333	1	1.0009765625
2197.34375	0.00833333333333333	0	30	3.30208333333333	2	1.0390625
2200.54296875	0.00833333333333333	0	30	3.30208333333333	1	2
2205.0263671875	0.00833333333333333	0	-30	-3.88333333333333	1	0.7890625
2208.0341796875	0.00833333333333333	0	30	3.30208333333333	1	0.60546875
2211.0927734375	0.00833333333333333	0	30	3.30208333333333	2	0.8427734375
2214.1435546875	0.00833333333333333	0	30	3.30208333333333	2	1.072265625
2217.7265625	0.00833333333333333	0	30	3.30208333333333	2	0.6015625
2220.5849609375	0.00833333333333333	0	-30	-3.88333333333333	1	0.87890625
2223.509765625	0.00833333333333333	0	-30	-3.88333333333333	1	0.73828125
2226.5595703125	0.00833333333333333	0	-30	-3.88333333333333	1	0.6884765625
2229.634765625	0.00833333333333333	0	-30	-3.88333333333333	1	0.853515625
2232.634765625	0.00833333333333333	0	-30	-3.75833333333333	1	0.7734375
2235.9013671875	0.00833333333333333	0	-30	-3.75833333333333	2	0.7626953125
2239.1513671875	0.00833333333333333	0	-30	-3.75833333333333	1	0.7451171875
2242.201171875	0.00833333333333333	0	30	3.30208333333333	1	0.703125
2245.0341796875	0.00833333333333333	0	-30	-3.75833333333333	2	0.6865234375
2248.06640625	0.00833333333333333	0	30	3.30208333333333	1	0.8466796875
2251.1591796875	0.00833333333333333	0	30	3.30208333333333	2	0.74609375
2254.3671875	0.00833333333333333	0	30	3.30208333333333	2	1.0419921875
2257.642578125	0.00833333333333333	0	30	3.30208333333333	2	0.654296875
2260.4013671875	0.00833333333333333	0	-30	-3.75833333333333	1	1.5361328125
2263.974609375	0.00833333333333333	0	30	3.30208333333333	2	0.650390625
2267.125	0.00833333333333333	0	-30	-3.75833333333333	2	1.4365234375
2270.67578125	0.00833333333333333	0	30	3.30208333333333	2	0.837890625
2273.5341796875	0.00833333333333333	0	30	3.17708333333333	2	0.8193359375
2276.6669921875	0.00833333333333333	0	-30	-3.75833333333333	1	0.791015625
2279.591796875	0.00833333333333333	0	-30	-3.75833333333333	2	0.6259765625
2384.9150390625	0.00833333333333333	0	-30	-3.75833333333333	2	1.0361328125
2388.1650390625	0.00833333333333333	0	30	3.17708333333333	1	0.666015625
2390.9404296875	0.00833333333333333	0	30	3.17708333333333	1	0.634765625
2394.064453125	0.00833333333333333	0	30	3.17708333333333	2	1.3271484375
2397.7978515625	0.00833333333333333	0	30	3.17708333333333	1	0.666015625
2400.9140625	0.00833333333333333	0	30	3.17708333333333	1	0.60546875
2403.9228515625	0.00833333333333333	0	30	3.17708333333333	1	0.869140625
2407.0146484375	0.00833333333333333	0	-30	-3.75833333333333	2	0.705078125
2410.0888671875	0.00833333333333333	0	30	3.17708333333333	1	1.0546875
2413.572265625	0.00833333333333333	0	-30	-3.75833333333333	2	0.69921875
2416.2900390625	0.00833333333333333	0	30	3.17708333333333	1	0.6142578125
2419.2802734375	0.00833333333333333	0	30	3.30208333333333	1	0.6240234375
2421.96484375	0.00833333333333333	0	30	3.30208333333333	1	0.603515625
2424.9814453125	0.00833333333333333	0	30	3.30208333333333	1	0.6669921875
2427.931640625	0.00833333333333333	0	30	3.30208333333333	1	0.732421875
2430.8046875	0.00833333333333333	0	-30	-3.75833333333333	2	1.01171875
2434.0478515625	0.00833333333333333	0	-30	-3.88333333333333	2	0.81640625
2437.0810546875	0.00833333333333333	0	-30	-3.88333333333333	2	0.615234375
2439.9052734375	0.00833333333333333	0	30	3.30208333333333	1	0.6796875
2442.8310546875	0.00833333333333333	0	30	3.42708333333333	2	0.673828125
2445.6884765625	0.00833333333333333	0	-30	-3.88333333333333	2	0.7685546875
2448.7890625	0.00833333333333333	0	30	3.42708333333333	1	0.6923828125
2451.6220703125	0.00833333333333333	0	-30	-3.88333333333333	2	0.69140625
2454.689453125	0.00833333333333333	0	-30	-3.88333333333333	1	1.1435546875
2457.9052734375	0.00833333333333333	0	30	3.42708333333333	1	0.7919921875
2461.1552734375	0.00833333333333333	0	30	3.42708333333333	2	0.9580078125
2464.388671875	0.00833333333333333	0	30	3.42708333333333	1	0.716796875
2467.505859375	0.00833333333333333	0	30	3.42708333333333	2	0.9599609375
2470.771484375	0.00833333333333333	0	30	3.42708333333333	1	1.1982421875
2474.0224609375	0.00833333333333333	0	-30	-3.88333333333333	2	0.69140625
2476.86328125	0.00833333333333333	0	30	3.42708333333333	2	0.794921875
2479.9970703125	0.00833333333333333	0	30	3.42708333333333	1	1.0048828125
2483.212890625	0.00833333333333333	0	30	3.42708333333333	1	0.59765625
2486.0380859375	0.00833333333333333	0	-30	-3.88333333333333	1	0.9326171875
2489.1376953125	0.00833333333333333	0	-30	-3.88333333333333	2	0.6328125
2492.23046875	0.00833333333333333	0	-30	-3.88333333333333	2	0.6123046875
2495.0625	0.00833333333333333	0	30	3.42708333333333	2	1.01171875
2498.146484375	0.00833333333333333	0	-30	-3.88333333333333	2	0.751953125
2501.212890625	0.00833333333333333	0	-30	-3.88333333333333	2	0.6142578125
2504.2294921875	0.00833333333333333	0	30	3.42708333333333	1	0.7255859375
2507.3291015625	0.00833333333333333	0	30	3.42708333333333	2	1.3857421875
2510.87109375	0.00833333333333333	0	30	3.42708333333333	2	0.66015625
2513.8876953125	0.00833333333333333	0	30	3.42708333333333	2	0.8271484375
2517.169921875	0.00833333333333333	0	30	3.42708333333333	2	0.7451171875
2520.0048828125	0.00833333333333333	0	30	3.42708333333333	1	0.6865234375
2522.8125	0.00833333333333333	0	30	3.42708333333333	2	1.3427734375
2526.2626953125	0.00833333333333333	0	30	3.42708333333333	2	0.701171875
2529.12890625	0.00833333333333333	0	-30	-3.88333333333333	2	0.634765625
2531.8798828125	0.00833333333333333	0	30	3.42708333333333	2	0.6435546875
2534.654296875	0.00833333333333333	0	30	3.42708333333333	2	0.8935546875
2537.7294921875	0.00833333333333333	0	30	3.42708333333333	1	0.6982421875
2540.6708984375	0.00833333333333333	0	30	3.42708333333333	2	0.876953125
2543.896484375	0.00833333333333333	0	30	3.42708333333333	1	0.69921875
2546.720703125	0.00833333333333333	0	-30	-4.00833333333333	2	0.69921875
2549.904296875	0.00833333333333333	0	-30	-4.00833333333333	1	0.98046875
2553.2783203125	0.00833333333333333	0	-30	-4.00833333333333	2	0.9580078125
2556.4375	0.00833333333333333	0	30	3.42708333333333	2	0.7109375
2559.529296875	0.00833333333333333	0	30	3.42708333333333	2	0.8916015625
2562.5205078125	0.00833333333333333	0	-30	-4.00833333333333	2	0.755859375
2565.654296875	0.00833333333333333	0	-30	-4.00833333333333	1	0.9345703125
2568.7041015625	0.00833333333333333	0	-30	-4.00833333333333	2	0.62890625
2571.3623046875	0.00833333333333333	0	-30	-4.00833333333333	1	0.955078125
2574.37890625	0.00833333333333333	0	-30	-4.00833333333333	2	0.5859375
2577.361328125	0.00833333333333333	0	-30	-4.00833333333333	2	0.67578125
2580.5283203125	0.00833333333333333	0	-30	-4.00833333333333	1	0.8447265625
2583.603515625	0.00833333333333333	0	-30	-4.00833333333333	2	0.6181640625
2586.4873046875	0.00833333333333333	0	30	3.42708333333333	2	0.8701171875
2589.419921875	0.00833333333333333	0	30	3.42708333333333	1	1.2255859375
2593.0947265625	0.00833333333333333	0	-30	-4.00833333333333	1	0.8154296875
2596.328125	0.00833333333333333	0	-30	-4.00833333333333	2	0.677734375
2599.294921875	0.00833333333333333	0	-30	-4.00833333333333	1	0.6787109375
2601.9697265625	0.00833333333333333	0	-30	-4.00833333333333	1	0.6923828125
2605.037109375	0.00833333333333333	0	-30	-4.00833333333333	1	0.7607421875
2607.9365234375	0.00833333333333333	0	-30	-4.00833333333333	1	0.8212890625
2611.052734375	0.00833333333333333	0	30	3.42708333333333	1	0.673828125
2613.978515625	0.00833333333333333	0	30	3.42708333333333	2	0.67578125
2616.8701171875	0.00833333333333333	0	-30	-4.00833333333333	1	0.9599609375
2620.2529296875	0.00833333333333333	0	-30	-3.88333333333333	2	0.59375
2623.310546875	0.00833333333333333	0	30	3.42708333333333	2	0.736328125
2626.1279296875	0.00833333333333333	0	-30	-3.88333333333333	1	0.7109375
2937.1484375	0.00833333333333333	0	-30	-3.88333333333333	1	0.8203125
2940.181640625	0.00833333333333333	0	30	3.42708333333333	1	0.72265625
2943.189453125	0.00833333333333333	0	-30	-3.88333333333333	2	0.66796875
2945.90625	0.00833333333333333	0	30	3.42708333333333	1	0.623046875
2948.888671875	0.00833333333333333	0	30	3.42708333333333	1	0.5927734375
2951.9306640625	0.00833333333333333	0	-30	-3.88333333333333	2	0.646484375
2954.814453125	0.00833333333333333	0	-30	-3.88333333333333	2	0.9150390625
2958.22265625	0.00833333333333333	0	30	3.42708333333333	1	0.6748046875
2961.0390625	0.00833333333333333	0	-30	-3.88333333333333	2	0.5703125
2964.072265625	0.00833333333333333	0	30	3.42708333333333	1	0.45703125
2966.5810546875	0.00833333333333333	0	-30	-3.88333333333333	2	0.5
2969.10546875	0.00833333333333333	0	-30	-4.00833333333333	1	0.48828125
2971.8544921875	0.00833333333333333	0	30	3.55208333333333	1	0.595703125
2974.60546875	0.00833333333333333	0	-30	-4.00833333333333	2	0.556640625
2977.2392578125	0.00833333333333333	0	-30	-4.00833333333333	1	0.7705078125
2980.1640625	0.00833333333333333	0	-30	-4.00833333333333	2	1.3017578125
2983.7392578125	0.00833333333333333	0	30	3.55208333333333	2	0.6865234375
2986.6474609375	0.00833333333333333	0	30	3.55208333333333	1	0.7783203125
2989.755859375	0.00833333333333333	0	30	3.55208333333333	2	0.8544921875
2992.947265625	0.00833333333333333	0	-30	-4.00833333333333	2	1.2626953125
2996.4638671875	0.00833333333333333	0	30	3.55208333333333	1	0.642578125
2999.5224609375	0.00833333333333333	0	30	3.55208333333333	1	0.6240234375
3002.37109375	0.00833333333333333	0	-30	-4.00833333333333	2	0.591796875
3005.013671875	0.00833333333333333	0	-30	-4.00833333333333	2	0.62109375
3008.1376953125	0.00833333333333333	0	30	3.55208333333333	2	1.025390625
3011.6376953125	0.00833333333333333	0	30	3.55208333333333	1	0.677734375
3014.2880859375	0.00833333333333333	0	-30	-4.00833333333333	2	0.947265625
3017.7138671875	0.00833333333333333	0	-30	-4.13333333333333	2	0.6416015625
3020.7626953125	0.00833333333333333	0	-30	-4.13333333333333	1	0.80078125
3023.587890625	0.00833333333333333	0	30	3.55208333333333	2	0.6953125
3026.7880859375	0.00833333333333333	0	30	3.55208333333333	2	0.6552734375
3029.5634765625	0.00833333333333333	0	30	3.55208333333333	1	0.6162109375
3032.3798828125	0.00833333333333333	0	-30	-4.13333333333333	2	0.5361328125
3035.0712890625	0.00833333333333333	0	-30	-4.13333333333333	2	0.64453125
3038.0966796875	0.00833333333333333	0	-30	-4.13333333333333	2	0.5546875
3041.11328125	0.00833333333333333	0	-30	-4.13333333333333	2	0.6025390625
3043.9794921875	0.00833333333333333	0	30	3.55208333333333	1	1.033203125
3047.2880859375	0.00833333333333333	0	-30	-4.13333333333333	2	0.7158203125
3050.1708984375	0.00833333333333333	0	-30	-4.25833333333333	2	0.6337890625
3052.8798828125	0.00833333333333333	0	30	3.55208333333333	2	0.724609375
3055.9130859375	0.00833333333333333	0	30	3.55208333333333	2	0.7158203125
3058.720703125	0.00833333333333333	0	30	3.55208333333333	1	0.7001953125
3061.4130859375	0.00833333333333333	0	30	3.55208333333333	1	0.9033203125
3064.7626953125	0.00833333333333333	0	-30	-4.25833333333333	2	0.658203125
3067.6455078125	0.00833333333333333	0	30	3.55208333333333	1	0.607421875
3070.6123046875	0.00833333333333333	0	-30	-4.25833333333333	2	0.7041015625
3073.62109375	0.00833333333333333	0	-30	-4.25833333333333	2	0.6474609375
3076.287109375	0.00833333333333333	0	-30	-4.25833333333333	2	0.7255859375
3079.470703125	0.00833333333333333	0	30	3.55208333333333	1	0.6865234375
3082.4287109375	0.00833333333333333	0	30	3.55208333333333	1	0.9765625
3085.7119140625	0.00833333333333333	0	-30	-4.38333333333333	2	0.7734375
3088.779296875	0.00833333333333333	0	30	3.67708333333333	1	0.658203125
3091.662109375	0.00833333333333333	0	30	3.67708333333333	1	1.431640625
3095.3037109375	0.00833333333333333	0	30	3.67708333333333	1	0.8623046875
3098.64453125	0.00833333333333333	0	30	3.67708333333333	1	0.9775390625
3101.6455078125	0.00833333333333333	0	30	3.67708333333333	1	0.6162109375
3104.51171875	0.00833333333333333	0	-30	-4.38333333333333	2	0.6787109375
3107.3701171875	0.00833333333333333	0	30	3.80208333333333	2	0.7158203125
3110.544921875	0.00833333333333333	0	30	3.80208333333333	1	0.9013671875
3113.4697265625	0.00833333333333333	0	-30	-4.38333333333333	2	0.6484375
3116.4951171875	0.00833333333333333	0	-30	-4.38333333333333	1	0.88671875
3119.6201171875	0.00833333333333333	0	-30	-4.38333333333333	1	0.73046875
3122.5703125	0.00833333333333333	0	30	3.80208333333333	2	0.8203125
3125.8359375	0.00833333333333333	0	30	3.80208333333333	2	0.970703125
3128.935546875	0.00833333333333333	0	30	3.80208333333333	1	0.9033203125
3131.8447265625	0.00833333333333333	0	30	3.80208333333333	2	0.7060546875
3134.677734375	0.00833333333333333	0	30	3.80208333333333	2	0.689453125
3137.603515625	0.00833333333333333	0	30	3.80208333333333	2	0.66796875
3140.5517578125	0.00833333333333333	0	-30	-4.38333333333333	1	0.6640625
3143.26953125	0.00833333333333333	0	30	3.80208333333333	2	0.74609375
3146.2607421875	0.00833333333333333	0	30	3.80208333333333	1	0.658203125
3149.435546875	0.00833333333333333	0	-30	-4.38333333333333	1	0.6923828125
3152.3193359375	0.00833333333333333	0	-30	-4.38333333333333	1	0.759765625
3155.46875	0.00833333333333333	0	-30	-4.25833333333333	1	0.69921875
3158.2197265625	0.00833333333333333	0	30	3.80208333333333	1	0.7001953125
3161.4111328125	0.00833333333333333	0	30	3.80208333333333	2	0.892578125
3164.6689453125	0.00833333333333333	0	-30	-4.25833333333333	1	0.8505859375
3167.810546875	0.00833333333333333	0	30	3.80208333333333	1	0.669921875
3170.96875	0.00833333333333333	0	-30	-4.25833333333333	1	0.623046875
3173.71875	0.00833333333333333	0	30	3.80208333333333	2	1.0732421875
3589.5947265625	0.00833333333333333	0	30	3.80208333333333	2	1.123046875
3593.078125	0.00833333333333333	0	30	3.80208333333333	1	0.6552734375
3596.1875	0.00833333333333333	0	-30	-4.25833333333333	2	0.75390625
3599.2294921875	0.00833333333333333	0	-30	-4.25833333333333	2	0.6318359375
3602.2041015625	0.00833333333333333	0	-30	-4.25833333333333	2	0.59375
3605.0625	0.00833333333333333	0	30	3.80208333333333	1	0.703125
3608.1533203125	0.00833333333333333	0	30	3.80208333333333	1	1.1162109375
3611.7041015625	0.00833333333333333	0	30	3.80208333333333	1	0.5498046875
3614.7119140625	0.00833333333333333	0	30	3.80208333333333	1	0.7421875
3617.8369140625	0.00833333333333333	0	-30	-4.25833333333333	2	0.873046875
3621.162109375	0.00833333333333333	0	-30	-4.25833333333333	2	1.01171875
3624.3037109375	0.00833333333333333	0	30	3.92708333333333	1	0.814453125
3627.4697265625	0.00833333333333333	0	30	3.92708333333333	1	0.640625
3630.4033203125	0.00833333333333333	0	30	3.92708333333333	1	0.931640625
3633.486328125	0.00833333333333333	0	-30	-4.38333333333333	2	1.1044921875
3636.8779296875	0.00833333333333333	0	30	3.92708333333333	2	0.9208984375
3639.88671875	0.00833333333333333	0	-30	-4.38333333333333	2	0.751953125
3642.662109375	0.00833333333333333	0	-30	-4.38333333333333	2	0.80859375
3645.8779296875	0.00833333333333333	0	-30	-4.38333333333333	1	0.9287109375
3649.0947265625	0.00833333333333333	0	-30	-4.38333333333333	2	0.96875
3652.38671875	0.00833333333333333	0	-30	-4.38333333333333	2	1.1083984375
3655.9443359375	0.00833333333333333	0	-30	-4.38333333333333	2	1.0712890625
3659.2783203125	0.00833333333333333	0	30	3.92708333333333	2	0.857421875
3662.3525390625	0.00833333333333333	0	30	3.92708333333333	1	0.9189453125
3665.5361328125	0.00833333333333333	0	-30	-4.38333333333333	2	0.943359375
3668.552734375	0.00833333333333333	0	-30	-4.38333333333333	1	1.783203125
3672.3857421875	0.00833333333333333	0	30	3.92708333333333	1	0.662109375
3675.302734375	0.00833333333333333	0	-30	-4.38333333333333	1	0.9609375
3678.6689453125	0.00833333333333333	0	30	3.92708333333333	1	0.8828125
3681.65234375	0.00833333333333333	0	-30	-4.38333333333333	1	0.68359375
3684.560546875	0.00833333333333333	0	30	3.92708333333333	1	0.6640625
3687.611328125	0.00833333333333333	0	-30	-4.38333333333333	2	0.716796875
3690.4599609375	0.00833333333333333	0	-30	-4.38333333333333	1	1.0771484375
3693.8427734375	0.00833333333333333	0	30	3.92708333333333	1	0.662109375
3696.9443359375	0.00833333333333333	0	-30	-4.38333333333333	1	1.0478515625
3700.1611328125	0.00833333333333333	0	30	4.05208333333333	1	1.328125
3703.501953125	0.00833333333333333	0	-30	-4.38333333333333	1	1.1552734375
3707.0185546875	0.00833333333333333	0	-30	-4.38333333333333	2	0.654296875
3709.951171875	0.00833333333333333	0	-30	-4.38333333333333	2	0.8896484375
3712.9599609375	0.00833333333333333	0	-30	-4.38333333333333	1	0.888671875
3716.1767578125	0.00833333333333333	0	-30	-4.38333333333333	2	1.1123046875
3719.8525390625	0.00833333333333333	0	30	4.05208333333333	2	0.9169921875
3723.16015625	0.00833333333333333	0	-30	-4.38333333333333	1	1.2099609375
3726.818359375	0.00833333333333333	0	30	4.05208333333333	2	0.7275390625
3729.6181640625	0.00833333333333333	0	30	4.05208333333333	2	0.783203125
3732.4853515625	0.00833333333333333	0	-30	-4.38333333333333	2	0.748046875
3735.751953125	0.00833333333333333	0	-30	-4.38333333333333	1	0.74609375
3738.9267578125	0.00833333333333333	0	-30	-4.38333333333333	2	0.6435546875
3741.9765625	0.00833333333333333	0	30	4.05208333333333	2	1.265625
3745.34375	0.00833333333333333	0	-30	-4.38333333333333	2	0.9228515625
3748.384765625	0.00833333333333333	0	-30	-4.38333333333333	1	1.1455078125
3751.5849609375	0.00833333333333333	0	30	4.05208333333333	2	0.79296875
3754.5849609375	0.00833333333333333	0	-30	-4.38333333333333	2	0.76953125
3757.8095703125	0.00833333333333333	0	-30	-4.38333333333333	2	0.7294921875
3760.5341796875	0.00833333333333333	0	-30	-4.38333333333333	2	0.8125
3763.6181640625	0.00833333333333333	0	30	3.92708333333333	2	0.8642578125
3766.5341796875	0.00833333333333333	0	-30	-4.38333333333333	2	0.8447265625
3769.5263671875	0.00833333333333333	0	30	3.92708333333333	2	1.1162109375
3772.7587890625	0.00833333333333333	0	-30	-4.38333333333333	1	0.7880859375
3775.9013671875	0.00833333333333333	0	-30	-4.38333333333333	2	0.853515625
3779.05078125	0.00833333333333333	0	30	3.92708333333333	1	0.8974609375
3782.033203125	0.00833333333333333	0	-30	-4.38333333333333	1	0.8984375
3785.2509765625	0.00833333333333333	0	-30	-4.38333333333333	2	1.2646484375
3788.775390625	0.00833333333333333	0	-30	-4.38333333333333	1	0.66796875
3791.8173828125	0.00833333333333333	0	30	3.92708333333333	2	0.7861328125
3794.8095703125	0.00833333333333333	0	-30	-4.38333333333333	1	0.8828125
3798.1162109375	0.00833333333333333	0	-30	-4.38333333333333	2	0.912109375
3801.05078125	0.00833333333333333	0	-30	-4.38333333333333	1	0.76171875
3804.166015625	0.00833333333333333	0	-30	-4.38333333333333	1	0.6298828125
3806.9921875	0.00833333333333333	0	30	3.92708333333333	1	1.01171875
3810.1591796875	0.00833333333333333	0	30	3.92708333333333	2	1.1328125
3813.349609375	0.00833333333333333	0	-30	-4.38333333333333	1	0.982421875
3816.67578125	0.00833333333333333	0	-30	-4.38333333333333	1	0.8818359375
3819.81640625	0.00833333333333333	0	-30	-4.38333333333333	1	0.828125
3822.8837890625	0.00833333333333333	0	-30	-4.25833333333333	1	0.8408203125
3825.9423828125	0.00833333333333333	0	-30	-4.25833333333333	1	0.91015625
3829.0078125	0.00833333333333333	0	-30	-4.25833333333333	1	0.9169921875
3832.19140625	0.00833333333333333	0	30	3.92708333333333	2	0.677734375
3835.3330078125	0.00833333333333333	0	30	3.92708333333333	2	0.6318359375
3838.0419921875	0.00833333333333333	0	-30	-4.25833333333333	2	0.787109375
4183.6025390625	0.00833333333333333	0	-30	-4.25833333333333	1	0.7978515625
4186.8115234375	0.00833333333333333	0	-30	-4.25833333333333	2	0.9560546875
4190.01953125	0.00833333333333333	0	30	3.92708333333333	1	0.62109375
4193.0859375	0.00833333333333333	0	30	3.92708333333333	1	0.5546875
4195.78515625	0.00833333333333333	0	30	3.92708333333333	2	0.7109375
4198.736328125	0.00833333333333333	0	30	3.92708333333333	1	0.568359375
4201.4931640625	0.00833333333333333	0	-30	-4.25833333333333	2	1.115234375
4204.8935546875	0.00833333333333333	0	30	3.92708333333333	1	0.6669921875
4207.76953125	0.00833333333333333	0	-30	-4.25833333333333	2	0.7275390625
4210.701171875	0.00833333333333333	0	30	3.92708333333333	2	1.01953125
4214.142578125	0.00833333333333333	0	-30	-4.25833333333333	2	0.7783203125
4217.03515625	0.00833333333333333	0	30	3.92708333333333	2	0.8857421875
4220.34375	0.00833333333333333	0	-30	-4.25833333333333	2	0.6337890625
4223.126953125	0.00833333333333333	0	30	3.92708333333333	2	0.658203125
4226.27734375	0.00833333333333333	0	30	3.92708333333333	1	0.9716796875
4229.5439453125	0.00833333333333333	0	30	3.92708333333333	1	0.8095703125
4232.626953125	0.00833333333333333	0	30	3.92708333333333	2	1.134765625
4235.8017578125	0.00833333333333333	0	30	3.92708333333333	2	0.83203125
4238.759765625	0.00833333333333333	0	-30	-4.38333333333333	2	0.6904296875
4241.5849609375	0.00833333333333333	0	-30	-4.38333333333333	2	0.7607421875
4244.775390625	0.00833333333333333	0	30	3.92708333333333	1	0.6669921875
4247.884765625	0.00833333333333333	0	-30	-4.38333333333333	2	0.693359375
4250.626953125	0.00833333333333333	0	30	3.92708333333333	1	0.6552734375
4253.41015625	0.00833333333333333	0	-30	-4.38333333333333	2	1.0078125
4256.7265625	0.00833333333333333	0	-30	-4.38333333333333	1	1.1396484375
4260.16796875	0.00833333333333333	0	30	3.92708333333333	1	0.74609375
4263.109375	0.00833333333333333	0	-30	-4.38333333333333	1	0.845703125
4266.0595703125	0.00833333333333333	0	30	3.92708333333333	1	1.134765625
4269.326171875	0.00833333333333333	0	30	3.92708333333333	1	0.8046875
4272.642578125	0.00833333333333333	0	-30	-4.38333333333333	2	0.96875
4276.1259765625	0.00833333333333333	0	30	4.05208333333333	2	1.28515625
4279.759765625	0.00833333333333333	0	-30	-4.38333333333333	2	0.626953125
4282.509765625	0.00833333333333333	0	30	4.05208333333333	1	0.78125
4285.6845703125	0.00833333333333333	0	30	4.05208333333333	2	1.0947265625
4288.9765625	0.00833333333333333	0	-30	-4.38333333333333	1	0.9072265625
4292.2763671875	0.00833333333333333	0	-30	-4.38333333333333	1	0.783203125
4295.4755859375	0.00833333333333333	0	30	4.05208333333333	2	1.1123046875
4298.701171875	0.00833333333333333	0	-30	-4.38333333333333	2	0.638671875
4301.7763671875	0.00833333333333333	0	30	4.05208333333333	2	1.04296875
4305.0673828125	0.00833333333333333	0	30	4.05208333333333	2	1.12890625
4308.30078125	0.00833333333333333	0	30	4.05208333333333	2	1.0390625
4311.4169921875	0.00833333333333333	0	-30	-4.38333333333333	2	0.71484375
4314.6494140625	0.00833333333333333	0	-30	-4.38333333333333	2	0.9951171875
4317.775390625	0.00833333333333333	0	-30	-4.38333333333333	2	0.7490234375
4320.5751953125	0.00833333333333333	0	30	3.92708333333333	2	0.9013671875
4323.609375	0.00833333333333333	0	30	3.92708333333333	2	0.8427734375
4326.517578125	0.00833333333333333	0	-30	-4.38333333333333	1	0.767578125
4329.5498046875	0.00833333333333333	0	30	3.92708333333333	2	1.0068359375
4332.650390625	0.00833333333333333	0	-30	-4.38333333333333	2	0.7626953125
4335.6162109375	0.00833333333333333	0	-30	-4.38333333333333	2	0.6923828125
4338.333984375	0.00833333333333333	0	-30	-4.38333333333333	2	0.806640625
4341.2001953125	0.00833333333333333	0	-30	-4.38333333333333	1	1.1171875
4344.32421875	0.00833333333333333	0	30	3.92708333333333	2	0.8486328125
4347.3671875	0.00833333333333333	0	-30	-4.38333333333333	1	0.7099609375
4350.0830078125	0.00833333333333333	0	-30	-4.38333333333333	1	0.8017578125
4353.150390625	0.00833333333333333	0	-30	-4.38333333333333	1	0.798828125
4356.06640625	0.00833333333333333	0	30	3.92708333333333	1	0.8271484375
4358.9501953125	0.00833333333333333	0	-30	-4.38333333333333	2	0.6875
4361.7587890625	0.00833333333333333	0	-30	-4.38333333333333	2	0.646484375
4364.5078125	0.00833333333333333	0	-30	-4.38333333333333	1	0.8896484375
4367.6494140625	0.00833333333333333	0	-30	-4.38333333333333	1	0.9248046875
4370.9501953125	0.00833333333333333	0	30	3.92708333333333	2	0.775390625
4373.94140625	0.00833333333333333	0	-30	-4.38333333333333	1	0.8486328125
4377.1328125	0.00833333333333333	0	30	3.92708333333333	2	0.78515625
4380.2333984375	0.00833333333333333	0	30	3.92708333333333	2	0.7412109375
4383.0322265625	0.00833333333333333	0	30	3.92708333333333	2	0.8857421875
4386.0322265625	0.00833333333333333	0	-30	-4.38333333333333	2	0.7978515625
4389.2158203125	0.00833333333333333	0	30	3.92708333333333	2	0.703125
4391.982421875	0.00833333333333333	0	-30	-4.38333333333333	2	0.888671875
4395.2236328125	0.00833333333333333	0	-30	-4.38333333333333	2	0.767578125
4398.21484375	0.00833333333333333	0	30	3.80208333333333	1	1
4401.365234375	0.00833333333333333	0	-30	-4.38333333333333	1	0.857421875
4404.607421875	0.00833333333333333	0	-30	-4.38333333333333	1	0.9677734375
4407.6484375	0.00833333333333333	0	30	3.80208333333333	2	1.0625
4410.8232421875	0.00833333333333333	0	30	3.80208333333333	2	0.6884765625
4413.873046875	0.00833333333333333	0	30	3.80208333333333	2	0.7021484375
4416.806640625	0.00833333333333333	0	30	3.80208333333333	2	1.0732421875
4420.3896484375	0.00833333333333333	0	30	3.80208333333333	2	0.7060546875
4423.4404296875	0.00833333333333333	0	-30	-4.38333333333333	1	0.6787109375
4426.4736328125	0.00833333333333333	0	30	3.67708333333333	2	0.662109375
4498.0556640625	0.00833333333333333	0	-30	-4.38333333333333	1	0.90625
4501.189453125	0.00833333333333333	0	30	3.67708333333333	1	0.8125
4504.197265625	0.00833333333333333	0	-30	-4.38333333333333	1	1.2685546875
4507.623046875	0.00833333333333333	0	-30	-4.25833333333333	1	1.2109375
4511.2890625	0.00833333333333333	0	-30	-4.25833333333333	1	0.75390625
4514.3310546875	0.00833333333333333	0	30	3.67708333333333	1	0.8154296875
4517.23828125	0.00833333333333333	0	30	3.67708333333333	1	0.7080078125
4520.0478515625	0.00833333333333333	0	30	3.67708333333333	1	1.37109375
4523.73046875	0.00833333333333333	0	30	3.67708333333333	2	0.9365234375
4526.9228515625	0.00833333333333333	0	30	3.67708333333333	1	1.3359375
4530.5390625	0.00833333333333333	0	-30	-4.25833333333333	2	0.712890625
4533.263671875	0.00833333333333333	0	-30	-4.25833333333333	2	1.2353515625
4536.921875	0.00833333333333333	0	30	3.67708333333333	1	1.6337890625
4540.9970703125	0.00833333333333333	0	-30	-4.25833333333333	2	0.75
4543.962890625	0.00833333333333333	0	-30	-4.25833333333333	1	0.8564453125
4546.8974609375	0.00833333333333333	0	-30	-4.25833333333333	2	0.8818359375
4549.8720703125	0.00833333333333333	0	30	3.67708333333333	1	0.68359375
4552.8720703125	0.00833333333333333	0	-30	-4.25833333333333	2	0.6357421875
4555.646484375	0.00833333333333333	0	-30	-4.25833333333333	2	0.7578125
4558.421875	0.00833333333333333	0	30	3.67708333333333	1	0.7255859375
4561.60546875	0.00833333333333333	0	30	3.67708333333333	2	0.806640625
4564.73828125	0.00833333333333333	0	-30	-4.25833333333333	1	0.9619140625
4568.2041015625	0.00833333333333333	0	-30	-4.25833333333333	2	0.65625
4571.1552734375	0.00833333333333333	0	-30	-4.25833333333333	1	0.6572265625
4574.2294921875	0.00833333333333333	0	30	3.67708333333333	1	1.23046875
4577.888671875	0.00833333333333333	0	30	3.67708333333333	2	0.7802734375
4581.1044921875	0.00833333333333333	0	-30	-4.25833333333333	2	0.64453125
4583.99609375	0.00833333333333333	0	-30	-4.25833333333333	1	0.8408203125
4587.36328125	0.00833333333333333	0	30	3.67708333333333	1	1.0654296875
4590.771484375	0.00833333333333333	0	-30	-4.25833333333333	2	0.681640625
4593.9384765625	0.00833333333333333	0	-30	-4.25833333333333	2	0.7626953125
4597.029296875	0.00833333333333333	0	30	3.67708333333333	1	0.640625
4599.6708984375	0.00833333333333333	0	30	3.67708333333333	2	0.71875
4602.5048828125	0.00833333333333333	0	-30	-4.25833333333333	2	0.7080078125
4605.6630859375	0.00833333333333333	0	30	3.67708333333333	2	0.830078125
4608.9384765625	0.00833333333333333	0	-30	-4.25833333333333	2	0.5947265625
4611.6865234375	0.00833333333333333	0	-30	-4.25833333333333	1	0.7109375
4614.720703125	0.00833333333333333	0	-30	-4.25833333333333	2	0.541015625
4617.4697265625	0.00833333333333333	0	-30	-4.25833333333333	2	0.6484375
4620.537109375	0.00833333333333333	0	-30	-4.25833333333333	2	0.8203125
4623.6875	0.00833333333333333	0	-30	-4.25833333333333	2	0.638671875
4626.544921875	0.00833333333333333	0	-30	-4.25833333333333	1	0.6376953125
4629.470703125	0.00833333333333333	0	30	3.67708333333333	2	0.5830078125
4632.50390625	0.00833333333333333	0	-30	-4.25833333333333	2	0.55859375
4635.37109375	0.00833333333333333	0	30	3.67708333333333	1	0.68359375
4638.287109375	0.00833333333333333	0	-30	-4.25833333333333	2	0.623046875
4641.2119140625	0.00833333333333333	0	-30	-4.25833333333333	2	0.5703125
4643.99609375	0.00833333333333333	0	-30	-4.25833333333333	1	0.6669921875
4647.0859375	0.00833333333333333	0	-30	-4.25833333333333	1	0.865234375
4650.2958984375	0.00833333333333333	0	-30	-4.25833333333333	1	0.6953125
4653.220703125	0.00833333333333333	0	30	3.67708333333333	2	0.5859375
4655.9541015625	0.00833333333333333	0	-30	-4.25833333333333	1	0.5888671875
4658.9287109375	0.00833333333333333	0	30	3.67708333333333	2	0.7099609375
4661.76171875	0.00833333333333333	0	30	3.67708333333333	1	0.59765625
4664.470703125	0.00833333333333333	0	30	3.67708333333333	2	0.640625
4667.169921875	0.00833333333333333	0	30	3.67708333333333	2	0.7578125
4670.2705078125	0.00833333333333333	0	30	3.67708333333333	2	0.609375
4672.8955078125	0.00833333333333333	0	30	3.67708333333333	1	0.7841796875
4675.7705078125	0.00833333333333333	0	-30	-4.25833333333333	1	1.701171875
4679.703125	0.00833333333333333	0	30	3.67708333333333	2	0.720703125
4682.5283203125	0.00833333333333333	0	30	3.67708333333333	2	0.951171875
4685.703125	0.00833333333333333	0	30	3.67708333333333	2	0.6650390625
4688.578125	0.00833333333333333	0	30	3.67708333333333	1	0.7421875
4691.4697265625	0.00833333333333333	0	30	3.67708333333333	1	0.970703125
4694.5615234375	0.00833333333333333	0	-30	-4.13333333333333	1	0.4951171875
4697.39453125	0.00833333333333333	0	-30	-4.13333333333333	1	0.60546875
4700.3017578125	0.00833333333333333	0	30	3.67708333333333	2	0.802734375
4703.51171875	0.00833333333333333	0	-30	-4.13333333333333	1	0.6884765625
4706.494140625	0.00833333333333333	0	30	3.67708333333333	1	0.6982421875
4709.3115234375	0.00833333333333333	0	30	3.67708333333333	1	0.7451171875
4712.552734375	0.00833333333333333	0	30	3.67708333333333	1	0.6484375
4715.5361328125	0.00833333333333333	0	30	3.67708333333333	1	0.625
4718.6279296875	0.00833333333333333	0	-30	-4.13333333333333	2	0.7255859375
4721.7861328125	0.00833333333333333	0	30	3.67708333333333	1	0.7431640625
4724.52734375	0.00833333333333333	0	30	3.80208333333333	1	1.07421875
4727.8447265625	0.00833333333333333	0	-30	-4.13333333333333	2	1.0283203125
4731.052734375	0.00833333333333333	0	-30	-4.13333333333333	1	1.1884765625
4734.5615234375	0.00833333333333333	0	-30	-4.13333333333333	2	0.84765625
4737.677734375	0.00833333333333333	0	30	3.80208333333333	2	0.755859375
4740.6767578125	0.00833333333333333	0	30	3.80208333333333	1	1.2451171875
5017.53125	0.00833333333333333	0	30	3.80208333333333	1	0.7509765625
5020.45703125	0.00833333333333333	0	30	3.80208333333333	1	0.5771484375
5023.373046875	0.00833333333333333	0	-30	-4.13333333333333	2	0.5732421875
5026.21484375	0.00833333333333333	0	30	3.80208333333333	1	0.5400390625
5028.763671875	0.00833333333333333	0	30	3.80208333333333	1	0.5517578125
5031.5400390625	0.00833333333333333	0	-30	-4.13333333333333	2	0.5908203125
5034.4716796875	0.00833333333333333	0	30	3.92708333333333	1	0.5712890625
5037.439453125	0.00833333333333333	0	-30	-4.13333333333333	2	0.53125
5040.1962890625	0.00833333333333333	0	30	3.92708333333333	1	0.5751953125
5043.0478515625	0.00833333333333333	0	-30	-4.13333333333333	2	0.603515625
5045.72265625	0.00833333333333333	0	30	3.92708333333333	1	0.5849609375
5048.4228515625	0.00833333333333333	0	30	3.92708333333333	1	0.8681640625
5051.3310546875	0.00833333333333333	0	30	3.92708333333333	1	0.6162109375
5053.9716796875	0.00833333333333333	0	30	4.05208333333333	2	0.7919921875
5056.9892578125	0.00833333333333333	0	-30	-4.25833333333333	2	0.55859375
5059.705078125	0.00833333333333333	0	30	4.05208333333333	2	1.634765625
5063.4892578125	0.00833333333333333	0	-30	-4.25833333333333	2	0.5634765625
5066.4306640625	0.00833333333333333	0	30	4.05208333333333	1	0.4853515625
5069.072265625	0.00833333333333333	0	-30	-4.25833333333333	2	0.5556640625
5071.6806640625	0.00833333333333333	0	-30	-4.25833333333333	2	0.5478515625
5074.5390625	0.00833333333333333	0	-30	-4.25833333333333	1	0.7529296875
5077.5390625	0.00833333333333333	0	-30	-4.25833333333333	1	0.9375
5080.580078125	0.00833333333333333	0	30	4.05208333333333	2	0.65625
5083.6298828125	0.00833333333333333	0	-30	-4.25833333333333	2	0.6630859375
5086.7548828125	0.00833333333333333	0	-30	-4.25833333333333	2	0.5859375
5089.3798828125	0.00833333333333333	0	30	4.05208333333333	2	0.6650390625
5092.11328125	0.00833333333333333	0	30	4.05208333333333	1	0.619140625
5095.0634765625	0.00833333333333333	0	30	4.05208333333333	1	0.59765625
5097.8798828125	0.00833333333333333	0	-30	-4.25833333333333	1	0.7490234375
5100.6884765625	0.00833333333333333	0	-30	-4.25833333333333	2	0.7646484375
5103.521484375	0.00833333333333333	0	30	4.05208333333333	1	0.755859375
5106.705078125	0.00833333333333333	0	30	4.05208333333333	1	0.740234375
5109.5634765625	0.00833333333333333	0	30	4.05208333333333	1	0.6337890625
5112.5302734375	0.00833333333333333	0	30	4.17708333333333	2	1.443359375
5116.0048828125	0.00833333333333333	0	-30	-4.25833333333333	2	0.7529296875
5119.171875	0.00833333333333333	0	30	4.17708333333333	2	1.337890625
5122.7373046875	0.00833333333333333	0	30	4.17708333333333	1	0.62109375
5125.6708984375	0.00833333333333333	0	30	4.17708333333333	2	1.0546875
5128.904296875	0.00833333333333333	0	30	4.17708333333333	2	0.6455078125
5132.0615234375	0.00833333333333333	0	30	4.17708333333333	2	0.7685546875
5135.345703125	0.00833333333333333	0	-30	-4.25833333333333	2	1.2763671875
5139.0126953125	0.00833333333333333	0	30	4.17708333333333	1	1.009765625
5142.5126953125	0.00833333333333333	0	-30	-4.25833333333333	2	0.8857421875
5145.8447265625	0.00833333333333333	0	30	4.17708333333333	2	0.818359375
5148.74609375	0.00833333333333333	0	-30	-4.25833333333333	2	0.8525390625
5151.9296875	0.00833333333333333	0	30	4.17708333333333	2	0.796875
5155.095703125	0.00833333333333333	0	30	4.17708333333333	2	1.046875
5158.654296875	0.00833333333333333	0	-30	-4.38333333333333	1	1.1123046875
5161.9453125	0.00833333333333333	0	-30	-4.38333333333333	2	0.7021484375
5164.978515625	0.00833333333333333	0	-30	-4.38333333333333	2	0.6123046875
5167.7705078125	0.00833333333333333	0	-30	-4.38333333333333	2	0.716796875
5170.7119140625	0.00833333333333333	0	30	4.17708333333333	2	0.7109375
5173.5458984375	0.00833333333333333	0	30	4.17708333333333	2	0.7333984375
5176.5791015625	0.00833333333333333	0	-30	-4.38333333333333	2	0.7080078125
5179.7705078125	0.00833333333333333	0	30	4.05208333333333	2	0.701171875
5182.63671875	0.00833333333333333	0	30	4.05208333333333	2	0.9306640625
5185.853515625	0.00833333333333333	0	30	4.05208333333333	2	0.6826171875
5188.75390625	0.00833333333333333	0	30	4.05208333333333	2	0.58984375
5191.9365234375	0.00833333333333333	0	-30	-4.38333333333333	2	0.703125
5195.078125	0.00833333333333333	0	30	4.05208333333333	2	0.5859375
5197.7373046875	0.00833333333333333	0	-30	-4.50833333333333	1	0.7587890625
5200.8193359375	0.00833333333333333	0	30	3.92708333333333	2	0.64453125
5203.7861328125	0.00833333333333333	0	-30	-4.50833333333333	2	0.822265625
5206.736328125	0.00833333333333333	0	30	3.92708333333333	2	0.640625
5209.419921875	0.00833333333333333	0	30	3.92708333333333	1	0.5810546875
5212.0703125	0.00833333333333333	0	-30	-4.50833333333333	1	0.7861328125
5215.228515625	0.00833333333333333	0	30	3.92708333333333	1	0.8046875
5218.38671875	0.00833333333333333	0	-30	-4.50833333333333	1	0.6455078125
5221.3525390625	0.00833333333333333	0	-30	-4.50833333333333	1	0.6484375
5224.3701171875	0.00833333333333333	0	30	3.92708333333333	2	0.5830078125
5227.0849609375	0.00833333333333333	0	30	3.92708333333333	1	0.595703125
5229.76953125	0.00833333333333333	0	-30	-4.50833333333333	1	0.5673828125
5232.77734375	0.00833333333333333	0	30	3.92708333333333	2	0.5517578125
5235.78515625	0.00833333333333333	0	30	3.92708333333333	1	0.720703125
5238.7529296875	0.00833333333333333	0	30	3.92708333333333	2	0.81640625
5241.736328125	0.00833333333333333	0	30	3.92708333333333	1	0.77734375
5244.9365234375	0.00833333333333333	0	30	3.92708333333333	1	0.6572265625
5248.0439453125	0.00833333333333333	0	-30	-4.50833333333333	1	0.8134765625
5251.0947265625	0.00833333333333333	0	-30	-4.38333333333333	2	0.5869140625
5253.9853515625	0.00833333333333333	0	-30	-4.38333333333333	1	0.49609375
5353.125	0.00833333333333333	0	30	3.92708333333333	1	0.736328125
5356.30078125	0.00833333333333333	0	30	3.92708333333333	1	0.7041015625
5359.400390625	0.00833333333333333	0	30	3.92708333333333	1	0.6044921875
5362.4169921875	0.00833333333333333	0	-30	-4.38333333333333	2	0.6201171875
5365.076171875	0.00833333333333333	0	30	4.05208333333333	1	1.1298828125
5368.4677734375	0.00833333333333333	0	30	4.05208333333333	1	0.6337890625
5371.42578125	0.00833333333333333	0	-30	-4.38333333333333	2	0.66796875
5374.3671875	0.00833333333333333	0	-30	-4.38333333333333	2	1.0625
5377.9423828125	0.00833333333333333	0	-30	-4.38333333333333	2	0.6953125
5380.80078125	0.00833333333333333	0	-30	-4.38333333333333	2	0.5810546875
5383.6005859375	0.00833333333333333	0	-30	-4.50833333333333	2	0.7734375
5386.80078125	0.00833333333333333	0	30	4.05208333333333	1	0.5576171875
5389.44140625	0.00833333333333333	0	-30	-4.50833333333333	1	0.7724609375
5392.43359375	0.00833333333333333	0	-30	-4.50833333333333	2	0.564453125
5395.1923828125	0.00833333333333333	0	-30	-4.50833333333333	2	0.5185546875
5397.783203125	0.00833333333333333	0	30	4.05208333333333	1	0.599609375
5400.525390625	0.00833333333333333	0	30	4.05208333333333	1	0.609375
5403.4921875	0.00833333333333333	0	-30	-4.50833333333333	2	0.578125
5406.158203125	0.00833333333333333	0	-30	-4.50833333333333	2	0.5927734375
5409.025390625	0.00833333333333333	0	30	4.17708333333333	1	0.525390625
5411.8671875	0.00833333333333333	0	-30	-4.50833333333333	2	0.53125
5414.55859375	0.00833333333333333	0	30	4.17708333333333	1	0.552734375
5417.2578125	0.00833333333333333	0	-30	-4.63333333333333	2	0.61328125
5420.2001953125	0.00833333333333333	0	30	4.17708333333333	1	0.5830078125
5423.2001953125	0.00833333333333333	0	30	4.17708333333333	2	0.9267578125
5426.18359375	0.00833333333333333	0	-30	-4.63333333333333	2	0.6318359375
5429.06640625	0.00833333333333333	0	-30	-4.63333333333333	2	0.525390625
5431.5751953125	0.00833333333333333	0	-30	-4.63333333333333	1	0.7763671875
5434.490234375	0.00833333333333333	0	30	4.17708333333333	1	0.94921875
5437.599609375	0.00833333333333333	0	30	4.17708333333333	2	0.7841796875
5440.408203125	0.00833333333333333	0	-30	-4.63333333333333	2	0.8955078125
5443.7158203125	0.00833333333333333	0	30	4.17708333333333	2	0.7724609375
5446.7744140625	0.00833333333333333	0	30	4.17708333333333	1	1.2021484375
5450.0908203125	0.00833333333333333	0	-30	-4.63333333333333	2	0.60546875
5453.0830078125	0.00833333333333333	0	-30	-4.63333333333333	2	0.525390625
5456.06640625	0.00833333333333333	0	30	4.17708333333333	1	0.662109375
5459.099609375	0.00833333333333333	0	-30	-4.63333333333333	1	0.8125
5462.0654296875	0.00833333333333333	0	-30	-4.63333333333333	2	0.470703125
5464.8076171875	0.00833333333333333	0	30	4.17708333333333	1	0.5693359375
5467.4912109375	0.00833333333333333	0	-30	-4.63333333333333	2	0.533203125
5470.3662109375	0.00833333333333333	0	30	4.17708333333333	1	0.650390625
5473.20703125	0.00833333333333333	0	-30	-4.63333333333333	1	0.42578125
5475.6650390625	0.00833333333333333	0	30	4.17708333333333	1	0.51171875
5478.44921875	0.00833333333333333	0	30	4.30208333333333	1	0.6640625
5481.1904296875	0.00833333333333333	0	-30	-4.63333333333333	2	0.53125
5483.765625	0.00833333333333333	0	30	4.30208333333333	1	0.5712890625
5486.423828125	0.00833333333333333	0	-30	-4.63333333333333	1	0.841796875
5489.373046875	0.00833333333333333	0	30	4.30208333333333	1	0.5400390625
5491.9736328125	0.00833333333333333	0	-30	-4.63333333333333	2	0.5556640625
5494.7158203125	0.00833333333333333	0	-30	-4.63333333333333	2	0.60546875
5497.5400390625	0.00833333333333333	0	-30	-4.63333333333333	2	0.58984375
5500.365234375	0.00833333333333333	0	30	4.30208333333333	1	0.64453125
5503.130859375	0.00833333333333333	0	30	4.30208333333333	1	0.6787109375
5505.83203125	0.00833333333333333	0	30	4.42708333333333	1	0.6015625
5508.58984375	0.00833333333333333	0	30	4.42708333333333	1	0.740234375
5511.5732421875	0.00833333333333333	0	-30	-4.63333333333333	2	0.5166015625
5514.5068359375	0.00833333333333333	0	-30	-4.63333333333333	2	0.54296875
5517.115234375	0.00833333333333333	0	30	4.42708333333333	1	0.607421875
5519.7734375	0.00833333333333333	0	-30	-4.75833333333333	2	0.8369140625
5522.6728515625	0.00833333333333333	0	-30	-4.75833333333333	2	0.7216796875
5525.71484375	0.00833333333333333	0	30	4.42708333333333	1	0.599609375
5528.5986328125	0.00833333333333333	0	30	4.42708333333333	2	0.748046875
5531.439453125	0.00833333333333333	0	30	4.42708333333333	1	0.603515625
5534.490234375	0.00833333333333333	0	30	4.42708333333333	1	0.544921875
5537.056640625	0.00833333333333333	0	-30	-4.75833333333333	1	0.9462890625
5540.3232421875	0.00833333333333333	0	30	4.42708333333333	1	0.5595703125
5543.2802734375	0.00833333333333333	0	30	4.42708333333333	2	0.6669921875
5546.373046875	0.00833333333333333	0	30	4.42708333333333	1	1.078125
5549.814453125	0.00833333333333333	0	-30	-4.75833333333333	1	0.876953125
5552.84765625	0.00833333333333333	0	-30	-4.75833333333333	2	0.7080078125
5555.8232421875	0.00833333333333333	0	-30	-4.75833333333333	1	0.7646484375
5559.0146484375	0.00833333333333333	0	30	4.42708333333333	1	0.8935546875
5562.123046875	0.00833333333333333	0	-30	-4.75833333333333	1	0.5283203125
5565.0224609375	0.00833333333333333	0	30	4.42708333333333	1	0.6298828125
5567.8056640625	0.00833333333333333	0	30	4.42708333333333	1	0.669921875
5570.6630859375	0.00833333333333333	0	-30	-4.75833333333333	2	0.9013671875
5573.60546875	0.00833333333333333	0	30	4.42708333333333	1	0.630859375
5576.505859375	0.00833333333333333	0	-30	-4.75833333333333	1	0.578125
5579.4140625	0.00833333333333333	0	-30	-4.75833333333333	1	0.58984375
5582.087890625	0.00833333333333333	0	-30	-4.75833333333333	2	0.6044921875
5687.5205078125	0.00833333333333333	0	30	4.55208333333333	1	0.6953125
5690.6787109375	0.00833333333333333	0	-30	-4.75833333333333	1	0.78515625
5693.462890625	0.00833333333333333	0	-30	-4.75833333333333	2	0.552734375
5696.404296875	0.00833333333333333	0	30	4.55208333333333	1	0.7392578125
5699.662109375	0.00833333333333333	0	30	4.55208333333333	1	0.5537109375
5702.64453125	0.00833333333333333	0	30	4.55208333333333	2	0.7880859375
5705.4287109375	0.00833333333333333	0	30	4.55208333333333	1	0.7314453125
5708.24609375	0.00833333333333333	0	-30	-4.75833333333333	2	0.5625
5711.2041015625	0.00833333333333333	0	-30	-4.75833333333333	2	0.572265625
5714.111328125	0.00833333333333333	0	30	4.55208333333333	2	0.689453125
5716.9619140625	0.00833333333333333	0	30	4.55208333333333	2	0.5830078125
5719.8193359375	0.00833333333333333	0	-30	-4.75833333333333	2	0.5263671875
5722.5869140625	0.00833333333333333	0	30	4.55208333333333	2	0.8935546875
5725.828125	0.00833333333333333	0	30	4.55208333333333	2	0.7724609375
5728.8525390625	0.00833333333333333	0	-30	-4.75833333333333	1	0.8203125
5731.7451171875	0.00833333333333333	0	-30	-4.75833333333333	1	0.8076171875
5735.0703125	0.00833333333333333	0	-30	-4.75833333333333	2	0.6748046875
5737.794921875	0.00833333333333333	0	-30	-4.75833333333333	2	0.7099609375
5740.669921875	0.00833333333333333	0	30	4.55208333333333	2	0.6279296875
5743.76953125	0.00833333333333333	0	30	4.42708333333333	2	0.751953125
5746.89453125	0.00833333333333333	0	-30	-4.75833333333333	2	0.7236328125
5749.935546875	0.00833333333333333	0	-30	-4.75833333333333	2	0.6337890625
5752.7451171875	0.00833333333333333	0	30	4.42708333333333	1	0.705078125
5755.5859375	0.00833333333333333	0	30	4.42708333333333	2	0.7197265625
5758.7939453125	0.00833333333333333	0	30	4.42708333333333	1	0.6484375
5761.6865234375	0.00833333333333333	0	30	4.42708333333333	1	0.6357421875
5764.369140625	0.00833333333333333	0	30	4.42708333333333	1	0.6171875
5767.5029296875	0.00833333333333333	0	30	4.42708333333333	1	0.5634765625
5770.544921875	0.00833333333333333	0	-30	-4.75833333333333	2	0.79296875
5773.494140625	0.00833333333333333	0	-30	-4.88333333333333	2	0.5966796875
5776.40234375	0.00833333333333333	0	-30	-4.88333333333333	2	0.7041015625
5779.185546875	0.00833333333333333	0	30	4.42708333333333	2	2.09765625
5783.435546875	0.00833333333333333	0	-30	-4.88333333333333	2	0.5830078125
5786.2431640625	0.00833333333333333	0	30	4.42708333333333	1	0.6240234375
5789.236328125	0.00833333333333333	0	30	4.42708333333333	2	0.6943359375
5792.0185546875	0.00833333333333333	0	-30	-4.88333333333333	2	0.80078125
5794.8681640625	0.00833333333333333	0	30	4.42708333333333	1	0.6630859375
5797.6279296875	0.00833333333333333	0	-30	-4.88333333333333	2	0.6708984375
5800.46875	0.00833333333333333	0	-30	-5.00833333333333	1	0.55859375
5803.435546875	0.00833333333333333	0	30	4.42708333333333	2	0.6474609375
5806.2607421875	0.00833333333333333	0	30	4.42708333333333	1	0.55859375
5809.201171875	0.00833333333333333	0	30	4.42708333333333	2	0.73046875
5812.185546875	0.00833333333333333	0	-30	-5.00833333333333	1	0.4736328125
5815.1689453125	0.00833333333333333	0	30	4.42708333333333	1	0.5947265625
5818.193359375	0.00833333333333333	0	-30	-5.00833333333333	2	0.8505859375
5821.4189453125	0.00833333333333333	0	-30	-5.00833333333333	1	0.78515625
5824.3935546875	0.00833333333333333	0	30	4.42708333333333	1	0.5703125
5827.0185546875	0.00833333333333333	0	30	4.42708333333333	1	0.681640625
5830.0439453125	0.00833333333333333	0	30	4.42708333333333	1	0.560546875
5832.6357421875	0.00833333333333333	0	-30	-5.00833333333333	2	0.65625
5835.3681640625	0.00833333333333333	0	-30	-5.00833333333333	2	0.7080078125
5838.5517578125	0.00833333333333333	0	-30	-5.00833333333333	1	1.0126953125
5841.693359375	0.00833333333333333	0	-30	-5.00833333333333	2	1.0390625
5844.943359375	0.00833333333333333	0	-30	-5.00833333333333	2	0.685546875
5848.0263671875	0.00833333333333333	0	30	4.42708333333333	1	0.658203125
5850.9765625	0.00833333333333333	0	-30	-5.00833333333333	1	0.7001953125
5853.958984375	0.00833333333333333	0	-30	-5.00833333333333	1	0.9423828125
5857.0263671875	0.00833333333333333	0	30	4.55208333333333	1	0.70703125
5860.1513671875	0.00833333333333333	0	30	4.55208333333333	1	0.5576171875
5863.1005859375	0.00833333333333333	0	30	4.55208333333333	1	0.6005859375
5866.2099609375	0.00833333333333333	0	-30	-5.00833333333333	2	0.7158203125
5869.0341796875	0.00833333333333333	0	-30	-5.00833333333333	2	0.68359375
5872.0927734375	0.00833333333333333	0	-30	-5.00833333333333	1	0.7529296875
5875.142578125	0.00833333333333333	0	30	4.55208333333333	1	0.607421875
5877.91796875	0.00833333333333333	0	-30	-5.00833333333333	1	0.6318359375
5880.7763671875	0.00833333333333333	0	30	4.55208333333333	1	0.861328125
5883.9013671875	0.00833333333333333	0	-30	-5.00833333333333	1	0.640625
5887.0263671875	0.00833333333333333	0	-30	-5.00833333333333	1	0.67578125
5890.234375	0.00833333333333333	0	-30	-5.00833333333333	2	0.69921875
5892.9423828125	0.00833333333333333	0	-30	-5.00833333333333	1	1.423828125
5896.6259765625	0.00833333333333333	0	30	4.67708333333333	2	0.7724609375
5899.55078125	0.00833333333333333	0	-30	-5.00833333333333	1	0.775390625
5902.6259765625	0.00833333333333333	0	-30	-5.00833333333333	1	0.7890625
5905.5673828125	0.00833333333333333	0	30	4.67708333333333	2	0.6875
5908.43359375	0.00833333333333333	0	30	4.67708333333333	2	0.7333984375
5911.44140625	0.00833333333333333	0	-30	-5.00833333333333	1	0.765625
5914.458984375	0.00833333333333333	0	30	4.67708333333333	2	1.171875
5917.7001953125	0.00833333333333333	0	30	4.67708333333333	2	0.794921875
5920.6259765625	0.00833333333333333	0	30	4.55208333333333	2	0.6689453125
5923.650390625	0.00833333333333333	0	30	4.55208333333333	2	0.6767578125
6000.1396484375	0.00833333333333333	0	-30	-5.00833333333333	1	0.765625
6003.291015625	0.00833333333333333	0	-30	-4.88333333333333	1	0.7265625
6006.474609375	0.00833333333333333	0	-30	-4.88333333333333	1	1.1669921875
6009.7822265625	0.00833333333333333	0	30	4.55208333333333	1	0.6357421875
6012.689453125	0.00833333333333333	0	30	4.55208333333333	1	0.560546875
6015.4912109375	0.00833333333333333	0	30	4.55208333333333	1	0.71875
6018.3896484375	0.00833333333333333	0	-30	-4.88333333333333	1	0.7001953125
6021.1494140625	0.00833333333333333	0	-30	-4.88333333333333	2	0.7646484375
6024.2236328125	0.00833333333333333	0	-30	-4.88333333333333	2	0.626953125
6026.9560546875	0.00833333333333333	0	30	4.55208333333333	1	0.734375
6029.873046875	0.00833333333333333	0	30	4.55208333333333	2	1.10546875
6033.3310546875	0.00833333333333333	0	-30	-4.88333333333333	1	1.0078125
6036.4072265625	0.00833333333333333	0	-30	-4.88333333333333	1	1.107421875
6039.9736328125	0.00833333333333333	0	-30	-4.88333333333333	2	1.62109375
6044.0732421875	0.00833333333333333	0	-30	-4.88333333333333	1	0.921875
6047.20703125	0.00833333333333333	0	30	4.55208333333333	2	0.68359375
6050.20703125	0.00833333333333333	0	-30	-4.88333333333333	2	0.64453125
6053.08203125	0.00833333333333333	0	-30	-4.88333333333333	2	0.712890625
6056.03125	0.00833333333333333	0	30	4.55208333333333	2	0.763671875
6059.0146484375	0.00833333333333333	0	-30	-4.88333333333333	1	1.3330078125
6062.40625	0.00833333333333333	0	30	4.55208333333333	2	0.9013671875
6065.58203125	0.00833333333333333	0	30	4.55208333333333	1	0.94140625
6068.95703125	0.00833333333333333	0	30	4.55208333333333	2	0.654296875
6071.748046875	0.00833333333333333	0	-30	-4.88333333333333	1	0.640625
6074.5478515625	0.00833333333333333	0	30	4.55208333333333	2	0.9287109375
6077.5986328125	0.00833333333333333	0	-30	-4.88333333333333	1	0.701171875
6080.6650390625	0.00833333333333333	0	-30	-4.88333333333333	1	0.7392578125
6083.72265625	0.00833333333333333	0	-30	-4.88333333333333	1	0.7294921875
6086.931640625	0.00833333333333333	0	30	4.55208333333333	2	0.720703125
6089.8232421875	0.00833333333333333	0	30	4.55208333333333	2	0.6611328125
6092.71484375	0.00833333333333333	0	30	4.55208333333333	2	0.609375
6095.3564453125	0.00833333333333333	0	30	4.42708333333333	2	0.560546875
6098.1884765625	0.00833333333333333	0	30	4.42708333333333	2	0.6240234375
6101.28125	0.00833333333333333	0	-30	-4.75833333333333	1	0.8271484375
6104.4560546875	0.00833333333333333	0	30	4.42708333333333	2	0.8134765625
6107.2978515625	0.00833333333333333	0	-30	-4.75833333333333	1	0.859375
6110.373046875	0.00833333333333333	0	-30	-4.75833333333333	2	0.671875
6113.3564453125	0.00833333333333333	0	30	4.42708333333333	1	0.8408203125
6116.2138671875	0.00833333333333333	0	30	4.42708333333333	1	0.7275390625
6119.1220703125	0.00833333333333333	0	-30	-4.75833333333333	1	0.875
6122.3896484375	0.00833333333333333	0	-30	-4.75833333333333	2	0.8154296875
6125.697265625	0.00833333333333333	0	30	4.42708333333333	2	0.8125
6128.830078125	0.00833333333333333	0	30	4.42708333333333	2	0.607421875
6131.7470703125	0.00833333333333333	0	30	4.42708333333333	2	0.72265625
6134.9384765625	0.00833333333333333	0	30	4.42708333333333	2	0.6357421875
6137.87109375	0.00833333333333333	0	-30	-4.75833333333333	1	0.7353515625
6140.98046875	0.00833333333333333	0	-30	-4.75833333333333	1	0.5615234375
6143.7470703125	0.00833333333333333	0	-30	-4.75833333333333	1	0.611328125
6146.4892578125	0.00833333333333333	0	-30	-4.75833333333333	1	0.5810546875
6149.4140625	0.00833333333333333	0	-30	-4.75833333333333	1	0.5205078125
6152.3056640625	0.00833333333333333	0	30	4.42708333333333	2	0.556640625
6155.3056640625	0.00833333333333333	0	-30	-4.63333333333333	1	0.541015625
6158.205078125	0.00833333333333333	0	30	4.30208333333333	2	0.6337890625
6161.263671875	0.00833333333333333	0	30	4.30208333333333	1	0.623046875
6164.1220703125	0.00833333333333333	0	-30	-4.63333333333333	1	0.6845703125
6167.3046875	0.00833333333333333	0	-30	-4.63333333333333	1	0.7578125
6170.080078125	0.00833333333333333	0	30	4.30208333333333	2	0.9111328125
6173.138671875	0.00833333333333333	0	-30	-4.63333333333333	1	0.6201171875
6176.046875	0.00833333333333333	0	-30	-4.63333333333333	2	1.064453125
6179.462890625	0.00833333333333333	0	30	4.30208333333333	2	0.751953125
6182.2548828125	0.00833333333333333	0	30	4.30208333333333	2	0.5849609375
6185.396484375	0.00833333333333333	0	-30	-4.63333333333333	1	0.802734375
6188.4794921875	0.00833333333333333	0	-30	-4.63333333333333	1	0.9755859375
6191.5712890625	0.00833333333333333	0	30	4.30208333333333	2	1.1962890625
6195.1044921875	0.00833333333333333	0	-30	-4.63333333333333	2	0.623046875
6198.021484375	0.00833333333333333	0	-30	-4.63333333333333	1	1.0908203125
6201.146484375	0.00833333333333333	0	30	4.30208333333333	1	0.7490234375
6203.98828125	0.00833333333333333	0	-30	-4.63333333333333	2	0.748046875
6206.8046875	0.00833333333333333	0	-30	-4.63333333333333	2	1.4599609375
6210.74609375	0.00833333333333333	0	-30	-4.63333333333333	2	1.0224609375
6214.1787109375	0.00833333333333333	0	30	4.30208333333333	1	0.7333984375
6217.2880859375	0.00833333333333333	0	-30	-4.63333333333333	2	0.640625
6220.3212890625	0.00833333333333333	0	30	4.30208333333333	2	1.046875
6223.4951171875	0.00833333333333333	0	-30	-4.63333333333333	2	0.7294921875
6226.4794921875	0.00833333333333333	0	30	4.30208333333333	2	1.1455078125
6230.0546875	0.00833333333333333	0	30	4.30208333333333	1	0.9619140625
6233.12109375	0.00833333333333333	0	30	4.30208333333333	2	1.17578125
6236.7373046875	0.00833333333333333	0	-30	-4.75833333333333	1	0.6005859375
6239.419921875	0.00833333333333333	0	30	4.30208333333333	1	0.9248046875
6242.62890625	0.00833333333333333	0	30	4.30208333333333	1	0.8603515625
