onset	duration	titr	surround	centre	response	rt
188.8076171875	0.00833333333333333	1	NaN	-15	1	1.03515625
191.9892578125	0.00833333333333333	1	NaN	-14	2	4.1171875
198.517578125	0.00833333333333333	1	30	-15	1	2.2373046875
202.83203125	0.00833333333333333	1	30	-14	1	1.2744140625
206.248046875	0.00833333333333333	1	30	15	2	1.1708984375
209.70703125	0.00833333333333333	1	30	-13	1	0.9755859375
212.8984375	0.00833333333333333	1	-30	-15	1	1.83203125
216.998046875	0.00833333333333333	1	NaN	15	2	0.8046875
219.9736328125	0.00833333333333333	1	30	14	2	0.94140625
223.2978515625	0.00833333333333333	1	NaN	-15	2	5.169921875
230.5478515625	0.00833333333333333	1	-30	15	2	0.919921875
233.689453125	0.00833333333333333	1	NaN	14	1	0.154296875
235.8642578125	0.00833333333333333	1	NaN	-16	1	1.3388671875
239.4970703125	0.00833333333333333	1	-30	-14	2	1.6103515625
243.6396484375	0.00833333333333333	1	NaN	-15	1	1.259765625
247.1806640625	0.00833333333333333	1	NaN	15	2	0.84765625
250.505859375	0.00833333333333333	1	-30	14	2	0.9306640625
253.6630859375	0.00833333333333333	1	30	-12	1	0.701171875
256.7060546875	0.00833333333333333	1	NaN	14	2	0.578125
259.4638671875	0.00833333333333333	1	-30	13	2	0.66015625
262.22265625	0.00833333333333333	1	-30	12	2	0.5654296875
265.255859375	0.00833333333333333	1	-30	11	2	0.5888671875
268.10546875	0.00833333333333333	1	NaN	-14	1	0.7158203125
271.2392578125	0.00833333333333333	1	NaN	13	2	0.9013671875
274.447265625	0.00833333333333333	1	-30	-15	2	2.5576171875
279.2890625	0.00833333333333333	1	30	-11	1	0.66796875
282.263671875	0.00833333333333333	1	30	13	2	0.765625
285.263671875	0.00833333333333333	1	30	12	2	0.7978515625
288.2958984375	0.00833333333333333	1	NaN	-13	1	0.7734375
291.5302734375	0.00833333333333333	1	NaN	12	2	0.69921875
294.5888671875	0.00833333333333333	1	NaN	-12	1	0.65625
297.697265625	0.00833333333333333	1	-30	10	2	0.6923828125
300.8046875	0.00833333333333333	1	-30	9	2	0.7529296875
303.6884765625	0.00833333333333333	1	30	11	2	1.26953125
307.35546875	0.00833333333333333	1	NaN	-11	1	0.7626953125
310.6552734375	0.00833333333333333	1	NaN	11	2	0.6787109375
313.8798828125	0.00833333333333333	1	NaN	10	2	0.8857421875
317.3046875	0.00833333333333333	1	-30	8	2	1.3251953125
320.921875	0.00833333333333333	1	NaN	-10	1	1.31640625
324.404296875	0.00833333333333333	1	NaN	9	2	0.8818359375
327.396484375	0.00833333333333333	1	30	10	2	1.2421875
330.896484375	0.00833333333333333	1	-30	7	2	1.1337890625
334.529296875	0.00833333333333333	1	-30	-16	2	1.525390625
338.5625	0.00833333333333333	1	NaN	8	2	0.748046875
341.712890625	0.00833333333333333	1	-30	-17	1	0.982421875
345.0380859375	0.00833333333333333	1	NaN	-9	1	1.193359375
348.5791015625	0.00833333333333333	1	30	9	1	1.9482421875
352.970703125	0.00833333333333333	1	-30	-16	1	1.1005859375
356.5791015625	0.00833333333333333	1	NaN	-8	1	0.828125
359.5458984375	0.00833333333333333	1	NaN	7	2	0.845703125
362.9375	0.00833333333333333	1	NaN	-7	1	0.5576171875
365.654296875	0.00833333333333333	1	30	-10	1	0.5458984375
368.412109375	0.00833333333333333	1	-30	-15	1	0.740234375
371.6611328125	0.00833333333333333	1	30	-9	1	0.6103515625
374.654296875	0.00833333333333333	1	30	-8	1	0.5380859375
377.4873046875	0.00833333333333333	1	NaN	6	2	0.6572265625
380.412109375	0.00833333333333333	1	NaN	5	2	0.572265625
383.37890625	0.00833333333333333	1	-30	-14	1	0.7177734375
386.6201171875	0.00833333333333333	1	30	-7	1	0.5966796875
389.4873046875	0.00833333333333333	1	-30	-13	1	0.8896484375
392.7041015625	0.00833333333333333	1	30	10	2	0.7041015625
395.75390625	0.00833333333333333	1	-30	-12	2	0.951171875
399.1875	0.00833333333333333	1	NaN	4	2	0.380859375
401.6787109375	0.00833333333333333	1	-30	6	2	0.4580078125
404.287109375	0.00833333333333333	1	-30	-13	1	0.5380859375
407.1201171875	0.00833333333333333	1	-30	-12	2	0.8173828125
410.435546875	0.00833333333333333	1	30	9	2	0.61328125
413.203125	0.00833333333333333	1	30	8	2	0.6064453125
416.3115234375	0.00833333333333333	1	NaN	3	2	0.5693359375
419.0869140625	0.00833333333333333	1	30	-6	1	0.5625
422.078125	0.00833333333333333	1	NaN	-6	1	0.5634765625
424.7119140625	0.00833333333333333	1	-30	5	2	0.4736328125
427.6435546875	0.00833333333333333	1	NaN	-5	1	0.509765625
430.310546875	0.00833333333333333	1	30	-5	1	0.5556640625
433.1533203125	0.00833333333333333	1	-30	-13	2	0.8642578125
436.228515625	0.00833333333333333	1	30	-4	1	0.6689453125
439.3525390625	0.00833333333333333	1	-30	4	2	0.5537109375
442.3779296875	0.00833333333333333	1	NaN	-4	1	0.6318359375
445.1201171875	0.00833333333333333	1	-30	3	2	0.5380859375
447.76171875	0.00833333333333333	1	NaN	-3	2	0.5927734375
450.5859375	0.00833333333333333	1	NaN	-4	2	0.7041015625
453.77734375	0.00833333333333333	1	30	7	2	0.521484375
456.578125	0.00833333333333333	1	NaN	2	2	0.544921875
459.6357421875	0.00833333333333333	1	30	6	2	0.5830078125
462.611328125	0.00833333333333333	1	-30	-14	2	0.4873046875
465.4189453125	0.00833333333333333	1	30	-3	1	0.6240234375
468.619140625	0.00833333333333333	1	NaN	-5	1	0.50390625
471.302734375	0.00833333333333333	1	30	5	1	0.5
474.0029296875	0.00833333333333333	1	NaN	-4	1	0.48046875
476.64453125	0.00833333333333333	1	30	-2	1	0.4951171875
479.6357421875	0.00833333333333333	1	-30	-15	1	0.53515625
482.3525390625	0.00833333333333333	1	NaN	-3	1	0.474609375
484.90234375	0.00833333333333333	1	NaN	-2	1	0.5087890625
487.818359375	0.00833333333333333	1	NaN	-1	1	0.513671875
497.0185546875	0.00833333333333333	1	-30	-14	1	0.6337890625
499.8525390625	0.00833333333333333	1	-30	2	2	0.4951171875
502.65234375	0.00833333333333333	1	30	6	2	0.6796875
505.6103515625	0.00833333333333333	1	30	-1	1	0.6494140625
508.7353515625	0.00833333333333333	1	NaN	1	1	0.564453125
511.576171875	0.00833333333333333	1	NaN	2	2	0.66796875
514.6435546875	0.00833333333333333	1	30	5	2	0.6171875
517.3837890625	0.00833333333333333	1	30	0	1	0.6123046875
520.2763671875	0.00833333333333333	1	-30	-13	1	0.560546875
523.0341796875	0.00833333333333333	1	30	4	2	0.75390625
525.8935546875	0.00833333333333333	1	-30	-12	2	0.951171875
529.384765625	0.00833333333333333	1	30	3	2	0.484375
531.9755859375	0.00833333333333333	1	NaN	1	2	0.4931640625
534.96875	0.00833333333333333	1	30	1	2	0.5166015625
537.8759765625	0.00833333333333333	1	30	2	2	0.5849609375
540.7177734375	0.00833333333333333	1	-30	1	2	0.6240234375
543.701171875	0.00833333333333333	1	30	1	1	1.14453125
546.9267578125	0.00833333333333333	1	30	2	1	0.87890625
550.0009765625	0.00833333333333333	1	-30	0	2	0.6123046875
553.0341796875	0.00833333333333333	1	30	3	2	0.8193359375
556.0927734375	0.00833333333333333	1	30	0	1	0.6572265625
558.92578125	0.00833333333333333	1	-30	-13	1	0.81640625
561.80078125	0.00833333333333333	1	30	1	1	0.724609375
564.6591796875	0.00833333333333333	1	-30	-1	2	0.5947265625
567.458984375	0.00833333333333333	1	-30	-2	2	0.4755859375
570.333984375	0.00833333333333333	1	-30	-3	2	0.576171875
573.0595703125	0.00833333333333333	1	30	2	2	0.5791015625
576.1337890625	0.00833333333333333	1	30	1	2	0.4013671875
578.75	0.00833333333333333	1	30	0	2	1.13671875
582.3505859375	0.00833333333333333	1	30	2	2	0.744140625
585.4423828125	0.00833333333333333	1	NaN	0	2	0.7080078125
588.3837890625	0.00833333333333333	1	-30	-4	2	0.55859375
591.1337890625	0.00833333333333333	1	30	1	1	0.640625
594.0341796875	0.00833333333333333	1	NaN	-1	2	0.78125
597.2001953125	0.00833333333333333	1	NaN	0	2	0.5830078125
600.2587890625	0.00833333333333333	1	-30	-5	2	0.556640625
603.1337890625	0.00833333333333333	1	30	2	2	0.76171875
606.333984375	0.00833333333333333	1	30	1	2	0.7216796875
609.6083984375	0.00833333333333333	1	NaN	-2	1	0.87109375
612.6337890625	0.00833333333333333	1	NaN	-1	1	0.91796875
616.091796875	0.00833333333333333	1	30	0	1	1.1083984375
619.3251953125	0.00833333333333333	1	-30	-6	1	0.6103515625
622.3994140625	0.00833333333333333	1	NaN	0	2	0.9443359375
625.5419921875	0.00833333333333333	1	NaN	-1	2	0.650390625
628.716796875	0.00833333333333333	1	30	-1	1	0.7080078125
631.958984375	0.00833333333333333	1	-30	-5	2	0.5693359375
634.69140625	0.00833333333333333	1	NaN	-2	1	0.6767578125
637.908203125	0.00833333333333333	1	30	1	2	0.7802734375
641.06640625	0.00833333333333333	1	NaN	-1	2	0.58984375
643.8662109375	0.00833333333333333	1	NaN	-2	2	0.5185546875
646.591796875	0.00833333333333333	1	NaN	-3	2	0.640625
649.6328125	0.00833333333333333	1	NaN	-1	2	0.919921875
652.8994140625	0.00833333333333333	1	-30	-12	2	0.94140625
656.1328125	0.00833333333333333	1	NaN	-4	1	0.99609375
659.216796875	0.00833333333333333	1	NaN	-2	1	0.560546875
662.2900390625	0.00833333333333333	1	-30	-13	1	0.7587890625
665.5166015625	0.00833333333333333	1	30	0	1	0.732421875
668.5	0.00833333333333333	1	NaN	-3	1	0.62109375
671.1982421875	0.00833333333333333	1	-30	-6	2	0.7392578125
674.224609375	0.00833333333333333	1	NaN	-2	2	0.6884765625
677.158203125	0.00833333333333333	1	NaN	-3	1	0.5712890625
680.1162109375	0.00833333333333333	1	30	1	1	0.525390625
683.166015625	0.00833333333333333	1	NaN	-2	1	0.5078125
686.1826171875	0.00833333333333333	1	NaN	-1	2	0.8115234375
689.3994140625	0.00833333333333333	1	-30	-7	2	0.650390625
692.58203125	0.00833333333333333	1	30	2	2	0.7001953125
695.82421875	0.00833333333333333	1	30	1	2	0.658203125
698.95703125	0.00833333333333333	1	30	0	1	0.701171875
701.990234375	0.00833333333333333	1	30	1	1	1.2119140625
705.4150390625	0.00833333333333333	1	30	2	1	1.0751953125
708.5576171875	0.00833333333333333	1	30	3	1	0.724609375
711.732421875	0.00833333333333333	1	-30	-8	2	0.6943359375
714.5654296875	0.00833333333333333	1	30	4	2	0.59765625
717.240234375	0.00833333333333333	1	-30	-9	2	0.619140625
719.9326171875	0.00833333333333333	1	-30	-10	2	1.0224609375
723.298828125	0.00833333333333333	1	30	3	2	0.5439453125
726.181640625	0.00833333333333333	1	-30	-11	2	0.6298828125
729.064453125	0.00833333333333333	1	30	2	2	0.619140625
732.1064453125	0.00833333333333333	1	30	1	2	0.529296875
734.748046875	0.00833333333333333	1	30	0	1	0.6396484375
737.7900390625	0.00833333333333333	1	-30	-12	1	0.876953125
741.056640625	0.00833333333333333	1	30	1	1	0.802734375
744.140625	0.00833333333333333	1	30	2	1	0.607421875
746.8818359375	0.00833333333333333	1	-30	-11	1	0.8583984375
750.1396484375	0.00833333333333333	1	-30	-10	2	0.9521484375
753.1982421875	0.00833333333333333	1	-30	-11	2	0.9423828125
756.58984375	0.00833333333333333	1	30	3	2	0.6064453125
759.630859375	0.00833333333333333	1	-30	-12	2	0.96484375
763.1728515625	0.00833333333333333	1	30	2	2	0.8388671875
766.28125	0.00833333333333333	1	-30	-13	2	0.947265625
769.7802734375	0.00833333333333333	1	-30	-14	2	0.9599609375
773.0810546875	0.00833333333333333	1	-30	-15	2	2.8759765625
778.439453125	0.00833333333333333	1	30	1	1	0.7490234375
781.4560546875	0.00833333333333333	1	-30	-16	1	0.724609375
784.638671875	0.00833333333333333	1	-30	-15	1	0.56640625
787.5146484375	0.00833333333333333	1	-30	-14	1	0.4501953125
790.1796875	0.00833333333333333	1	-30	-13	1	0.4892578125
792.8310546875	0.00833333333333333	1	-30	-12	1	0.5498046875
795.53125	0.00833333333333333	1	-30	-11	2	0.5703125
804.1396484375	0.00833333333333333	1	-30	-12	1	0.7294921875
807.3974609375	0.00833333333333333	1	-30	-11	1	0.7763671875
810.3134765625	0.00833333333333333	1	-30	-10	1	0.62109375
813.189453125	0.00833333333333333	1	-30	-9	1	0.9208984375
816.6220703125	0.00833333333333333	1	-30	-8	2	0.85546875
819.9970703125	0.00833333333333333	1	-30	-9	2	0.552734375
822.7138671875	0.00833333333333333	1	-30	-10	2	0.6123046875
825.4140625	0.00833333333333333	1	-30	-11	2	0.4560546875
828.0390625	0.00833333333333333	1	-30	-12	2	0.462890625
830.697265625	0.00833333333333333	1	-30	-13	2	0.5810546875
833.8134765625	0.00833333333333333	1	-30	-14	2	0.4013671875
836.4130859375	0.00833333333333333	1	-30	-15	2	0.9541015625
839.7216796875	0.00833333333333333	1	-30	-16	2	1.1328125
843.0556640625	0.00833333333333333	1	-30	-17	1	0.7353515625
845.98046875	0.00833333333333333	1	-30	-16	2	0.978515625
849.2470703125	0.00833333333333333	1	-30	-12.5833333333333	2	0.49609375
852.0302734375	0.00833333333333333	1	-30	-13.5833333333333	2	0.6083984375
854.9052734375	0.00833333333333333	1	NaN	-1.08333333333333	2	0.8056640625
858.2802734375	0.00833333333333333	1	NaN	-1.20833333333333	2	0.767578125
861.11328125	0.00833333333333333	1	-30	-12.7083333333333	2	0.7177734375
864.2548828125	0.00833333333333333	1	30	2	2	0.9921875
867.771484375	0.00833333333333333	1	-30	-13.7083333333333	2	0.67578125
870.7470703125	0.00833333333333333	1	-30	-12.8333333333333	2	0.8447265625
873.662109375	0.00833333333333333	1	-30	-13.8333333333333	2	0.833984375
876.796875	0.00833333333333333	1	-30	-13.9583333333333	1	0.859375
880.0546875	0.00833333333333333	1	-30	-13.8333333333333	1	2.3935546875
884.5712890625	0.00833333333333333	1	30	1	1	1.1650390625
888.23828125	0.00833333333333333	1	-30	-12.9583333333333	1	0.74609375
891.3876953125	0.00833333333333333	1	-30	-13.7083333333333	1	0.7890625
894.36328125	0.00833333333333333	1	-30	-12.8333333333333	1	0.6455078125
897.404296875	0.00833333333333333	1	-30	-13.5833333333333	1	0.396484375
900.2880859375	0.00833333333333333	1	NaN	-1.33333333333333	2	0.65625
903.0712890625	0.00833333333333333	1	-30	-13.4583333333333	1	0.6171875
905.8291015625	0.00833333333333333	1	30	1.125	1	1.00390625
909.279296875	0.00833333333333333	1	NaN	-2.08333333333333	1	0.7216796875
912.5283203125	0.00833333333333333	1	-30	-12.7083333333333	2	0.904296875
915.6630859375	0.00833333333333333	1	-30	-12.8333333333333	1	0.666015625
918.736328125	0.00833333333333333	1	30	1.875	1	0.6005859375
921.845703125	0.00833333333333333	1	30	1.25	1	0.9873046875
925.1787109375	0.00833333333333333	1	NaN	-1.45833333333333	2	0.9423828125
928.37109375	0.00833333333333333	1	30	2	2	1.3583984375
931.9443359375	0.00833333333333333	1	-30	-13.3333333333333	2	0.9931640625
935.39453125	0.00833333333333333	1	30	1.875	2	0.8388671875
938.3203125	0.00833333333333333	1	NaN	-1.95833333333333	2	0.849609375
941.4208984375	0.00833333333333333	1	30	1.375	2	0.9169921875
944.4873046875	0.00833333333333333	1	-30	-12.7083333333333	2	0.9150390625
947.62890625	0.00833333333333333	1	-30	-12.8333333333333	2	0.7412109375
950.5869140625	0.00833333333333333	1	NaN	-1.58333333333333	2	0.767578125
953.4443359375	0.00833333333333333	1	NaN	-1.70833333333333	2	0.58203125
956.220703125	0.00833333333333333	1	30	1.25	1	0.7333984375
959.1025390625	0.00833333333333333	1	30	1.75	1	0.7080078125
962.203125	0.00833333333333333	1	NaN	-1.83333333333333	2	0.6318359375
964.9521484375	0.00833333333333333	1	-30	-13.4583333333333	2	0.8349609375
968.0537109375	0.00833333333333333	1	NaN	-1.95833333333333	2	0.6611328125
970.8447265625	0.00833333333333333	1	NaN	-2.08333333333333	2	0.509765625
973.62890625	0.00833333333333333	1	NaN	-2.08333333333333	2	1.6787109375
977.52734375	0.00833333333333333	1	-30	-12.9583333333333	1	0.916015625
980.935546875	0.00833333333333333	1	30	1.375	1	0.68359375
983.7197265625	0.00833333333333333	1	-30	-13.5833333333333	2	1.1474609375
987.236328125	0.00833333333333333	1	30	1.5	1	0.9755859375
990.7119140625	0.00833333333333333	1	NaN	-2.20833333333333	2	1.00390625
994.1533203125	0.00833333333333333	1	-30	-13.7083333333333	2	0.642578125
997.26171875	0.00833333333333333	1	30	1.875	1	0.5263671875
999.953125	0.00833333333333333	1	-30	-13.8333333333333	2	0.810546875
1002.8447265625	0.00833333333333333	1	30	2	2	0.7431640625
1006.0615234375	0.00833333333333333	1	NaN	-2.20833333333333	2	0.494140625
1008.9111328125	0.00833333333333333	1	-30	-13.9583333333333	2	0.4931640625
1011.7197265625	0.00833333333333333	1	NaN	-2.33333333333333	2	0.6123046875
1014.869140625	0.00833333333333333	1	-30	-14.0833333333333	2	0.6552734375
1017.6865234375	0.00833333333333333	1	NaN	-2.33333333333333	2	0.8056640625
1020.828125	0.00833333333333333	1	NaN	-2.45833333333333	2	0.5927734375
1023.677734375	0.00833333333333333	1	-30	-14.2083333333333	1	0.7265625
1026.64453125	0.00833333333333333	1	-30	-14.0833333333333	1	1.1201171875
1030.177734375	0.00833333333333333	1	-30	-12.8333333333333	2	0.8671875
1033.53515625	0.00833333333333333	1	NaN	-2.58333333333333	1	0.7578125
1036.84375	0.00833333333333333	1	NaN	-2.45833333333333	2	0.849609375
1039.91015625	0.00833333333333333	1	30	1.875	2	0.623046875
1042.84375	0.00833333333333333	1	-30	-13.9583333333333	1	0.9375
1045.935546875	0.00833333333333333	1	-30	-12.9583333333333	1	0.693359375
1048.751953125	0.00833333333333333	1	NaN	-2.58333333333333	1	0.7578125
1051.7607421875	0.00833333333333333	1	30	1.75	1	0.8603515625
1054.91015625	0.00833333333333333	1	NaN	-2.45833333333333	1	0.6796875
1057.7021484375	0.00833333333333333	1	-30	-13.8333333333333	2	0.943359375
1060.810546875	0.00833333333333333	1	30	1.875	2	0.970703125
1063.91015625	0.00833333333333333	1	30	1.75	2	1.0234375
1067.2685546875	0.00833333333333333	1	-30	-12.8333333333333	2	0.59375
1070.15234375	0.00833333333333333	1	NaN	-2.33333333333333	2	0.9580078125
1073.46875	0.00833333333333333	1	NaN	-2.45833333333333	2	0.833984375
1076.4267578125	0.00833333333333333	1	30	1.625	2	0.7314453125
1079.443359375	0.00833333333333333	1	30	1.625	2	0.7236328125
1082.458984375	0.00833333333333333	1	-30	-13.9583333333333	2	1.859375
1086.751953125	0.00833333333333333	1	NaN	-2.58333333333333	2	0.814453125
1089.6767578125	0.00833333333333333	1	-30	-14.0833333333333	2	1.2978515625
1093.41796875	0.00833333333333333	1	-30	-12.9583333333333	1	0.8369140625
1096.6337890625	0.00833333333333333	1	30	1.5	2	0.8447265625
1099.8349609375	0.00833333333333333	1	30	1.5	1	0.923828125
1102.818359375	0.00833333333333333	1	30	1.625	1	1.0771484375
1113.4677734375	0.00833333333333333	1	30	1.75	1	3.6923828125
1119.66796875	0.00833333333333333	1	30	1.875	1	1.2998046875
1123.3095703125	0.00833333333333333	1	30	2	1	0.7861328125
1126.4931640625	0.00833333333333333	1	-30	-12.8333333333333	1	0.9462890625
1129.8349609375	0.00833333333333333	1	NaN	-2.45833333333333	1	0.7724609375
1132.6845703125	0.00833333333333333	1	-30	-12.7083333333333	1	0.8271484375
1135.701171875	0.00833333333333333	1	30	1.375	2	0.8037109375
1138.958984375	0.00833333333333333	1	NaN	-2.33333333333333	2	0.689453125
1141.9580078125	0.00833333333333333	1	30	2.125	2	0.6181640625
1145.0673828125	0.00833333333333333	1	NaN	-2.45833333333333	2	0.5009765625
1148.083984375	0.00833333333333333	1	NaN	-2.70833333333333	2	0.6611328125
1151.1669921875	0.00833333333333333	1	NaN	-2.83333333333333	2	0.505859375
1153.93359375	0.00833333333333333	1	NaN	-2.95833333333333	2	0.451171875
1156.8828125	0.00833333333333333	1	-30	-12.5833333333333	2	0.4384765625
1159.642578125	0.00833333333333333	1	NaN	-2.58333333333333	2	0.662109375
1162.55859375	0.00833333333333333	1	NaN	-3.08333333333333	2	0.650390625
1165.4169921875	0.00833333333333333	1	-30	-14.2083333333333	1	0.6884765625
1168.1669921875	0.00833333333333333	1	NaN	-3.20833333333333	1	1.0263671875
1171.69921875	0.00833333333333333	1	NaN	-3.08333333333333	1	0.89453125
1175.0498046875	0.00833333333333333	1	-30	-14.0833333333333	1	0.6875
1177.900390625	0.00833333333333333	1	-30	-13.9583333333333	1	0.5966796875
1180.5751953125	0.00833333333333333	1	30	2	1	0.6748046875
1183.775390625	0.00833333333333333	1	30	2.125	1	1.6337890625
1187.80859375	0.00833333333333333	1	30	1.25	1	0.9375
1191.0751953125	0.00833333333333333	1	NaN	-2.95833333333333	1	0.6787109375
1193.775390625	0.00833333333333333	1	30	1.375	1	0.9384765625
1197.06640625	0.00833333333333333	1	NaN	-2.70833333333333	2	1.439453125
1200.75	0.00833333333333333	1	30	1.5	1	0.8681640625
1203.7333984375	0.00833333333333333	1	NaN	-2.83333333333333	2	0.6845703125
1206.5166015625	0.00833333333333333	1	-30	-12.7083333333333	1	0.486328125
1209.0830078125	0.00833333333333333	1	30	1.625	2	0.4716796875
1211.6748046875	0.00833333333333333	1	NaN	-2.95833333333333	2	0.576171875
1214.6162109375	0.00833333333333333	1	30	2.25	1	0.8427734375
1217.466796875	0.00833333333333333	1	-30	-12.5833333333333	1	1.0400390625
1220.7998046875	0.00833333333333333	1	30	2.375	1	0.8505859375
1223.7998046875	0.00833333333333333	1	-30	-13.8333333333333	1	0.7314453125
1226.9912109375	0.00833333333333333	1	NaN	-3.08333333333333	1	0.9794921875
1230.408203125	0.00833333333333333	1	NaN	-2.83333333333333	1	0.5712890625
1233.0400390625	0.00833333333333333	1	30	1.5	1	0.6748046875
1236.2412109375	0.00833333333333333	1	30	2.5	2	0.8505859375
1239.4912109375	0.00833333333333333	1	NaN	-2.70833333333333	2	0.736328125
1242.56640625	0.00833333333333333	1	30	1.625	2	0.693359375
1245.515625	0.00833333333333333	1	30	1.5	1	0.7119140625
1248.416015625	0.00833333333333333	1	-30	-13.7083333333333	1	0.748046875
1251.373046875	0.00833333333333333	1	NaN	-2.83333333333333	2	0.8310546875
1254.548828125	0.00833333333333333	1	30	1.625	1	1.416015625
1258.1650390625	0.00833333333333333	1	NaN	-2.95833333333333	2	0.791015625
1261.3984375	0.00833333333333333	1	30	1.75	2	0.662109375
1264.57421875	0.00833333333333333	1	-30	-12.4583333333333	1	0.8701171875
1267.5244140625	0.00833333333333333	1	-30	-13.5833333333333	1	1.15234375
1270.8076171875	0.00833333333333333	1	NaN	-2.95833333333333	1	0.78125
1274.0908203125	0.00833333333333333	1	30	2.375	1	0.59375
1276.8486328125	0.00833333333333333	1	-30	-12.3333333333333	1	0.587890625
1279.681640625	0.00833333333333333	1	-30	-12.2083333333333	1	0.9873046875
1282.7822265625	0.00833333333333333	1	-30	-12.0833333333333	1	0.806640625
1285.95703125	0.00833333333333333	1	30	2.5	2	0.7998046875
1288.8154296875	0.00833333333333333	1	NaN	-2.83333333333333	2	0.7255859375
1291.732421875	0.00833333333333333	1	NaN	-3.08333333333333	2	0.880859375
1295.015625	0.00833333333333333	1	30	1.625	2	0.5576171875
1297.7890625	0.00833333333333333	1	-30	-11.9583333333333	1	0.81640625
1301.056640625	0.00833333333333333	1	NaN	-2.95833333333333	2	1.0126953125
1304.46484375	0.00833333333333333	1	NaN	-3.08333333333333	2	0.5888671875
1307.556640625	0.00833333333333333	1	-30	-11.8333333333333	2	1.0166015625
1310.7822265625	0.00833333333333333	1	30	1.5	1	0.34375
1313.2900390625	0.00833333333333333	1	-30	-11.9583333333333	2	0.69140625
1316.46484375	0.00833333333333333	1	30	1.625	2	2.869140625
1321.6650390625	0.00833333333333333	1	-30	-12.0833333333333	2	0.7646484375
1324.939453125	0.00833333333333333	1	NaN	-3.20833333333333	2	0.6904296875
1327.8984375	0.00833333333333333	1	30	1.5	2	0.748046875
1330.9140625	0.00833333333333333	1	-30	-13.4583333333333	1	0.7412109375
1334.0556640625	0.00833333333333333	1	NaN	-3.33333333333333	2	0.7587890625
1337.1650390625	0.00833333333333333	1	-30	-12.2083333333333	2	0.666015625
1339.9970703125	0.00833333333333333	1	-30	-12.3333333333333	1	0.873046875
1343.3232421875	0.00833333333333333	1	30	1.375	2	0.8037109375
1346.4482421875	0.00833333333333333	1	-30	-13.3333333333333	2	0.56640625
1349.6064453125	0.00833333333333333	1	-30	-13.4583333333333	1	0.625
1352.4140625	0.00833333333333333	1	NaN	-3.20833333333333	2	0.712890625
1355.4228515625	0.00833333333333333	1	30	2.375	1	0.7041015625
1358.6142578125	0.00833333333333333	1	-30	-13.3333333333333	1	0.78515625
1361.47265625	0.00833333333333333	1	30	2.5	1	1.982421875
1365.8564453125	0.00833333333333333	1	-30	-12.2083333333333	1	0.791015625
1369.09765625	0.00833333333333333	1	NaN	-3.33333333333333	1	0.6943359375
1371.98046875	0.00833333333333333	1	-30	-13.2083333333333	1	0.802734375
1375.1728515625	0.00833333333333333	1	30	1.25	1	0.4833984375
1377.888671875	0.00833333333333333	1	-30	-13.0833333333333	2	1.103515625
1381.4638671875	0.00833333333333333	1	-30	-13.2083333333333	2	0.81640625
1384.455078125	0.00833333333333333	1	30	2.625	2	0.9130859375
1387.837890625	0.00833333333333333	1	NaN	-3.20833333333333	2	0.818359375
1390.9140625	0.00833333333333333	1	NaN	-3.33333333333333	2	0.58203125
1393.8642578125	0.00833333333333333	1	NaN	-3.45833333333333	2	0.7041015625
1396.87109375	0.00833333333333333	1	-30	-13.3333333333333	1	0.8896484375
1400.1640625	0.00833333333333333	1	NaN	-3.58333333333333	1	0.8125
1403.0966796875	0.00833333333333333	1	30	1.375	1	0.9921875
1406.546875	0.00833333333333333	1	NaN	-3.45833333333333	2	0.669921875
1409.4140625	0.00833333333333333	1	NaN	-3.58333333333333	1	0.69921875
1412.447265625	0.00833333333333333	1	NaN	-3.45833333333333	1	0.5859375
1441.4970703125	0.00833333333333333	1	NaN	-3.45833333333333	1	0.904296875
1444.8544921875	0.00833333333333333	1	NaN	-3.33333333333333	1	0.7158203125
1448.0205078125	0.00833333333333333	1	-30	-12.0833333333333	1	0.58203125
1450.712890625	0.00833333333333333	1	30	1.5	1	0.80078125
1453.5458984375	0.00833333333333333	1	30	2.5	1	0.720703125
1456.595703125	0.00833333333333333	1	30	1.625	1	0.6943359375
1459.546875	0.00833333333333333	1	NaN	-3.33333333333333	1	0.4951171875
1462.271484375	0.00833333333333333	1	30	1.75	1	0.603515625
1465.3125	0.00833333333333333	1	NaN	-3.20833333333333	1	0.498046875
1467.9130859375	0.00833333333333333	1	30	1.875	1	0.5693359375
1470.779296875	0.00833333333333333	1	-30	-13.2083333333333	1	0.50390625
1473.6123046875	0.00833333333333333	1	NaN	-3.20833333333333	1	0.56640625
1476.2626953125	0.00833333333333333	1	NaN	-3.08333333333333	1	0.5966796875
1479.029296875	0.00833333333333333	1	NaN	-2.95833333333333	1	0.58984375
1481.8955078125	0.00833333333333333	1	-30	-11.9583333333333	1	0.66796875
1485.0126953125	0.00833333333333333	1	-30	-13.0833333333333	1	0.6474609375
1488.2041015625	0.00833333333333333	1	-30	-12.9583333333333	1	0.599609375
1491.220703125	0.00833333333333333	1	30	2	1	0.5830078125
1493.9873046875	0.00833333333333333	1	-30	-11.8333333333333	2	0.751953125
1496.87890625	0.00833333333333333	1	NaN	-3.08333333333333	2	0.64453125
1499.8623046875	0.00833333333333333	1	NaN	-3.20833333333333	2	0.57421875
1502.6455078125	0.00833333333333333	1	NaN	-3.33333333333333	2	0.5263671875
1505.3876953125	0.00833333333333333	1	NaN	-2.83333333333333	2	0.47265625
1508.13671875	0.00833333333333333	1	NaN	-3.45833333333333	2	0.5390625
1511.1875	0.00833333333333333	1	-30	-12.8333333333333	2	0.552734375
1513.7705078125	0.00833333333333333	1	-30	-11.9583333333333	2	0.5615234375
1516.8291015625	0.00833333333333333	1	NaN	-3.58333333333333	2	0.52734375
1519.453125	0.00833333333333333	1	-30	-12.0833333333333	2	0.5107421875
1522.0869140625	0.00833333333333333	1	NaN	-3.70833333333333	2	0.517578125
1524.7705078125	0.00833333333333333	1	NaN	-2.95833333333333	2	0.4736328125
1527.470703125	0.00833333333333333	1	-30	-12.9583333333333	2	0.845703125
1530.7451171875	0.00833333333333333	1	NaN	-3.08333333333333	2	1.1474609375
1534.1943359375	0.00833333333333333	1	30	2.125	2	0.7626953125
1537.478515625	0.00833333333333333	1	NaN	-3.20833333333333	2	0.5986328125
1540.4365234375	0.00833333333333333	1	NaN	-3.33333333333333	2	0.6005859375
1543.5693359375	0.00833333333333333	1	-30	-13.0833333333333	1	0.748046875
1546.4951171875	0.00833333333333333	1	NaN	-3.45833333333333	2	0.677734375
1549.27734375	0.00833333333333333	1	-30	-12.9583333333333	2	0.728515625
1552.3369140625	0.00833333333333333	1	30	2	2	0.716796875
1555.2451171875	0.00833333333333333	1	-30	-12.2083333333333	2	0.83984375
1558.2861328125	0.00833333333333333	1	-30	-13.0833333333333	2	0.9033203125
1561.4951171875	0.00833333333333333	1	NaN	-3.83333333333333	2	0.55078125
1564.2939453125	0.00833333333333333	1	NaN	-3.58333333333333	2	0.5595703125
1567.3359375	0.00833333333333333	1	-30	-13.2083333333333	2	0.7177734375
1570.5361328125	0.00833333333333333	1	NaN	-3.70833333333333	2	0.7333984375
1573.4189453125	0.00833333333333333	1	NaN	-3.95833333333333	2	0.947265625
1576.4443359375	0.00833333333333333	1	NaN	-4.08333333333333	2	0.90625
1579.736328125	0.00833333333333333	1	NaN	-4.20833333333333	2	0.9423828125
1582.9775390625	0.00833333333333333	1	-30	-13.3333333333333	1	0.9013671875
1586.0107421875	0.00833333333333333	1	NaN	-3.83333333333333	1	0.859375
1589.3349609375	0.00833333333333333	1	-30	-12.3333333333333	1	0.6396484375
1592.0947265625	0.00833333333333333	1	NaN	-3.70833333333333	1	0.671875
1595.1015625	0.00833333333333333	1	NaN	-3.58333333333333	1	0.5693359375
1597.9111328125	0.00833333333333333	1	30	1.875	1	0.744140625
1600.8857421875	0.00833333333333333	1	NaN	-4.33333333333333	2	0.6494140625
1604.09375	0.00833333333333333	1	-30	-13.2083333333333	1	0.857421875
1607.02734375	0.00833333333333333	1	NaN	-3.45833333333333	1	0.8759765625
1610.302734375	0.00833333333333333	1	30	2	1	0.880859375
1613.501953125	0.00833333333333333	1	NaN	-4.45833333333333	1	1.5458984375
1617.4609375	0.00833333333333333	1	NaN	-4.33333333333333	1	1.1630859375
1620.8857421875	0.00833333333333333	1	-30	-13.0833333333333	1	0.7216796875
1623.90234375	0.00833333333333333	1	-30	-12.9583333333333	1	0.625
1626.77734375	0.00833333333333333	1	30	2.125	1	0.830078125
1629.7275390625	0.00833333333333333	1	30	2.25	1	1.064453125
1633.2939453125	0.00833333333333333	1	-30	-12.8333333333333	2	1.5859375
1637.2109375	0.00833333333333333	1	NaN	-4.20833333333333	2	0.7412109375
1640.1015625	0.00833333333333333	1	NaN	-4.33333333333333	2	0.490234375
1643.09375	0.00833333333333333	1	NaN	-3.33333333333333	2	0.4580078125
1646.1015625	0.00833333333333333	1	30	2.375	2	0.009765625
1648.3017578125	0.00833333333333333	1	NaN	-3.45833333333333	2	0.5546875
1650.91015625	0.00833333333333333	1	-30	-12.9583333333333	2	0.9140625
1654.376953125	0.00833333333333333	1	-30	-13.0833333333333	1	0.935546875
1657.376953125	0.00833333333333333	1	NaN	-3.58333333333333	1	0.82421875
1660.501953125	0.00833333333333333	1	NaN	-3.45833333333333	2	0.5390625
1663.3515625	0.00833333333333333	1	NaN	-4.45833333333333	2	0.625
1666.3095703125	0.00833333333333333	1	NaN	-4.58333333333333	2	0.70703125
1669.4755859375	0.00833333333333333	1	NaN	-4.70833333333333	2	0.5576171875
1672.2421875	0.00833333333333333	1	NaN	-4.83333333333333	2	0.6630859375
1675.3935546875	0.00833333333333333	1	NaN	-4.95833333333333	1	0.7998046875
1678.3095703125	0.00833333333333333	1	NaN	-4.83333333333333	1	0.8203125
1681.5595703125	0.00833333333333333	1	NaN	-4.70833333333333	1	0.4814453125
1684.4091796875	0.00833333333333333	1	NaN	-4.58333333333333	1	0.576171875
1687.259765625	0.00833333333333333	1	NaN	-4.45833333333333	1	0.57421875
1690.009765625	0.00833333333333333	1	NaN	-4.33333333333333	1	0.49609375
1692.759765625	0.00833333333333333	1	NaN	-4.20833333333333	1	0.5146484375
1695.6845703125	0.00833333333333333	1	NaN	-4.08333333333333	1	0.59765625
1698.4091796875	0.00833333333333333	1	NaN	-3.95833333333333	2	0.6728515625
1701.5009765625	0.00833333333333333	1	NaN	-4.08333333333333	1	0.7568359375
1704.6513671875	0.00833333333333333	0	-30	-12.8270833333333	1	0.775390625
1707.4677734375	0.00833333333333333	0	-30	-12.8270833333333	2	0.6630859375
1710.5498046875	0.00833333333333333	0	-30	-12.8270833333333	1	0.740234375
1713.8173828125	0.00833333333333333	0	30	1.975	2	0.7294921875
1716.7421875	0.00833333333333333	0	30	1.975	2	0.572265625
1719.576171875	0.00833333333333333	0	30	1.975	2	0.5625
1722.3427734375	0.00833333333333333	0	30	1.975	2	0.587890625
1725.275390625	0.00833333333333333	0	-30	-12.8270833333333	2	0.51953125
1728.05859375	0.00833333333333333	0	-30	-12.8270833333333	2	0.6962890625
1730.92578125	0.00833333333333333	0	30	1.975	2	0.533203125
1733.859375	0.00833333333333333	0	-30	-12.8270833333333	2	1.16796875
1737.1171875	0.00833333333333333	0	30	1.85	2	0.734375
1740.208984375	0.00833333333333333	0	30	1.85	2	0.5625
1743.109375	0.00833333333333333	0	-30	-12.8270833333333	2	0.4140625
1745.8173828125	0.00833333333333333	0	-30	-12.8270833333333	2	0.5625
1748.591796875	0.00833333333333333	0	-30	-12.9520833333333	2	1.1162109375
1751.8837890625	0.00833333333333333	0	-30	-12.9520833333333	2	0.712890625
1755.0419921875	0.00833333333333333	0	30	1.85	2	0.76953125
1758.083984375	0.00833333333333333	0	30	1.85	2	0.744140625
1760.9833984375	0.00833333333333333	0	-30	-12.9520833333333	2	1.076171875
1764.291015625	0.00833333333333333	0	-30	-12.9520833333333	2	0.44921875
1767.158203125	0.00833333333333333	0	-30	-12.9520833333333	2	0.5654296875
1770.1669921875	0.00833333333333333	0	30	1.85	2	1.3896484375
1774.150390625	0.00833333333333333	0	30	1.725	1	0.7099609375
1777.3251953125	0.00833333333333333	0	-30	-13.0770833333333	1	0.6630859375
1780.091796875	0.00833333333333333	0	30	1.725	2	0.9130859375
1783.3994140625	0.00833333333333333	0	-30	-13.0770833333333	2	0.6455078125
1786.416015625	0.00833333333333333	0	30	1.725	2	1.0048828125
1789.966796875	0.00833333333333333	0	-30	-13.0770833333333	2	0.421875
1792.5	0.00833333333333333	0	30	1.725	2	1.13671875
1796.0498046875	0.00833333333333333	0	-30	-13.0770833333333	2	0.908203125
1799.158203125	0.00833333333333333	0	30	1.725	2	1.3916015625
1802.9248046875	0.00833333333333333	0	30	1.725	2	0.81640625
1805.974609375	0.00833333333333333	0	30	1.6	2	0.89453125
1809.2998046875	0.00833333333333333	0	-30	-13.0770833333333	2	1.6181640625
1812.9912109375	0.00833333333333333	0	-30	-13.0770833333333	2	1.2861328125
1816.6572265625	0.00833333333333333	0	-30	-13.2020833333333	2	0.732421875
1819.666015625	0.00833333333333333	0	-30	-13.2020833333333	2	0.7080078125
1822.6826171875	0.00833333333333333	0	-30	-13.2020833333333	2	0.787109375
1825.57421875	0.00833333333333333	0	30	1.6	2	0.8876953125
1828.673828125	0.00833333333333333	0	30	1.6	2	1.1484375
1831.982421875	0.00833333333333333	0	30	1.6	2	0.736328125
1835.107421875	0.00833333333333333	0	30	1.6	2	0.68359375
1838.166015625	0.00833333333333333	0	-30	-13.2020833333333	2	1.6162109375
1842.1572265625	0.00833333333333333	0	30	1.475	1	1.7060546875
1845.9736328125	0.00833333333333333	0	30	1.475	1	0.9130859375
1849.2822265625	0.00833333333333333	0	-30	-13.2020833333333	1	0.64453125
1852.4072265625	0.00833333333333333	0	-30	-13.2020833333333	1	0.7275390625
1855.515625	0.00833333333333333	0	30	1.475	1	1.01171875
1858.5908203125	0.00833333333333333	0	30	1.475	1	0.9287109375
1861.640625	0.00833333333333333	0	-30	-13.2020833333333	1	0.9423828125
1864.9072265625	0.00833333333333333	0	-30	-13.2020833333333	1	1.2685546875
1868.390625	0.00833333333333333	0	30	1.475	2	0.9365234375
1871.7568359375	0.00833333333333333	0	-30	-13.2020833333333	1	0.810546875
1874.9892578125	0.00833333333333333	0	30	1.475	2	0.650390625
1877.740234375	0.00833333333333333	0	-30	-13.0770833333333	1	0.67578125
1880.923828125	0.00833333333333333	0	30	1.475	2	0.755859375
1884.0654296875	0.00833333333333333	0	30	1.475	2	0.7265625
1887.2900390625	0.00833333333333333	0	30	1.475	2	0.7177734375
1890.3056640625	0.00833333333333333	0	30	1.35	2	0.5830078125
1893.0146484375	0.00833333333333333	0	30	1.35	2	0.4658203125
1895.814453125	0.00833333333333333	0	30	1.35	2	1.0341796875
1898.998046875	0.00833333333333333	0	-30	-13.0770833333333	2	1.826171875
1902.8896484375	0.00833333333333333	0	-30	-13.0770833333333	2	1.03125
1906.0888671875	0.00833333333333333	0	-30	-13.0770833333333	2	1.103515625
1909.3642578125	0.00833333333333333	0	30	1.35	2	1.96484375
1913.380859375	0.00833333333333333	0	-30	-13.0770833333333	1	0.8603515625
1916.3798828125	0.00833333333333333	0	30	1.35	1	1.021484375
1919.814453125	0.00833333333333333	0	-30	-13.0770833333333	1	0.6669921875
1922.6728515625	0.00833333333333333	0	30	1.35	1	0.6650390625
1925.6474609375	0.00833333333333333	0	-30	-13.0770833333333	1	0.6103515625
1928.4462890625	0.00833333333333333	0	30	1.35	2	0.69140625
1931.4892578125	0.00833333333333333	0	-30	-13.0770833333333	1	0.6318359375
1934.4716796875	0.00833333333333333	0	30	1.35	2	0.5859375
1937.197265625	0.00833333333333333	0	-30	-13.0770833333333	1	1.5
1940.9970703125	0.00833333333333333	0	-30	-12.9520833333333	1	1.2451171875
1944.388671875	0.00833333333333333	0	-30	-12.9520833333333	2	0.9814453125
1947.5302734375	0.00833333333333333	0	30	1.35	1	0.896484375
1950.462890625	0.00833333333333333	0	30	1.35	2	0.7236328125
1953.73046875	0.00833333333333333	0	30	1.35	2	0.671875
1996.7138671875	0.00833333333333333	0	-30	-12.9520833333333	1	0.826171875
1999.712890625	0.00833333333333333	0	30	1.35	1	0.8427734375
2002.8046875	0.00833333333333333	0	-30	-12.9520833333333	1	0.71875
2005.9130859375	0.00833333333333333	0	-30	-12.9520833333333	2	0.794921875
2008.9453125	0.00833333333333333	0	-30	-12.9520833333333	2	0.6025390625
2011.7216796875	0.00833333333333333	0	-30	-12.9520833333333	2	0.6103515625
2014.779296875	0.00833333333333333	0	-30	-12.9520833333333	2	0.80078125
2017.9052734375	0.00833333333333333	0	-30	-12.9520833333333	2	0.6025390625
2021.0126953125	0.00833333333333333	0	30	1.35	2	0.7119140625
2024.2294921875	0.00833333333333333	0	30	1.35	2	0.6552734375
2026.9462890625	0.00833333333333333	0	30	1.35	2	0.53125
2029.6376953125	0.00833333333333333	0	30	1.35	2	0.6796875
2032.404296875	0.00833333333333333	0	-30	-13.0770833333333	2	0.7763671875
2035.4375	0.00833333333333333	0	30	1.35	2	0.5673828125
2038.1962890625	0.00833333333333333	0	-30	-13.0770833333333	2	0.6083984375
2041.24609375	0.00833333333333333	0	-30	-13.0770833333333	2	0.55078125
2044.0205078125	0.00833333333333333	0	-30	-13.0770833333333	2	0.744140625
2046.99609375	0.00833333333333333	0	30	1.225	2	0.537109375
2050.0546875	0.00833333333333333	0	30	1.225	2	0.494140625
2052.787109375	0.00833333333333333	0	30	1.225	2	0.642578125
2055.9033203125	0.00833333333333333	0	30	1.225	1	1.0859375
2059.353515625	0.00833333333333333	0	30	1.225	2	0.572265625
2062.1875	0.00833333333333333	0	30	1.225	2	0.650390625
2065.3369140625	0.00833333333333333	0	30	1.225	2	0.892578125
2068.404296875	0.00833333333333333	0	-30	-13.0770833333333	2	1.033203125
2071.8779296875	0.00833333333333333	0	-30	-13.2020833333333	2	0.7119140625
2074.7119140625	0.00833333333333333	0	30	1.225	2	0.75
2077.7197265625	0.00833333333333333	0	30	1.225	2	0.7587890625
2080.904296875	0.00833333333333333	0	-30	-13.2020833333333	1	0.6455078125
2083.720703125	0.00833333333333333	0	-30	-13.2020833333333	1	1.09375
2087.353515625	0.00833333333333333	0	-30	-13.2020833333333	1	0.63671875
2090.2861328125	0.00833333333333333	0	30	1.1	1	0.6806640625
2093.37890625	0.00833333333333333	0	30	1.1	1	0.755859375
2096.544921875	0.00833333333333333	0	-30	-13.2020833333333	1	2.0302734375
2100.7783203125	0.00833333333333333	0	-30	-13.2020833333333	1	1.060546875
2104.2705078125	0.00833333333333333	0	30	1.1	1	0.81640625
2107.4287109375	0.00833333333333333	0	30	1.1	1	0.7548828125
2110.328125	0.00833333333333333	0	-30	-13.0770833333333	2	0.7431640625
2113.353515625	0.00833333333333333	0	-30	-13.0770833333333	2	0.5986328125
2116.3525390625	0.00833333333333333	0	30	1.1	1	1.5751953125
2120.169921875	0.00833333333333333	0	-30	-13.0770833333333	1	0.4931640625
2122.9619140625	0.00833333333333333	0	30	1.225	2	0.7978515625
2126.2783203125	0.00833333333333333	0	-30	-13.0770833333333	2	0.4970703125
2129.2529296875	0.00833333333333333	0	-30	-13.0770833333333	2	1.34765625
2132.9775390625	0.00833333333333333	0	30	1.225	2	0.734375
2135.8525390625	0.00833333333333333	0	-30	-13.0770833333333	2	0.8271484375
2139.2685546875	0.00833333333333333	0	-30	-13.0770833333333	1	0.66796875
2142.2109375	0.00833333333333333	0	-30	-13.0770833333333	1	0.861328125
2145.2783203125	0.00833333333333333	0	30	1.225	2	0.6103515625
2148.0947265625	0.00833333333333333	0	-30	-13.0770833333333	2	0.8583984375
2151.27734375	0.00833333333333333	0	-30	-13.0770833333333	2	1.0595703125
2154.8857421875	0.00833333333333333	0	-30	-13.0770833333333	1	0.9306640625
2158.3271484375	0.00833333333333333	0	-30	-13.0770833333333	2	0.666015625
2161.453125	0.00833333333333333	0	30	1.225	2	0.67578125
2164.5439453125	0.00833333333333333	0	30	1.225	2	0.705078125
2167.8095703125	0.00833333333333333	0	-30	-13.0770833333333	2	0.6552734375
2170.8525390625	0.00833333333333333	0	-30	-13.0770833333333	2	0.564453125
2173.685546875	0.00833333333333333	0	-30	-13.0770833333333	2	0.580078125
2176.576171875	0.00833333333333333	0	-30	-13.0770833333333	2	0.4248046875
2179.52734375	0.00833333333333333	0	-30	-13.2020833333333	2	0.59375
2182.3193359375	0.00833333333333333	0	-30	-13.2020833333333	1	0.642578125
2184.9931640625	0.00833333333333333	0	30	1.1	2	0.48828125
2187.96875	0.00833333333333333	0	-30	-13.2020833333333	2	0.009765625
2190.2685546875	0.00833333333333333	0	-30	-13.2020833333333	2	0.6533203125
2193.369140625	0.00833333333333333	0	-30	-13.2020833333333	2	0.4326171875
2195.9521484375	0.00833333333333333	0	-30	-13.2020833333333	2	0.6181640625
2198.935546875	0.00833333333333333	0	30	1.1	2	0.4189453125
2201.619140625	0.00833333333333333	0	30	1.1	1	0.8388671875
2204.869140625	0.00833333333333333	0	30	1.1	1	0.7490234375
2208.0595703125	0.00833333333333333	0	-30	-13.2020833333333	1	0.734375
2211.001953125	0.00833333333333333	0	-30	-13.2020833333333	2	0.9853515625
2214.28515625	0.00833333333333333	0	-30	-13.2020833333333	1	0.61328125
2217.0517578125	0.00833333333333333	0	30	1.1	1	0.462890625
2219.9013671875	0.00833333333333333	0	30	1.1	1	0.7177734375
2222.884765625	0.00833333333333333	0	-30	-13.2020833333333	2	1.23046875
2226.3671875	0.00833333333333333	0	-30	-13.2020833333333	1	0.6435546875
2229.2177734375	0.00833333333333333	0	30	1.1	2	0.009765625
2231.6015625	0.00833333333333333	0	30	1.1	2	0.7294921875
2234.5263671875	0.00833333333333333	0	-30	-13.2020833333333	2	0.8291015625
2237.767578125	0.00833333333333333	0	30	1.1	2	0.63671875
2245.4765625	0.00833333333333333	0	30	1.1	2	1.119140625
2249.0673828125	0.00833333333333333	0	30	1.1	2	0.720703125
2251.9765625	0.00833333333333333	0	-30	-13.2020833333333	2	0.7314453125
2254.9677734375	0.00833333333333333	0	30	0.975	2	0.65234375
2257.8515625	0.00833333333333333	0	-30	-13.2020833333333	2	0.5849609375
2260.7099609375	0.00833333333333333	0	30	0.975	2	0.5419921875
2263.6923828125	0.00833333333333333	0	-30	-13.2020833333333	2	0.576171875
2266.708984375	0.00833333333333333	0	30	0.975	2	0.4873046875
2269.7666015625	0.00833333333333333	0	30	0.975	2	0.6455078125
2272.9755859375	0.00833333333333333	0	-30	-13.2020833333333	2	0.4609375
2275.8671875	0.00833333333333333	0	30	0.975	2	0.5771484375
2278.5673828125	0.00833333333333333	0	-30	-13.3270833333333	1	0.7490234375
2281.484375	0.00833333333333333	0	-30	-13.3270833333333	1	0.5361328125
2284.3427734375	0.00833333333333333	0	-30	-13.3270833333333	1	0.7255859375
2287.4345703125	0.00833333333333333	0	30	0.85	1	0.578125
2290.1337890625	0.00833333333333333	0	-30	-13.3270833333333	1	0.5830078125
2292.775390625	0.00833333333333333	0	-30	-13.3270833333333	1	0.509765625
2295.4169921875	0.00833333333333333	0	30	0.85	1	0.6279296875
2298.4169921875	0.00833333333333333	0	30	0.85	1	0.3486328125
2301.1923828125	0.00833333333333333	0	30	0.85	1	0.4130859375
2303.9580078125	0.00833333333333333	0	-30	-13.2020833333333	1	0.5439453125
2306.9921875	0.00833333333333333	0	30	0.85	1	0.845703125
2310.3173828125	0.00833333333333333	0	30	0.975	1	0.576171875
2313.0830078125	0.00833333333333333	0	-30	-13.2020833333333	1	0.634765625
2315.9169921875	0.00833333333333333	0	30	0.975	1	0.560546875
2318.9326171875	0.00833333333333333	0	30	0.975	1	0.2333984375
2321.466796875	0.00833333333333333	0	30	0.975	1	0.619140625
2324.283203125	0.00833333333333333	0	30	0.975	1	0.5146484375
2326.9658203125	0.00833333333333333	0	30	1.1	2	0.7529296875
2330.0751953125	0.00833333333333333	0	30	1.1	2	0.611328125
2332.94140625	0.00833333333333333	0	30	1.1	2	0.537109375
2335.8330078125	0.00833333333333333	0	-30	-13.2020833333333	2	0.7978515625
2338.94140625	0.00833333333333333	0	30	1.1	2	0.5126953125
2341.94140625	0.00833333333333333	0	30	1.1	2	0.009765625
2344.224609375	0.00833333333333333	0	30	0.975	2	0.5498046875
2347.1083984375	0.00833333333333333	0	-30	-13.2020833333333	2	0.6826171875
2350.0068359375	0.00833333333333333	0	-30	-13.2020833333333	1	0.728515625
2353.224609375	0.00833333333333333	0	30	0.975	2	0.662109375
2355.966796875	0.00833333333333333	0	-30	-13.2020833333333	1	0.6884765625
2359.0322265625	0.00833333333333333	0	-30	-13.2020833333333	1	0.638671875
2361.9248046875	0.00833333333333333	0	-30	-13.2020833333333	1	0.5302734375
2364.5322265625	0.00833333333333333	0	-30	-13.2020833333333	1	0.4912109375
2367.408203125	0.00833333333333333	0	-30	-13.0770833333333	1	0.4951171875
2370.1416015625	0.00833333333333333	0	-30	-13.0770833333333	1	0.59375
2373.041015625	0.00833333333333333	0	30	0.975	2	0.71875
2376.1162109375	0.00833333333333333	0	-30	-13.0770833333333	1	0.619140625
2378.8330078125	0.00833333333333333	0	30	0.975	2	0.7744140625
2381.9658203125	0.00833333333333333	0	-30	-13.0770833333333	2	0.5302734375
2384.7412109375	0.00833333333333333	0	-30	-13.0770833333333	2	0.4423828125
2387.607421875	0.00833333333333333	0	30	0.975	2	0.544921875
2390.3330078125	0.00833333333333333	0	-30	-13.0770833333333	2	0.5791015625
2393.1572265625	0.00833333333333333	0	-30	-13.0770833333333	2	0.642578125
2395.923828125	0.00833333333333333	0	-30	-13.0770833333333	2	0.6279296875
2398.732421875	0.00833333333333333	0	-30	-13.2020833333333	2	0.66015625
2401.7314453125	0.00833333333333333	0	-30	-13.2020833333333	1	0.5009765625
2404.515625	0.00833333333333333	0	30	0.85	2	0.9169921875
2407.6494140625	0.00833333333333333	0	30	0.85	2	0.6396484375
2410.4990234375	0.00833333333333333	0	30	0.85	2	0.5341796875
2413.34765625	0.00833333333333333	0	-30	-13.2020833333333	2	0.548828125
2416.015625	0.00833333333333333	0	30	0.85	2	1.44140625
2419.7490234375	0.00833333333333333	0	30	0.85	2	0.6279296875
2422.5400390625	0.00833333333333333	0	-30	-13.2020833333333	1	1.669921875
2426.33203125	0.00833333333333333	0	30	0.725	2	1.357421875
2429.982421875	0.00833333333333333	0	-30	-13.2020833333333	1	1.642578125
2433.740234375	0.00833333333333333	0	30	0.725	2	0.7333984375
2436.548828125	0.00833333333333333	0	30	0.725	2	0.9326171875
2439.7822265625	0.00833333333333333	0	-30	-13.2020833333333	2	0.6513671875
2442.5146484375	0.00833333333333333	0	30	0.725	2	1.375
2446.2568359375	0.00833333333333333	0	-30	-13.2020833333333	2	1.0810546875
2449.4482421875	0.00833333333333333	0	-30	-13.2020833333333	2	0.994140625
2452.7900390625	0.00833333333333333	0	-30	-13.2020833333333	2	0.7880859375
2455.8486328125	0.00833333333333333	0	30	0.725	2	0.6416015625
2458.90625	0.00833333333333333	0	-30	-13.2020833333333	2	0.759765625
2462.0810546875	0.00833333333333333	0	-30	-13.3270833333333	2	0.5693359375
2464.9150390625	0.00833333333333333	0	-30	-13.3270833333333	2	0.703125
2467.7060546875	0.00833333333333333	0	30	0.6	2	1.232421875
2471.064453125	0.00833333333333333	0	30	0.6	2	0.90625
2474.2734375	0.00833333333333333	0	-30	-13.3270833333333	2	2.009765625
2486.36328125	0.00833333333333333	0	-30	-13.3270833333333	1	3.8095703125
2492.296875	0.00833333333333333	0	30	0.6	1	0.7080078125
2495.1044921875	0.00833333333333333	0	30	0.6	1	0.6767578125
2497.98828125	0.00833333333333333	0	-30	-13.3270833333333	1	0.5927734375
2500.9296875	0.00833333333333333	0	30	0.6	1	0.748046875
2503.9130859375	0.00833333333333333	0	30	0.6	1	0.828125
2507.029296875	0.00833333333333333	0	-30	-13.3270833333333	1	0.6806640625
2510.0458984375	0.00833333333333333	0	30	0.6	2	0.85546875
2513.1787109375	0.00833333333333333	0	30	0.6	2	0.802734375
2516.021484375	0.00833333333333333	0	-30	-13.3270833333333	2	0.5927734375
2518.8876953125	0.00833333333333333	0	-30	-13.3270833333333	2	0.7265625
2521.9208984375	0.00833333333333333	0	30	0.6	2	0.388671875
2524.470703125	0.00833333333333333	0	-30	-13.3270833333333	2	0.3916015625
2526.9873046875	0.00833333333333333	0	-30	-13.3270833333333	2	1.1552734375
2530.24609375	0.00833333333333333	0	30	0.6	2	0.82421875
2533.169921875	0.00833333333333333	0	30	0.6	2	0.7080078125
2536.0625	0.00833333333333333	0	30	0.475	2	0.5283203125
2539.0869140625	0.00833333333333333	0	-30	-13.3270833333333	2	0.5673828125
2541.970703125	0.00833333333333333	0	-30	-13.4520833333333	2	0.5322265625
2544.6201171875	0.00833333333333333	0	30	0.475	2	0.6826171875
2547.453125	0.00833333333333333	0	30	0.475	2	0.5380859375
2550.0791015625	0.00833333333333333	0	30	0.475	2	0.6875
2553.0283203125	0.00833333333333333	0	30	0.475	2	0.5791015625
2556.044921875	0.00833333333333333	0	30	0.35	1	0.8662109375
2559.0615234375	0.00833333333333333	0	-30	-13.4520833333333	2	0.9296875
2562.1865234375	0.00833333333333333	0	-30	-13.4520833333333	2	0.5810546875
2564.8037109375	0.00833333333333333	0	-30	-13.4520833333333	2	0.8837890625
2568.1201171875	0.00833333333333333	0	-30	-13.4520833333333	2	0.5751953125
2570.87890625	0.00833333333333333	0	30	0.35	2	0.537109375
2573.486328125	0.00833333333333333	0	-30	-13.5770833333333	2	0.4013671875
2576.353515625	0.00833333333333333	0	30	0.35	2	0.646484375
2579.3779296875	0.00833333333333333	0	-30	-13.5770833333333	2	0.5498046875
2582.3603515625	0.00833333333333333	0	-30	-13.5770833333333	2	0.607421875
2585.328125	0.00833333333333333	0	-30	-13.5770833333333	2	0.8798828125
2588.603515625	0.00833333333333333	0	-30	-13.5770833333333	2	0.8046875
2591.59375	0.00833333333333333	0	30	0.35	1	0.7099609375
2594.5283203125	0.00833333333333333	0	-30	-13.7020833333333	1	0.7919921875
2597.4619140625	0.00833333333333333	0	30	0.35	2	0.73046875
2600.294921875	0.00833333333333333	0	-30	-13.7020833333333	2	0.59375
2602.9951171875	0.00833333333333333	0	30	0.35	2	0.541015625
2605.8115234375	0.00833333333333333	0	30	0.35	2	0.708984375
2608.89453125	0.00833333333333333	0	-30	-13.7020833333333	2	0.4580078125
2611.5615234375	0.00833333333333333	0	-30	-13.7020833333333	2	0.4150390625
2614.3525390625	0.00833333333333333	0	-30	-13.7020833333333	1	1
2617.5693359375	0.00833333333333333	0	30	0.35	1	0.7841796875
2620.685546875	0.00833333333333333	0	-30	-13.7020833333333	1	0.771484375
2623.619140625	0.00833333333333333	0	30	0.35	1	0.58984375
2626.619140625	0.00833333333333333	0	30	0.35	1	0.7265625
2629.5947265625	0.00833333333333333	0	-30	-13.7020833333333	1	0.5751953125
2632.4111328125	0.00833333333333333	0	30	0.35	1	0.6064453125
2635.328125	0.00833333333333333	0	30	0.35	2	0.697265625
2638.6025390625	0.00833333333333333	0	30	0.35	2	0.6875
2641.7353515625	0.00833333333333333	0	-30	-13.7020833333333	2	0.490234375
2644.66796875	0.00833333333333333	0	-30	-13.7020833333333	2	0.5498046875
2647.4189453125	0.00833333333333333	0	-30	-13.7020833333333	2	0.55078125
2650.4609375	0.00833333333333333	0	30	0.35	2	0.677734375
2653.26953125	0.00833333333333333	0	30	0.35	2	0.64453125
2656.0185546875	0.00833333333333333	0	-30	-13.7020833333333	2	0.4638671875
2659.0517578125	0.00833333333333333	0	30	0.35	2	1.654296875
2662.7939453125	0.00833333333333333	0	-30	-13.7020833333333	1	0.80859375
2665.751953125	0.00833333333333333	0	30	0.225	1	0.9072265625
2668.935546875	0.00833333333333333	0	-30	-13.7020833333333	1	0.68359375
2671.7607421875	0.00833333333333333	0	-30	-13.7020833333333	1	0.59375
2674.560546875	0.00833333333333333	0	30	0.225	1	0.650390625
2677.41015625	0.00833333333333333	0	30	0.225	2	0.544921875
2680.0595703125	0.00833333333333333	0	-30	-13.7020833333333	1	0.6552734375
2683.1015625	0.00833333333333333	0	-30	-13.7020833333333	1	0.357421875
2685.8173828125	0.00833333333333333	0	-30	-13.5770833333333	1	0.3056640625
2688.2353515625	0.00833333333333333	0	-30	-13.5770833333333	1	0.384765625
2690.66015625	0.00833333333333333	0	30	0.225	1	0.51953125
2693.41796875	0.00833333333333333	0	30	0.225	1	0.7373046875
2696.5771484375	0.00833333333333333	0	-30	-13.5770833333333	1	0.5625
2699.34375	0.00833333333333333	0	30	0.225	1	0.7314453125
2702.3935546875	0.00833333333333333	0	30	0.225	1	0.7705078125
2705.333984375	0.00833333333333333	0	-30	-13.5770833333333	1	0.6943359375
2708.359375	0.00833333333333333	0	30	0.225	1	0.8203125
2711.7177734375	0.00833333333333333	0	-30	-13.5770833333333	2	0.7099609375
2714.693359375	0.00833333333333333	0	30	0.35	2	0.71875
2717.7431640625	0.00833333333333333	0	-30	-13.5770833333333	2	0.4609375
2720.6181640625	0.00833333333333333	0	30	0.35	2	0.650390625
2730.1259765625	0.00833333333333333	0	-30	-13.5770833333333	1	3.56640625
2735.8173828125	0.00833333333333333	0	-30	-13.5770833333333	1	1.0673828125
2739.3671875	0.00833333333333333	0	-30	-13.5770833333333	2	2.2060546875
2743.7763671875	0.00833333333333333	0	30	0.35	2	1.2763671875
2747.583984375	0.00833333333333333	0	-30	-13.5770833333333	1	1.212890625
2751.19140625	0.00833333333333333	0	30	0.35	2	1.0224609375
2754.6591796875	0.00833333333333333	0	-30	-13.5770833333333	2	0.8984375
2757.734375	0.00833333333333333	0	30	0.35	2	0.798828125
2760.7255859375	0.00833333333333333	0	-30	-13.5770833333333	2	0.81640625
2763.708984375	0.00833333333333333	0	-30	-13.5770833333333	2	0.728515625
2766.93359375	0.00833333333333333	0	30	0.225	1	1.0478515625
2770.1337890625	0.00833333333333333	0	-30	-13.5770833333333	2	0.65625
2773.19921875	0.00833333333333333	0	-30	-13.5770833333333	2	0.7587890625
2776.3583984375	0.00833333333333333	0	-30	-13.7020833333333	2	0.767578125
2779.2919921875	0.00833333333333333	0	30	0.225	2	1.001953125
2782.775390625	0.00833333333333333	0	-30	-13.7020833333333	2	0.958984375
2785.8916015625	0.00833333333333333	0	30	0.225	2	1.6904296875
2789.68359375	0.00833333333333333	0	30	0.225	2	0.8427734375
2792.6748046875	0.00833333333333333	0	-30	-13.7020833333333	2	0.771484375
2795.9423828125	0.00833333333333333	0	-30	-13.7020833333333	2	0.576171875
2799.083984375	0.00833333333333333	0	30	0.225	2	0.9951171875
2802.4248046875	0.00833333333333333	0	-30	-13.7020833333333	2	1.509765625
2806.1083984375	0.00833333333333333	0	-30	-13.8270833333333	1	0.818359375
2809.2001953125	0.00833333333333333	0	-30	-13.8270833333333	1	0.7587890625
2812.0830078125	0.00833333333333333	0	-30	-13.8270833333333	1	0.5322265625
2814.7412109375	0.00833333333333333	0	30	0.225	2	0.6904296875
2817.599609375	0.00833333333333333	0	-30	-13.8270833333333	1	0.6318359375
2820.55859375	0.00833333333333333	0	-30	-13.8270833333333	1	0.705078125
2823.423828125	0.00833333333333333	0	-30	-13.7020833333333	1	0.48046875
2826.0498046875	0.00833333333333333	0	30	0.0999999999999999	1	0.58984375
2828.81640625	0.00833333333333333	0	-30	-13.7020833333333	2	0.8154296875
2831.8916015625	0.00833333333333333	0	-30	-13.7020833333333	2	0.8837890625
2835.099609375	0.00833333333333333	0	30	0.0999999999999999	2	0.7080078125
2838.2578125	0.00833333333333333	0	-30	-13.7020833333333	2	1.806640625
2842.5166015625	0.00833333333333333	0	-30	-13.7020833333333	2	0.8759765625
2845.5166015625	0.00833333333333333	0	-30	-13.7020833333333	1	0.7158203125
2848.6162109375	0.00833333333333333	0	-30	-13.7020833333333	1	0.6162109375
2851.5498046875	0.00833333333333333	0	30	0.0999999999999999	1	0.7470703125
2854.82421875	0.00833333333333333	0	30	0.0999999999999999	1	0.80859375
2858.1572265625	0.00833333333333333	0	-30	-13.7020833333333	2	0.6357421875
2861.048828125	0.00833333333333333	0	-30	-13.7020833333333	2	0.599609375
2864.166015625	0.00833333333333333	0	-30	-13.7020833333333	1	0.38671875
2867.0908203125	0.00833333333333333	0	30	0.0999999999999999	2	0.9423828125
2870.4072265625	0.00833333333333333	0	30	0.0999999999999999	1	0.8662109375
2873.431640625	0.00833333333333333	0	30	0.0999999999999999	2	0.6337890625
2876.4990234375	0.00833333333333333	0	-30	-13.7020833333333	1	0.58984375
2879.3486328125	0.00833333333333333	0	-30	-13.7020833333333	2	0.64453125
2882.4736328125	0.00833333333333333	0	30	0.0999999999999999	1	0.607421875
2885.4404296875	0.00833333333333333	0	-30	-13.7020833333333	2	0.46484375
2888.015625	0.00833333333333333	0	30	0.0999999999999999	1	0.6337890625
2890.8818359375	0.00833333333333333	0	-30	-13.7020833333333	1	0.4560546875
2893.4140625	0.00833333333333333	0	-30	-13.7020833333333	1	0.7880859375
2896.265625	0.00833333333333333	0	30	0.0999999999999999	2	1.423828125
2900.0322265625	0.00833333333333333	0	-30	-13.7020833333333	1	0.841796875
2903.365234375	0.00833333333333333	0	-30	-13.7020833333333	1	0.7412109375
2906.2392578125	0.00833333333333333	0	30	0.0999999999999999	1	0.69140625
2909.390625	0.00833333333333333	0	30	0.0999999999999999	2	4.0595703125
2915.5732421875	0.00833333333333333	0	-30	-13.7020833333333	1	0.708984375
2918.5322265625	0.00833333333333333	0	-30	-13.5770833333333	1	0.5107421875
2921.1396484375	0.00833333333333333	0	30	0.0999999999999999	2	0.5595703125
2923.90625	0.00833333333333333	0	-30	-13.5770833333333	2	0.6005859375
2926.90625	0.00833333333333333	0	30	0.0999999999999999	2	0.6005859375
2929.748046875	0.00833333333333333	0	30	0.0999999999999999	1	0.623046875
2932.48046875	0.00833333333333333	0	30	0.0999999999999999	2	0.7470703125
2935.45703125	0.00833333333333333	0	-30	-13.5770833333333	1	0.498046875
2938.263671875	0.00833333333333333	0	-30	-13.5770833333333	1	0.5634765625
2941.2314453125	0.00833333333333333	0	30	0.0999999999999999	2	0.33203125
2943.7978515625	0.00833333333333333	0	30	0.0999999999999999	2	0.8779296875
2946.8564453125	0.00833333333333333	0	-30	-13.5770833333333	1	0.6669921875
2949.748046875	0.00833333333333333	0	30	0.0999999999999999	1	0.7998046875
2952.9150390625	0.00833333333333333	0	-30	-13.5770833333333	1	0.6328125
2955.6142578125	0.00833333333333333	0	30	0.0999999999999999	1	1.349609375
2959.3310546875	0.00833333333333333	0	-30	-13.5770833333333	1	0.8408203125
2962.6806640625	0.00833333333333333	0	30	0.0999999999999999	2	0.291015625
2965.248046875	0.00833333333333333	0	-30	-13.4520833333333	1	0.5400390625
2968.0224609375	0.00833333333333333	0	30	0.0999999999999999	2	0.60546875
2970.9306640625	0.00833333333333333	0	-30	-13.4520833333333	2	0.76953125
2974.10546875	0.00833333333333333	0	-30	-13.4520833333333	2	0.4990234375
2976.84765625	0.00833333333333333	0	-30	-13.4520833333333	2	0.6767578125
2980.005859375	0.00833333333333333	0	30	0.0999999999999999	2	1.974609375
2995.689453125	0.00833333333333333	0	30	0.0999999999999999	1	0.9638671875
2998.822265625	0.00833333333333333	0	-30	-13.4520833333333	1	0.55859375
3001.455078125	0.00833333333333333	0	-30	-13.4520833333333	1	0.6865234375
3004.255859375	0.00833333333333333	0	-30	-13.4520833333333	1	0.4775390625
3007.046875	0.00833333333333333	0	30	0.0999999999999999	1	0.4140625
3009.5634765625	0.00833333333333333	0	-30	-13.4520833333333	1	0.4658203125
3012.421875	0.00833333333333333	0	-30	-13.4520833333333	1	1.015625
3015.9638671875	0.00833333333333333	0	-30	-13.3270833333333	1	0.8095703125
3019.279296875	0.00833333333333333	0	-30	-13.3270833333333	2	0.5029296875
3022.2216796875	0.00833333333333333	0	30	0.0999999999999999	2	0.6484375
3025.1796875	0.00833333333333333	0	-30	-13.3270833333333	2	0.4580078125
3027.86328125	0.00833333333333333	0	30	0.0999999999999999	2	0.646484375
3031.021484375	0.00833333333333333	0	30	0.0999999999999999	2	0.7451171875
3033.8466796875	0.00833333333333333	0	30	0.0999999999999999	2	0.439453125
3036.36328125	0.00833333333333333	0	30	0.0999999999999999	1	0.6513671875
3039.37109375	0.00833333333333333	0	30	0.0999999999999999	2	1.0673828125
3042.8466796875	0.00833333333333333	0	30	0.0999999999999999	2	0.6875
3045.837890625	0.00833333333333333	0	30	0.0999999999999999	2	0.705078125
3048.6376953125	0.00833333333333333	0	30	0.0999999999999999	2	0.640625
3051.396484375	0.00833333333333333	0	30	0.0999999999999999	2	0.650390625
3054.5546875	0.00833333333333333	0	30	-0.0250000000000001	2	0.64453125
3057.4541015625	0.00833333333333333	0	-30	-13.3270833333333	2	0.46484375
3060.1298828125	0.00833333333333333	0	-30	-13.3270833333333	2	0.9091796875
3063.1962890625	0.00833333333333333	0	-30	-13.3270833333333	1	0.7548828125
3066.330078125	0.00833333333333333	0	30	-0.0250000000000001	2	0.58203125
3069.220703125	0.00833333333333333	0	-30	-13.3270833333333	1	1.03515625
3072.5712890625	0.00833333333333333	0	30	-0.0250000000000001	1	0.7802734375
3075.8798828125	0.00833333333333333	0	-30	-13.3270833333333	1	0.751953125
3079.2119140625	0.00833333333333333	0	-30	-13.3270833333333	1	0.4833984375
3081.896484375	0.00833333333333333	0	-30	-13.3270833333333	1	0.6875
3085.12890625	0.00833333333333333	0	-30	-13.2020833333333	1	0.6552734375
3087.9130859375	0.00833333333333333	0	-30	-13.2020833333333	1	0.6708984375
3090.99609375	0.00833333333333333	0	30	-0.0250000000000001	2	0.84375
3094.287109375	0.00833333333333333	0	-30	-13.2020833333333	1	0.9208984375
3097.62109375	0.00833333333333333	0	30	-0.0250000000000001	1	0.69921875
3100.7451171875	0.00833333333333333	0	-30	-13.2020833333333	2	0.5107421875
3103.5869140625	0.00833333333333333	0	30	-0.0250000000000001	2	0.5419921875
3106.38671875	0.00833333333333333	0	30	-0.0250000000000001	2	0.6298828125
3109.3203125	0.00833333333333333	0	30	-0.0250000000000001	2	0.4638671875
3111.9873046875	0.00833333333333333	0	-30	-13.2020833333333	2	0.4296875
3114.8369140625	0.00833333333333333	0	30	-0.0250000000000001	2	0.3642578125
3117.3369140625	0.00833333333333333	0	-30	-13.2020833333333	1	0.767578125
3120.4375	0.00833333333333333	0	-30	-13.2020833333333	1	0.443359375
3122.986328125	0.00833333333333333	0	-30	-13.2020833333333	1	0.798828125
3126.25390625	0.00833333333333333	0	30	-0.0250000000000001	2	1.8037109375
3130.4609375	0.00833333333333333	0	30	-0.15	2	0.7568359375
3133.6865234375	0.00833333333333333	0	-30	-13.2020833333333	2	1.7626953125
3137.578125	0.00833333333333333	0	-30	-13.2020833333333	1	0.84765625
3140.9619140625	0.00833333333333333	0	30	-0.15	1	0.751953125
3144.21875	0.00833333333333333	0	30	-0.15	1	0.5986328125
3147.01953125	0.00833333333333333	0	-30	-13.2020833333333	1	0.75
3150.294921875	0.00833333333333333	0	-30	-13.2020833333333	2	0.771484375
3153.6201171875	0.00833333333333333	0	-30	-13.2020833333333	1	0.654296875
3156.353515625	0.00833333333333333	0	-30	-13.2020833333333	2	0.9208984375
3159.861328125	0.00833333333333333	0	30	-0.15	1	0.46875
3162.51171875	0.00833333333333333	0	30	-0.15	1	0.6904296875
3165.51953125	0.00833333333333333	0	-30	-13.2020833333333	1	0.36328125
3168.078125	0.00833333333333333	0	30	-0.15	1	0.0087890625
3170.1533203125	0.00833333333333333	0	30	-0.0250000000000001	2	0.3212890625
3172.8701171875	0.00833333333333333	0	30	-0.0250000000000001	1	0.3330078125
3175.7275390625	0.00833333333333333	0	30	-0.0250000000000001	2	0.4033203125
3178.6279296875	0.00833333333333333	0	30	-0.0250000000000001	2	0.703125
3181.64453125	0.00833333333333333	0	30	-0.0250000000000001	2	1.7822265625
3185.6943359375	0.00833333333333333	0	-30	-13.2020833333333	2	0.78125
3188.7353515625	0.00833333333333333	0	-30	-13.2020833333333	2	0.572265625
3191.52734375	0.00833333333333333	0	-30	-13.2020833333333	2	1.1162109375
3194.9775390625	0.00833333333333333	0	30	-0.0250000000000001	2	0.7783203125
3198.310546875	0.00833333333333333	0	-30	-13.2020833333333	2	2.884765625
3203.5771484375	0.00833333333333333	0	30	-0.0250000000000001	2	1.154296875
3207.009765625	0.00833333333333333	0	-30	-13.2020833333333	1	0.8984375
3210.09375	0.00833333333333333	0	30	-0.15	2	1.646484375
3214.2109375	0.00833333333333333	0	30	-0.15	1	0.8095703125
3217.494140625	0.00833333333333333	0	-30	-13.2020833333333	2	2.814453125
3222.826171875	0.00833333333333333	0	-30	-13.2020833333333	2	0.3544921875
3225.7353515625	0.00833333333333333	0	-30	-13.2020833333333	2	0.8134765625
3228.6767578125	0.00833333333333333	0	30	-0.15	2	0.8720703125
3232.04296875	0.00833333333333333	0	-30	-13.2020833333333	2	0.77734375
3235.119140625	0.00833333333333333	0	30	-0.15	2	0.6376953125
3238.09375	0.00833333333333333	0	-30	-13.2020833333333	2	2.0390625
3242.40234375	0.00833333333333333	0	30	-0.15	2	0.779296875
3264.076171875	0.00833333333333333	0	-30	-13.3270833333333	1	1.017578125
3267.4345703125	0.00833333333333333	0	-30	-13.3270833333333	1	0.5712890625
3270.4267578125	0.00833333333333333	0	30	-0.15	1	0.619140625
3273.384765625	0.00833333333333333	0	30	-0.15	1	0.8134765625
3276.41015625	0.00833333333333333	0	-30	-13.3270833333333	2	0.8203125
3279.3349609375	0.00833333333333333	0	-30	-13.3270833333333	2	0.6796875
3282.1767578125	0.00833333333333333	0	30	-0.15	2	0.59765625
3285.259765625	0.00833333333333333	0	30	-0.15	2	0.498046875
3288.033203125	0.00833333333333333	0	-30	-13.3270833333333	2	0.541015625
3290.9013671875	0.00833333333333333	0	-30	-13.3270833333333	2	0.47265625
3293.775390625	0.00833333333333333	0	30	-0.15	2	0.462890625
3296.6845703125	0.00833333333333333	0	-30	-13.3270833333333	2	2.6904296875
3301.591796875	0.00833333333333333	0	-30	-13.4520833333333	2	0.9912109375
3305.0830078125	0.00833333333333333	0	30	-0.15	2	0.9482421875
3308.42578125	0.00833333333333333	0	-30	-13.4520833333333	2	0.716796875
3311.6513671875	0.00833333333333333	0	-30	-13.4520833333333	2	0.3798828125
3314.275390625	0.00833333333333333	0	30	-0.15	2	0.3876953125
3316.7841796875	0.00833333333333333	0	30	-0.275	2	0.5751953125
3319.4677734375	0.00833333333333333	0	30	-0.275	2	0.37109375
3322.017578125	0.00833333333333333	0	30	-0.275	2	0.009765625
3324.109375	0.00833333333333333	0	30	-0.275	2	0.009765625
3326.275390625	0.00833333333333333	0	30	-0.275	2	0.6201171875
3329.525390625	0.00833333333333333	0	30	-0.4	2	0.8740234375
3332.5087890625	0.00833333333333333	0	30	-0.4	1	0.7548828125
3335.392578125	0.00833333333333333	0	-30	-13.4520833333333	1	0.7109375
3338.275390625	0.00833333333333333	0	-30	-13.4520833333333	1	0.5322265625
3341.0341796875	0.00833333333333333	0	30	-0.4	1	1.501953125
3345.025390625	0.00833333333333333	0	30	-0.4	1	0.5673828125
3348.0419921875	0.00833333333333333	0	-30	-13.4520833333333	1	0.6064453125
3350.7333984375	0.00833333333333333	0	-30	-13.4520833333333	1	0.5390625
3353.541015625	0.00833333333333333	0	30	-0.4	1	1.0439453125
3356.7333984375	0.00833333333333333	0	30	-0.4	1	1.6591796875
3360.9169921875	0.00833333333333333	0	-30	-13.4520833333333	1	1.1474609375
3364.599609375	0.00833333333333333	0	-30	-13.3270833333333	2	0.96875
3368.1416015625	0.00833333333333333	0	30	-0.275	2	1.3388671875
3372.06640625	0.00833333333333333	0	30	-0.275	2	0.9345703125
3375.4990234375	0.00833333333333333	0	30	-0.275	2	1.806640625
3379.8408203125	0.00833333333333333	0	-30	-13.3270833333333	1	0.888671875
3383.166015625	0.00833333333333333	0	30	-0.275	2	1.0517578125
3386.482421875	0.00833333333333333	0	-30	-13.3270833333333	2	1.6552734375
3390.466796875	0.00833333333333333	0	-30	-13.3270833333333	1	1.7353515625
3394.33203125	0.00833333333333333	0	30	-0.275	2	0.92578125
3397.732421875	0.00833333333333333	0	30	-0.4	2	0.61328125
3400.8828125	0.00833333333333333	0	30	-0.4	2	0.5673828125
3404.033203125	0.00833333333333333	0	-30	-13.3270833333333	2	0.697265625
3407.166015625	0.00833333333333333	0	30	-0.4	2	0.740234375
3410.2822265625	0.00833333333333333	0	30	-0.4	1	0.6875
3413.3330078125	0.00833333333333333	0	30	-0.4	2	0.7177734375
3416.4072265625	0.00833333333333333	0	-30	-13.3270833333333	2	0.5546875
3419.349609375	0.00833333333333333	0	30	-0.4	1	0.5087890625
3422.1494140625	0.00833333333333333	0	-30	-13.3270833333333	1	2.4609375
3426.765625	0.00833333333333333	0	-30	-13.3270833333333	2	0.884765625
3429.990234375	0.00833333333333333	0	-30	-13.3270833333333	2	0.4443359375
3432.9990234375	0.00833333333333333	0	30	-0.4	1	0.171875
3435.2822265625	0.00833333333333333	0	-30	-13.3270833333333	2	1.720703125
3439.3076171875	0.00833333333333333	0	30	-0.4	1	0.9990234375
3442.6494140625	0.00833333333333333	0	30	-0.4	2	0.6259765625
3445.5908203125	0.00833333333333333	0	-30	-13.3270833333333	1	0.708984375
3448.666015625	0.00833333333333333	0	30	-0.4	1	0.8095703125
3451.58203125	0.00833333333333333	0	30	-0.4	1	0.58984375
3454.7568359375	0.00833333333333333	0	-30	-13.3270833333333	1	0.462890625
3457.3486328125	0.00833333333333333	0	30	-0.4	1	0.447265625
3460.0908203125	0.00833333333333333	0	-30	-13.3270833333333	1	0.201171875
3462.5654296875	0.00833333333333333	0	30	-0.4	1	0.6220703125
3465.322265625	0.00833333333333333	0	30	-0.4	1	1.017578125
3468.65625	0.00833333333333333	0	30	-0.275	2	1.33984375
3472.0732421875	0.00833333333333333	0	-30	-13.3270833333333	2	1.890625
3476.2822265625	0.00833333333333333	0	-30	-13.3270833333333	1	2.4658203125
3480.873046875	0.00833333333333333	0	-30	-13.3270833333333	1	0.8515625
3483.9814453125	0.00833333333333333	0	30	-0.275	1	0.4228515625
3486.5068359375	0.00833333333333333	0	-30	-13.3270833333333	1	0.9619140625
3489.9228515625	0.00833333333333333	0	-30	-13.3270833333333	1	0.4658203125
3492.65625	0.00833333333333333	0	-30	-13.3270833333333	1	0.009765625
3495.1318359375	0.00833333333333333	0	-30	-13.2020833333333	2	1.46484375
3498.740234375	0.00833333333333333	0	30	-0.275	2	0.609375
3501.47265625	0.00833333333333333	0	-30	-13.2020833333333	1	0.9404296875
3504.46484375	0.00833333333333333	0	-30	-13.2020833333333	1	0.923828125
3507.8642578125	0.00833333333333333	0	30	-0.275	2	0.3251953125
3510.306640625	0.00833333333333333	0	-30	-13.2020833333333	2	0.05859375
3512.72265625	0.00833333333333333	0	30	-0.275	1	0.1943359375
3553.3466796875	0.00833333333333333	0	30	-0.275	1	1.1083984375
3556.7216796875	0.00833333333333333	0	-30	-13.2020833333333	1	0.5810546875
3559.896484375	0.00833333333333333	0	30	-0.275	1	0.501953125
3562.87109375	0.00833333333333333	0	30	-0.275	1	0.3837890625
3565.7880859375	0.00833333333333333	0	-30	-13.2020833333333	1	0.3388671875
3568.6884765625	0.00833333333333333	0	-30	-13.2020833333333	1	0.3505859375
3571.5126953125	0.00833333333333333	0	30	-0.275	2	0.87890625
3574.755859375	0.00833333333333333	0	30	-0.275	1	1.01953125
3578.1962890625	0.00833333333333333	0	-30	-13.2020833333333	2	0.939453125
3581.5888671875	0.00833333333333333	0	30	-0.275	2	0.5625
3584.3720703125	0.00833333333333333	0	30	-0.275	2	0.603515625
3587.2958984375	0.00833333333333333	0	30	-0.275	2	0.51953125
3589.921875	0.00833333333333333	0	-30	-13.2020833333333	2	0.421875
3592.6875	0.00833333333333333	0	-30	-13.2020833333333	2	0.5771484375
3595.4716796875	0.00833333333333333	0	-30	-13.2020833333333	2	0.5283203125
3598.146484375	0.00833333333333333	0	-30	-13.2020833333333	2	0.6298828125
3601.1220703125	0.00833333333333333	0	-30	-13.3270833333333	2	0.6220703125
3604.24609375	0.00833333333333333	0	-30	-13.3270833333333	2	1.0029296875
3607.7626953125	0.00833333333333333	0	30	-0.275	2	0.685546875
3611.046875	0.00833333333333333	0	-30	-13.3270833333333	2	0.658203125
3613.86328125	0.00833333333333333	0	30	-0.275	2	1.0009765625
3617.3212890625	0.00833333333333333	0	-30	-13.3270833333333	2	0.6552734375
3620.1875	0.00833333333333333	0	-30	-13.3270833333333	2	0.6298828125
3623.3544921875	0.00833333333333333	0	30	-0.4	2	0.54296875
3626.1376953125	0.00833333333333333	0	30	-0.4	2	0.6474609375
3629.0048828125	0.00833333333333333	0	30	-0.4	2	1.052734375
3632.271484375	0.00833333333333333	0	-30	-13.4520833333333	2	0.08203125
3634.6962890625	0.00833333333333333	0	30	-0.4	1	1.47265625
3638.51171875	0.00833333333333333	0	-30	-13.4520833333333	1	0.689453125
3641.5625	0.00833333333333333	0	30	-0.4	1	0.9111328125
3644.7705078125	0.00833333333333333	0	-30	-13.4520833333333	1	2.2314453125
3649.12890625	0.00833333333333333	0	30	-0.4	2	0.80859375
3652.0791015625	0.00833333333333333	0	-30	-13.4520833333333	2	0.634765625
3655.1796875	0.00833333333333333	0	-30	-13.4520833333333	2	0.58203125
3658.154296875	0.00833333333333333	0	30	-0.4	2	0.6962890625
3661.1865234375	0.00833333333333333	0	30	-0.4	2	0.408203125
3664.00390625	0.00833333333333333	0	30	-0.4	2	0.5419921875
3666.88671875	0.00833333333333333	0	30	-0.4	2	0.6279296875
3670.1123046875	0.00833333333333333	0	-30	-13.4520833333333	2	0.5224609375
3673.095703125	0.00833333333333333	0	30	-0.525	2	0.4912109375
3675.978515625	0.00833333333333333	0	-30	-13.4520833333333	1	0.9921875
3679.220703125	0.00833333333333333	0	30	-0.525	1	0.89453125
3682.4375	0.00833333333333333	0	30	-0.525	2	1.0693359375
3685.853515625	0.00833333333333333	0	-30	-13.4520833333333	1	0.61328125
3688.88671875	0.00833333333333333	0	30	-0.525	2	0.9638671875
3692.2373046875	0.00833333333333333	0	30	-0.525	2	1.0537109375
3695.40234375	0.00833333333333333	0	30	-0.525	2	0.81640625
3698.5615234375	0.00833333333333333	0	-30	-13.4520833333333	2	3.337890625
3704.494140625	0.00833333333333333	0	30	-0.525	2	0.6533203125
3707.6279296875	0.00833333333333333	0	-30	-13.4520833333333	1	1.16796875
3711.0947265625	0.00833333333333333	0	-30	-13.4520833333333	1	0.6455078125
3713.8369140625	0.00833333333333333	0	30	-0.65	2	1.0791015625
3717.4697265625	0.00833333333333333	0	-30	-13.4520833333333	2	0.830078125
3720.4443359375	0.00833333333333333	0	30	-0.65	2	0.775390625
3723.419921875	0.00833333333333333	0	-30	-13.4520833333333	2	0.7685546875
3726.5283203125	0.00833333333333333	0	30	-0.65	2	0.66796875
3729.7197265625	0.00833333333333333	0	30	-0.65	2	0.8125
3732.71875	0.00833333333333333	0	-30	-13.4520833333333	2	0.517578125
3735.361328125	0.00833333333333333	0	30	-0.65	2	0.6748046875
3738.5107421875	0.00833333333333333	0	30	-0.775	2	0.57421875
3741.4443359375	0.00833333333333333	0	30	-0.775	2	0.7041015625
3744.2685546875	0.00833333333333333	0	-30	-13.4520833333333	2	0.47265625
3747.052734375	0.00833333333333333	0	30	-0.775	2	0.8798828125
3750.2607421875	0.00833333333333333	0	-30	-13.4520833333333	2	0.7841796875
3753.5947265625	0.00833333333333333	0	30	-0.775	2	0.72265625
3756.751953125	0.00833333333333333	0	-30	-13.5770833333333	1	0.8779296875
3759.9111328125	0.00833333333333333	0	-30	-13.5770833333333	2	1.1259765625
3763.5263671875	0.00833333333333333	0	-30	-13.5770833333333	2	0.935546875
3766.8359375	0.00833333333333333	0	30	-0.775	1	0.6337890625
3769.744140625	0.00833333333333333	0	-30	-13.5770833333333	1	0.4931640625
3772.5693359375	0.00833333333333333	0	30	-0.775	1	0.5478515625
3775.2353515625	0.00833333333333333	0	-30	-13.5770833333333	1	0.546875
3778.2607421875	0.00833333333333333	0	30	-0.775	1	0.873046875
3781.302734375	0.00833333333333333	0	30	-0.775	2	0.6953125
3784.109375	0.00833333333333333	0	-30	-13.5770833333333	2	0.5205078125
3786.9189453125	0.00833333333333333	0	-30	-13.5770833333333	2	0.5830078125
3789.90234375	0.00833333333333333	0	30	-0.775	2	0.48828125
3792.6103515625	0.00833333333333333	0	30	-0.775	2	0.4443359375
3795.609375	0.00833333333333333	0	-30	-13.5770833333333	2	0.365234375
3798.251953125	0.00833333333333333	0	-30	-13.5770833333333	2	0.2900390625
3814.1103515625	0.00833333333333333	0	30	-0.775	1	0.9365234375
3817.2431640625	0.00833333333333333	0	-30	-13.5770833333333	1	0.6201171875
3820.109375	0.00833333333333333	0	-30	-13.5770833333333	1	0.490234375
3822.9599609375	0.00833333333333333	0	30	-0.775	1	0.703125
3826.2099609375	0.00833333333333333	0	30	-0.775	1	0.58203125
3828.951171875	0.00833333333333333	0	30	-0.775	1	0.5205078125
3831.8349609375	0.00833333333333333	0	30	-0.775	1	0.6845703125
3834.6767578125	0.00833333333333333	0	30	-0.65	1	0.626953125
3837.8515625	0.00833333333333333	0	-30	-13.5770833333333	1	0.6201171875
3840.966796875	0.00833333333333333	0	-30	-13.5770833333333	1	0.5126953125
3843.767578125	0.00833333333333333	0	-30	-13.5770833333333	1	0.560546875
3846.701171875	0.00833333333333333	0	-30	-13.4520833333333	1	0.37109375
3849.3515625	0.00833333333333333	0	-30	-13.4520833333333	1	0.7685546875
3852.267578125	0.00833333333333333	0	30	-0.65	1	0.708984375
3855.4765625	0.00833333333333333	0	30	-0.65	1	0.755859375
3858.29296875	0.00833333333333333	0	30	-0.65	1	0.7236328125
3861.1923828125	0.00833333333333333	0	-30	-13.4520833333333	1	0.736328125
3864.29296875	0.00833333333333333	0	30	-0.65	1	0.771484375
3867.142578125	0.00833333333333333	0	-30	-13.4520833333333	2	0.673828125
3870.1845703125	0.00833333333333333	0	30	-0.525	1	0.81640625
3873.3427734375	0.00833333333333333	0	30	-0.525	2	0.6103515625
3876.3916015625	0.00833333333333333	0	-30	-13.4520833333333	2	0.609375
3879.4677734375	0.00833333333333333	0	30	-0.525	2	0.61328125
3882.234375	0.00833333333333333	0	30	-0.525	2	0.5830078125
3885.359375	0.00833333333333333	0	30	-0.525	2	0.5859375
3888.2587890625	0.00833333333333333	0	-30	-13.4520833333333	2	0.5107421875
3891.05078125	0.00833333333333333	0	30	-0.525	2	0.8623046875
3894.05859375	0.00833333333333333	0	30	-0.65	2	0.8544921875
3897.4345703125	0.00833333333333333	0	30	-0.65	2	0.6630859375
3900.466796875	0.00833333333333333	0	30	-0.65	2	0.7265625
3903.4169921875	0.00833333333333333	0	-30	-13.4520833333333	2	0.80859375
3906.7919921875	0.00833333333333333	0	30	-0.65	2	0.7861328125
3909.8671875	0.00833333333333333	0	30	-0.65	2	0.4951171875
3912.533203125	0.00833333333333333	0	30	-0.775	2	0.525390625
3915.1416015625	0.00833333333333333	0	-30	-13.4520833333333	1	0.64453125
3918.0087890625	0.00833333333333333	0	30	-0.775	1	0.78515625
3920.8583984375	0.00833333333333333	0	30	-0.775	1	0.7763671875
3923.8583984375	0.00833333333333333	0	30	-0.775	1	0.48828125
3926.8330078125	0.00833333333333333	0	30	-0.775	1	0.6572265625
3929.9755859375	0.00833333333333333	0	-30	-13.4520833333333	1	0.787109375
3933.099609375	0.00833333333333333	0	-30	-13.4520833333333	1	0.447265625
3935.966796875	0.00833333333333333	0	-30	-13.4520833333333	1	0.8837890625
3939.2001953125	0.00833333333333333	0	30	-0.775	1	0.794921875
3942.0830078125	0.00833333333333333	0	30	-0.65	1	1.16015625
3945.6416015625	0.00833333333333333	0	-30	-13.4520833333333	2	0.9541015625
3949.0078125	0.00833333333333333	0	30	-0.65	1	0.4677734375
3951.765625	0.00833333333333333	0	30	-0.65	2	0.8701171875
3954.7578125	0.00833333333333333	0	30	-0.65	2	0.806640625
3957.9912109375	0.00833333333333333	0	-30	-13.4520833333333	2	0.7958984375
3961.3662109375	0.00833333333333333	0	30	-0.65	1	0.7978515625
3964.7578125	0.00833333333333333	0	-30	-13.4520833333333	2	1.6220703125
3968.6162109375	0.00833333333333333	0	30	-0.65	2	0.427734375
3971.1982421875	0.00833333333333333	0	30	-0.65	2	0.3818359375
3973.666015625	0.00833333333333333	0	-30	-13.4520833333333	1	0.5458984375
3976.666015625	0.00833333333333333	0	30	-0.65	2	0.658203125
3979.5830078125	0.00833333333333333	0	-30	-13.4520833333333	1	0.5576171875
3982.3994140625	0.00833333333333333	0	-30	-13.4520833333333	1	0.4453125
3985.2744140625	0.00833333333333333	0	-30	-13.4520833333333	2	0.90625
3988.69921875	0.00833333333333333	0	30	-0.65	2	0.009765625
3990.9912109375	0.00833333333333333	0	-30	-13.4520833333333	1	1.845703125
3995.015625	0.00833333333333333	0	-30	-13.4520833333333	1	0.9814453125
3998.357421875	0.00833333333333333	0	-30	-13.4520833333333	1	0.919921875
4001.673828125	0.00833333333333333	0	30	-0.65	1	0.451171875
4004.58203125	0.00833333333333333	0	30	-0.65	1	0.5830078125
4007.6904296875	0.00833333333333333	0	-30	-13.4520833333333	1	0.5625
4010.490234375	0.00833333333333333	0	-30	-13.4520833333333	2	0.7548828125
4013.732421875	0.00833333333333333	0	-30	-13.4520833333333	1	0.400390625
4016.365234375	0.00833333333333333	0	30	-0.65	2	1.2880859375
4019.9404296875	0.00833333333333333	0	-30	-13.4520833333333	1	0.009765625
4022.2568359375	0.00833333333333333	0	-30	-13.4520833333333	1	0.548828125
4024.8564453125	0.00833333333333333	0	30	-0.65	1	0.4208984375
4027.46484375	0.00833333333333333	0	30	-0.65	2	0.716796875
4030.623046875	0.00833333333333333	0	-30	-13.4520833333333	1	0.009765625
4033.08984375	0.00833333333333333	0	30	-0.65	2	1.083984375
4036.2900390625	0.00833333333333333	0	-30	-13.4520833333333	2	0.5478515625
4039.0732421875	0.00833333333333333	0	30	-0.65	2	0.5244140625
4041.9404296875	0.00833333333333333	0	30	-0.65	2	0.490234375
4044.5986328125	0.00833333333333333	0	-30	-13.4520833333333	2	0.111328125
4047.2236328125	0.00833333333333333	0	30	-0.65	2	0.294921875
4049.58203125	0.00833333333333333	0	30	-0.775	2	1.49609375
4076.6298828125	0.00833333333333333	0	30	-0.775	1	1.12109375
4079.9638671875	0.00833333333333333	0	30	-0.775	1	0.5712890625
4082.8310546875	0.00833333333333333	0	-30	-13.4520833333333	1	0.43359375
4085.498046875	0.00833333333333333	0	30	-0.775	1	0.3896484375
4088.28125	0.00833333333333333	0	-30	-13.4520833333333	1	0.4462890625
4090.9306640625	0.00833333333333333	0	30	-0.775	1	0.46875
4093.6396484375	0.00833333333333333	0	-30	-13.4520833333333	1	0.2158203125
4095.9306640625	0.00833333333333333	0	-30	-13.4520833333333	1	0.533203125
4098.763671875	0.00833333333333333	0	30	-0.775	1	0.5078125
4101.4228515625	0.00833333333333333	0	30	-0.65	2	0.609375
4104.60546875	0.00833333333333333	0	-30	-13.4520833333333	2	0.4912109375
4107.5126953125	0.00833333333333333	0	-30	-13.4520833333333	2	0.50390625
4110.263671875	0.00833333333333333	0	30	-0.65	2	0.4404296875
4113.1806640625	0.00833333333333333	0	-30	-13.4520833333333	2	0.84375
4116.3388671875	0.00833333333333333	0	-30	-13.4520833333333	2	0.6298828125
4119.212890625	0.00833333333333333	0	-30	-13.4520833333333	2	0.412109375
4121.755859375	0.00833333333333333	0	30	-0.65	2	0.4765625
4124.4892578125	0.00833333333333333	0	-30	-13.5770833333333	1	0.8154296875
4127.4716796875	0.00833333333333333	0	-30	-13.5770833333333	1	0.712890625
4130.6220703125	0.00833333333333333	0	30	-0.65	2	0.6025390625
4133.380859375	0.00833333333333333	0	30	-0.65	2	0.46875
4136.10546875	0.00833333333333333	0	30	-0.775	2	0.5439453125
4138.921875	0.00833333333333333	0	30	-0.775	1	0.7275390625
4141.7802734375	0.00833333333333333	0	-30	-13.5770833333333	2	0.4130859375
4144.3623046875	0.00833333333333333	0	-30	-13.5770833333333	2	0.423828125
4146.9384765625	0.00833333333333333	0	30	-0.775	2	0.54296875
4149.85546875	0.00833333333333333	0	30	-0.775	2	0.673828125
4152.646484375	0.00833333333333333	0	30	-0.775	2	0.5556640625
4155.62890625	0.00833333333333333	0	-30	-13.5770833333333	2	0.8369140625
4158.9453125	0.00833333333333333	0	-30	-13.5770833333333	2	0.4326171875
4161.8544921875	0.00833333333333333	0	-30	-13.5770833333333	2	0.451171875
4164.896484375	0.00833333333333333	0	-30	-13.7020833333333	2	0.673828125
4167.73828125	0.00833333333333333	0	-30	-13.7020833333333	2	1.056640625
4170.98828125	0.00833333333333333	0	30	-0.775	2	1.3740234375
4174.9208984375	0.00833333333333333	0	-30	-13.7020833333333	2	1.009765625
4178.5380859375	0.00833333333333333	0	30	-0.775	2	0.712890625
4181.3466796875	0.00833333333333333	0	-30	-13.7020833333333	2	0.4638671875
4184.330078125	0.00833333333333333	0	-30	-13.7020833333333	2	0.4404296875
4187.337890625	0.00833333333333333	0	30	-0.9	2	0.48046875
4190.3125	0.00833333333333333	0	-30	-13.8270833333333	2	0.4423828125
4193.0791015625	0.00833333333333333	0	-30	-13.8270833333333	2	0.404296875
4196.0048828125	0.00833333333333333	0	30	-0.9	2	0.40625
4198.521484375	0.00833333333333333	0	-30	-13.8270833333333	2	1.162109375
4202.162109375	0.00833333333333333	0	-30	-13.8270833333333	1	0.5693359375
4205.0537109375	0.00833333333333333	0	30	-0.9	2	0.7421875
4208.029296875	0.00833333333333333	0	30	-0.9	2	1.58984375
4212.162109375	0.00833333333333333	0	-30	-13.8270833333333	2	0.76171875
4215.0126953125	0.00833333333333333	0	30	-0.9	1	2.7431640625
4219.87109375	0.00833333333333333	0	30	-0.9	2	0.8447265625
4222.9873046875	0.00833333333333333	0	30	-0.9	1	0.7373046875
4226.0029296875	0.00833333333333333	0	30	-0.9	2	0.6650390625
4228.845703125	0.00833333333333333	0	30	-0.9	2	0.91015625
4232.1787109375	0.00833333333333333	0	-30	-13.8270833333333	2	0.8173828125
4235.3291015625	0.00833333333333333	0	30	-0.9	2	0.5869140625
4238.0126953125	0.00833333333333333	0	30	-0.9	1	0.4794921875
4241.0537109375	0.00833333333333333	0	30	-0.9	1	0.2705078125
4243.4033203125	0.00833333333333333	0	-30	-13.8270833333333	2	0.59375
4246.26171875	0.00833333333333333	0	-30	-13.8270833333333	2	0.5029296875
4248.88671875	0.00833333333333333	0	30	-0.9	1	0.5263671875
4251.8955078125	0.00833333333333333	0	30	-0.9	2	0.4052734375
4254.494140625	0.00833333333333333	0	30	-0.9	2	0.55078125
4257.4453125	0.00833333333333333	0	30	-0.9	2	0.53515625
4260.4453125	0.00833333333333333	0	30	-0.9	2	0.8798828125
4263.51171875	0.00833333333333333	0	30	-0.9	2	0.6298828125
4266.669921875	0.00833333333333333	0	30	-1.025	2	0.9677734375
4270.111328125	0.00833333333333333	0	-30	-13.8270833333333	2	0.9345703125
4273.13671875	0.00833333333333333	0	-30	-13.9520833333333	2	0.7568359375
4276.26171875	0.00833333333333333	0	-30	-13.9520833333333	1	1.2080078125
4279.728515625	0.00833333333333333	0	30	-1.025	2	0.7412109375
4282.943359375	0.00833333333333333	0	30	-1.025	2	0.86328125
4286.3447265625	0.00833333333333333	0	30	-1.025	2	0.62109375
4289.5185546875	0.00833333333333333	0	30	-1.025	2	0.439453125
4292.51953125	0.00833333333333333	0	30	-1.15	1	0.54296875
4295.6279296875	0.00833333333333333	0	-30	-13.9520833333333	1	0.4423828125
4298.619140625	0.00833333333333333	0	-30	-13.9520833333333	1	0.458984375
4301.5693359375	0.00833333333333333	0	-30	-13.9520833333333	1	0.5654296875
4304.6689453125	0.00833333333333333	0	30	-1.15	1	0.609375
4307.77734375	0.00833333333333333	0	30	-1.15	1	0.62109375
4310.65234375	0.00833333333333333	0	-30	-13.9520833333333	1	0.7861328125
4313.578125	0.00833333333333333	0	30	-1.15	2	0.7646484375
