onset	duration	titr	surround	centre	response	rt
142.26171875	0.00833333333333333	1	30	-15	2	10.8359375
155.5283203125	0.00833333333333333	1	30	15	2	2.08203125
160.0537109375	0.00833333333333333	1	-30	15	1	1.0927734375
163.2861328125	0.00833333333333333	1	-30	16	1	1.2763671875
166.9453125	0.00833333333333333	1	-30	-15	1	0.8251953125
169.802734375	0.00833333333333333	1	NaN	15	2	0.751953125
172.8115234375	0.00833333333333333	1	30	14	2	0.791015625
176.169921875	0.00833333333333333	1	NaN	14	2	0.544921875
178.76953125	0.00833333333333333	1	-30	-14	1	0.513671875
181.6611328125	0.00833333333333333	1	NaN	13	2	0.6298828125
184.802734375	0.00833333333333333	1	NaN	-15	1	0.552734375
187.7099609375	0.00833333333333333	1	NaN	12	2	0.60546875
190.494140625	0.00833333333333333	1	NaN	11	2	0.7333984375
193.8193359375	0.00833333333333333	1	-30	17	1	1.0078125
197.119140625	0.00833333333333333	1	30	-16	1	1.1240234375
200.4443359375	0.00833333333333333	1	30	13	2	1.8154296875
204.5107421875	0.00833333333333333	1	30	12	2	0.724609375
207.560546875	0.00833333333333333	1	30	-15	1	0.9951171875
210.6015625	0.00833333333333333	1	NaN	10	2	0.7626953125
213.52734375	0.00833333333333333	1	30	-14	1	0.900390625
216.6767578125	0.00833333333333333	1	NaN	-14	1	0.783203125
219.626953125	0.00833333333333333	1	NaN	-13	1	0.76953125
222.8017578125	0.00833333333333333	1	NaN	-12	1	0.6826171875
225.90234375	0.00833333333333333	1	-30	-13	1	0.89453125
229.0771484375	0.00833333333333333	1	-30	-12	1	0.87109375
232.2763671875	0.00833333333333333	1	30	11	2	0.65625
235.310546875	0.00833333333333333	1	NaN	9	2	0.75
238.15234375	0.00833333333333333	1	30	-13	1	0.748046875
241.185546875	0.00833333333333333	1	30	-12	2	1.763671875
245.0771484375	0.00833333333333333	1	NaN	-11	1	0.767578125
248.3173828125	0.00833333333333333	1	-30	18	2	0.9677734375
251.8095703125	0.00833333333333333	1	-30	17	2	0.67578125
254.759765625	0.00833333333333333	1	-30	16	2	0.685546875
257.5517578125	0.00833333333333333	1	30	10	1	1.861328125
261.693359375	0.00833333333333333	1	30	-13	1	0.6962890625
264.484375	0.00833333333333333	1	-30	15	2	0.79296875
267.734375	0.00833333333333333	1	-30	14	2	0.5517578125
270.5263671875	0.00833333333333333	1	-30	13	2	0.52734375
273.1767578125	0.00833333333333333	1	NaN	-10	1	0.8212890625
276.1845703125	0.00833333333333333	1	30	-12	1	0.5009765625
279.1845703125	0.00833333333333333	1	NaN	8	2	0.765625
282.2509765625	0.00833333333333333	1	NaN	7	2	0.634765625
285.443359375	0.00833333333333333	1	NaN	6	2	0.6904296875
288.4013671875	0.00833333333333333	1	NaN	5	2	0.7490234375
291.201171875	0.00833333333333333	1	-30	-11	1	2.4931640625
295.951171875	0.00833333333333333	1	NaN	-9	1	0.6240234375
299.076171875	0.00833333333333333	1	-30	-10	1	0.8662109375
302.333984375	0.00833333333333333	1	NaN	-8	1	0.5849609375
305.025390625	0.00833333333333333	1	-30	12	2	0.677734375
307.80078125	0.00833333333333333	1	30	-11	1	0.55078125
310.484375	0.00833333333333333	1	-30	-9	1	1.0107421875
313.7919921875	0.00833333333333333	1	NaN	-7	1	0.71875
316.6591796875	0.00833333333333333	1	-30	-8	1	0.732421875
319.5009765625	0.00833333333333333	1	NaN	-6	1	0.7626953125
322.7001953125	0.00833333333333333	1	30	11	2	0.8271484375
325.8505859375	0.00833333333333333	1	-30	-7	2	0.7890625
328.80078125	0.00833333333333333	1	30	10	1	4.7275390625
335.900390625	0.00833333333333333	1	NaN	4	2	0.8671875
338.92578125	0.00833333333333333	1	NaN	-5	1	0.76171875
342.1494140625	0.00833333333333333	1	30	11	2	1.0107421875
345.2666015625	0.00833333333333333	1	30	-10	1	0.7177734375
348.3583984375	0.00833333333333333	1	-30	-8	1	1.2021484375
351.6083984375	0.00833333333333333	1	NaN	-4	1	0.6396484375
354.650390625	0.00833333333333333	1	-30	-7	1	1.341796875
358.224609375	0.00833333333333333	1	NaN	3	1	2.0556640625
362.349609375	0.00833333333333333	1	-30	11	2	0.6025390625
365.2080078125	0.00833333333333333	1	NaN	-3	1	0.7685546875
368.150390625	0.00833333333333333	1	30	-9	1	0.5625
370.7919921875	0.00833333333333333	1	30	10	2	1.14453125
374.31640625	0.00833333333333333	1	NaN	4	2	1.052734375
377.5	0.00833333333333333	1	NaN	-2	1	0.7177734375
380.666015625	0.00833333333333333	1	NaN	-1	1	0.6875
383.3994140625	0.00833333333333333	1	NaN	3	2	2.001953125
387.625	0.00833333333333333	1	-30	10	2	0.568359375
390.3486328125	0.00833333333333333	1	-30	-6	1	3.052734375
395.533203125	0.00833333333333333	1	-30	-5	2	1.244140625
399.1748046875	0.00833333333333333	1	30	-8	1	0.5546875
401.94921875	0.00833333333333333	1	30	-7	1	0.5966796875
404.6494140625	0.00833333333333333	1	-30	9	2	0.6884765625
407.9072265625	0.00833333333333333	1	NaN	2	1	1.0712890625
410.9990234375	0.00833333333333333	1	30	-6	1	0.5556640625
413.69921875	0.00833333333333333	1	NaN	3	2	1.03125
417.2236328125	0.00833333333333333	1	-30	8	2	0.5390625
419.8828125	0.00833333333333333	1	30	-5	1	0.5439453125
422.923828125	0.00833333333333333	1	-30	-6	1	0.9990234375
426.20703125	0.00833333333333333	1	-30	-5	1	0.68359375
428.9228515625	0.00833333333333333	1	30	9	2	1
432.3154296875	0.00833333333333333	1	30	8	2	0.8076171875
435.3984375	0.00833333333333333	1	NaN	2	1	1.31640625
438.9990234375	0.00833333333333333	1	30	-4	1	0.6044921875
441.7568359375	0.00833333333333333	1	-30	7	2	0.4541015625
501.6650390625	0.00833333333333333	1	-30	-4	2	0.900390625
505.0732421875	0.00833333333333333	1	-30	6	2	0.5078125
507.8974609375	0.00833333333333333	1	30	7	2	0.748046875
513.1142578125	0.00833333333333333	1	NaN	0	1	1.69140625
517.064453125	0.00833333333333333	1	-30	-5	2	1.357421875
520.873046875	0.00833333333333333	1	30	-3	1	0.6923828125
523.6728515625	0.00833333333333333	1	30	6	2	0.9326171875
526.98046875	0.00833333333333333	1	-30	-6	1	1.185546875
530.22265625	0.00833333333333333	1	30	-2	1	0.7119140625
533.2724609375	0.00833333333333333	1	30	5	1	3.40625
538.7470703125	0.00833333333333333	1	30	6	2	0.947265625
541.921875	0.00833333333333333	1	30	5	2	1.3564453125
545.546875	0.00833333333333333	1	NaN	3	2	3.267578125
551.3134765625	0.00833333333333333	1	NaN	2	2	2.0615234375
555.580078125	0.00833333333333333	1	NaN	1	1	2.8984375
561.0634765625	0.00833333333333333	1	30	4	2	1.4638671875
564.705078125	0.00833333333333333	1	NaN	2	2	1.26171875
568.2216796875	0.00833333333333333	1	30	3	2	3.0654296875
573.6552734375	0.00833333333333333	1	NaN	1	1	0.9765625
576.8134765625	0.00833333333333333	1	30	-1	1	0.6982421875
579.8134765625	0.00833333333333333	1	30	0	1	0.5537109375
582.763671875	0.00833333333333333	1	30	2	1	0.9482421875
585.896484375	0.00833333333333333	1	30	3	1	1.19140625
589.4970703125	0.00833333333333333	1	NaN	2	1	0.86328125
592.830078125	0.00833333333333333	1	30	1	1	0.642578125
595.978515625	0.00833333333333333	1	-30	5	2	0.7099609375
598.763671875	0.00833333333333333	1	NaN	3	2	1.8525390625
602.86328125	0.00833333333333333	1	30	4	2	2.017578125
607.4287109375	0.00833333333333333	1	-30	4	2	0.740234375
610.3466796875	0.00833333333333333	1	30	2	1	1.349609375
613.8046875	0.00833333333333333	1	30	3	1	1.5556640625
617.9462890625	0.00833333333333333	1	-30	-5	1	0.822265625
620.8544921875	0.00833333333333333	1	30	3	1	1.9150390625
625.11328125	0.00833333333333333	1	-30	3	2	0.65625
628.3046875	0.00833333333333333	1	30	4	2	2.064453125
632.9130859375	0.00833333333333333	1	NaN	1	1	2.6806640625
637.8115234375	0.00833333333333333	1	NaN	2	2	2.7177734375
642.6044921875	0.00833333333333333	1	-30	-4	2	1.708984375
646.8701171875	0.00833333333333333	1	-30	2	2	0.587890625
649.7294921875	0.00833333333333333	1	-30	-5	1	1.80078125
654.0703125	0.00833333333333333	1	-30	1	2	0.66796875
657.2705078125	0.00833333333333333	1	-30	-4	1	2.779296875
662.1787109375	0.00833333333333333	1	NaN	1	1	3.19921875
667.7451171875	0.00833333333333333	1	-30	-3	1	2.5693359375
672.595703125	0.00833333333333333	1	-30	-2	2	0.86328125
675.779296875	0.00833333333333333	1	30	4	1	3.15234375
681.470703125	0.00833333333333333	1	NaN	2	2	0.8525390625
684.63671875	0.00833333333333333	1	30	5	2	1.0380859375
687.953125	0.00833333333333333	1	NaN	2	2	1.40234375
691.6455078125	0.00833333333333333	1	-30	0	2	0.669921875
694.544921875	0.00833333333333333	1	NaN	1	2	0.73046875
697.4609375	0.00833333333333333	1	-30	-3	2	0.990234375
701.0107421875	0.00833333333333333	1	-30	-1	2	0.5927734375
703.76171875	0.00833333333333333	1	-30	-4	1	1.466796875
707.76171875	0.00833333333333333	1	NaN	0	2	2.2421875
712.26171875	0.00833333333333333	1	30	3	2	2.478515625
717.2197265625	0.00833333333333333	1	-30	-2	2	0.6884765625
720.0947265625	0.00833333333333333	1	-30	-3	1	1.7734375
723.919921875	0.00833333333333333	1	30	2	2	1.7412109375
727.869140625	0.00833333333333333	1	NaN	-1	1	1.6875
731.6767578125	0.00833333333333333	1	NaN	0	1	1.8076171875
735.818359375	0.00833333333333333	1	30	1	2	2.9384765625
741.2109375	0.00833333333333333	1	-30	-2	1	1.2978515625
744.6279296875	0.00833333333333333	1	-30	-1	1	1.3134765625
748.4521484375	0.00833333333333333	1	30	0	2	1.3125
752.2275390625	0.00833333333333333	1	NaN	1	1	1.9619140625
756.4775390625	0.00833333333333333	1	30	-1	2	0.751953125
759.501953125	0.00833333333333333	1	NaN	2	2	1.7353515625
763.802734375	0.00833333333333333	1	NaN	1	2	2.2666015625
768.2275390625	0.00833333333333333	1	-30	0	1	1.001953125
771.384765625	0.00833333333333333	1	NaN	0	1	1.3408203125
774.84375	0.00833333333333333	1	NaN	1	1	1.818359375
778.859375	0.00833333333333333	1	NaN	2	2	0.8984375
782.27734375	0.00833333333333333	1	NaN	1	1	0.80078125
785.34375	0.00833333333333333	1	-30	1	1	1.3828125
789.1767578125	0.00833333333333333	1	NaN	2	2	2.7021484375
794.517578125	0.00833333333333333	1	30	-2	2	1.953125
799.0009765625	0.00833333333333333	1	NaN	1	1	0.9736328125
869.484375	0.00833333333333333	1	30	-3	1	1.0361328125
872.6259765625	0.00833333333333333	1	-30	2	2	0.623046875
875.6591796875	0.00833333333333333	1	30	-2	1	0.669921875
878.3837890625	0.00833333333333333	1	30	-1	1	0.529296875
881.4580078125	0.00833333333333333	1	-30	1	2	0.5673828125
884.4169921875	0.00833333333333333	1	30	0	1	0.560546875
887.083984375	0.00833333333333333	1	-30	0	2	0.4775390625
889.6923828125	0.00833333333333333	1	30	1	1	0.4775390625
892.2841796875	0.00833333333333333	1	30	2	1	0.525390625
895.0751953125	0.00833333333333333	1	30	3	1	0.57421875
898.0087890625	0.00833333333333333	1	30	4	1	0.7607421875
901.216796875	0.00833333333333333	1	-30	-1	2	0.609375
904.2421875	0.00833333333333333	1	-30	-2	2	0.8076171875
907.158203125	0.00833333333333333	1	30	5	2	0.7080078125
910.2587890625	0.00833333333333333	1	-30	-3	2	0.7998046875
913.5576171875	0.00833333333333333	1	-30	-4	2	0.5888671875
916.2255859375	0.00833333333333333	1	30	4	2	0.6171875
918.8916015625	0.00833333333333333	1	30	3	1	2.4951171875
923.6572265625	0.00833333333333333	1	-30	-5	1	0.841796875
926.875	0.00833333333333333	1	30	4	1	1.9599609375
931.2998046875	0.00833333333333333	1	30	5	1	1.0234375
934.3330078125	0.00833333333333333	1	-30	-4	1	1.0302734375
937.7919921875	0.00833333333333333	1	30	6	2	1.01953125
941.2666015625	0.00833333333333333	1	-30	-3	2	0.9130859375
944.4501953125	0.00833333333333333	1	30	5	2	0.6650390625
947.7001953125	0.00833333333333333	1	-30	-4	2	0.8232421875
950.732421875	0.00833333333333333	1	30	4	2	0.7119140625
953.625	0.00833333333333333	1	-30	-5	2	0.6103515625
956.365234375	0.00833333333333333	1	30	3	1	0.9267578125
959.5576171875	0.00833333333333333	1	30	4	1	0.7822265625
962.908203125	0.00833333333333333	1	-30	-6	1	0.6640625
965.857421875	0.00833333333333333	1	30	5	1	0.6025390625
968.82421875	0.00833333333333333	1	30	6	2	0.7880859375
971.7412109375	0.00833333333333333	1	-30	-5	1	0.783203125
974.81640625	0.00833333333333333	1	-30	-4	1	0.65234375
977.791015625	0.00833333333333333	1	-30	-3	1	0.765625
980.6904296875	0.00833333333333333	1	-30	-2	1	0.578125
983.71484375	0.00833333333333333	1	-30	-1	2	0.578125
986.44921875	0.00833333333333333	1	-30	-2	2	0.771484375
989.5908203125	0.00833333333333333	1	-30	-3	2	0.56640625
992.44921875	0.00833333333333333	1	-30	-4	2	0.6435546875
995.2568359375	0.00833333333333333	1	-30	-5	2	1.2119140625
998.83203125	0.00833333333333333	1	-30	-6	1	0.9814453125
1002.1572265625	0.00833333333333333	1	-30	-5	1	0.7275390625
1005.20703125	0.00833333333333333	1	-30	-4	1	0.6865234375
1008.3818359375	0.00833333333333333	1	-30	-3	1	0.83203125
1011.58984375	0.00833333333333333	1	-30	-2	1	0.775390625
1014.8154296875	0.00833333333333333	1	-30	-1	1	0.7578125
1017.70703125	0.00833333333333333	1	-30	0	2	1.05078125
1021.015625	0.00833333333333333	1	-30	-1	2	0.6787109375
1023.765625	0.00833333333333333	1	-30	-2	2	0.6640625
1026.6240234375	0.00833333333333333	1	-30	-3	1	0.7255859375
1029.806640625	0.00833333333333333	1	-30	-3.16666666666667	1	1.0634765625
1033.115234375	0.00833333333333333	1	NaN	1.08333333333333	1	0.5947265625
1035.7314453125	0.00833333333333333	1	NaN	1.20833333333333	2	0.72265625
1038.6572265625	0.00833333333333333	1	30	3.25	2	0.7568359375
1041.8076171875	0.00833333333333333	1	NaN	1.08333333333333	2	1.3427734375
1045.4306640625	0.00833333333333333	1	NaN	0.958333333333333	2	1.34375
1048.9404296875	0.00833333333333333	1	NaN	2.08333333333333	2	0.6103515625
1051.931640625	0.00833333333333333	1	30	4.25	2	2.0908203125
1056.373046875	0.00833333333333333	1	-30	-4.16666666666667	1	4.4501953125
1063.2978515625	0.00833333333333333	1	-30	-4.04166666666667	1	3.0849609375
1068.46484375	0.00833333333333333	1	-30	-3.04166666666667	1	2.5830078125
1073.1728515625	0.00833333333333333	1	NaN	1.95833333333333	2	0.8662109375
1076.3896484375	0.00833333333333333	1	30	3.125	1	0.7138671875
1079.2314453125	0.00833333333333333	1	-30	-3.91666666666667	1	2.3125
1083.8642578125	0.00833333333333333	1	-30	-3.79166666666667	1	0.7431640625
1086.7802734375	0.00833333333333333	1	NaN	1.83333333333333	2	0.779296875
1089.98046875	0.00833333333333333	1	NaN	1.70833333333333	2	0.6513671875
1093.1806640625	0.00833333333333333	1	30	3.25	1	0.763671875
1096.2138671875	0.00833333333333333	1	30	4.125	2	0.7138671875
1099.3720703125	0.00833333333333333	1	30	4	2	0.6845703125
1102.263671875	0.00833333333333333	1	-30	-2.91666666666667	2	0.640625
1105.380859375	0.00833333333333333	1	NaN	1.58333333333333	2	0.7392578125
1108.6806640625	0.00833333333333333	1	-30	-3.04166666666667	1	1.83203125
1112.6806640625	0.00833333333333333	1	30	3.875	2	2.064453125
1117.130859375	0.00833333333333333	1	NaN	0.833333333333333	2	0.7744140625
1120.1474609375	0.00833333333333333	1	-30	-3.66666666666667	1	1.845703125
1124.1884765625	0.00833333333333333	1	30	3.75	2	2.46875
1128.98046875	0.00833333333333333	1	30	3.375	2	1.5009765625
1132.697265625	0.00833333333333333	1	NaN	0.708333333333333	1	1.48046875
1136.7216796875	0.00833333333333333	1	NaN	1.45833333333333	1	2.6875
1141.580078125	0.00833333333333333	1	NaN	1.58333333333333	2	0.7900390625
1144.705078125	0.00833333333333333	1	-30	-3.54166666666667	1	1.6162109375
1148.61328125	0.00833333333333333	1	30	3.625	2	2.140625
1153.1630859375	0.00833333333333333	1	30	3.5	1	3.1591796875
1158.546875	0.00833333333333333	1	NaN	0.833333333333333	2	1.015625
1162.1044921875	0.00833333333333333	1	30	3.625	2	0.7939453125
1165.396484375	0.00833333333333333	1	NaN	1.45833333333333	2	0.837890625
1168.521484375	0.00833333333333333	1	30	3.5	2	1.2490234375
1292.4697265625	0.00833333333333333	1	NaN	1.33333333333333	1	1.0009765625
1295.76953125	0.00833333333333333	1	-30	-2.91666666666667	2	0.708984375
1298.794921875	0.00833333333333333	1	30	3.375	2	2.763671875
1303.986328125	0.00833333333333333	1	30	3.25	1	0.7001953125
1307.15234375	0.00833333333333333	1	30	3.375	1	1.654296875
1311.39453125	0.00833333333333333	1	NaN	0.708333333333333	2	1.373046875
1315.060546875	0.00833333333333333	1	-30	-3.41666666666667	2	0.5947265625
1317.802734375	0.00833333333333333	1	NaN	1.45833333333333	2	0.6689453125
1320.736328125	0.00833333333333333	1	30	3.5	2	0.7587890625
1323.861328125	0.00833333333333333	1	NaN	0.583333333333333	1	1.2099609375
1327.65234375	0.00833333333333333	1	30	3.25	2	1.2919921875
1331.2529296875	0.00833333333333333	1	30	3.375	2	0.7705078125
1334.568359375	0.00833333333333333	1	NaN	0.708333333333333	1	1.0390625
1338.0263671875	0.00833333333333333	1	NaN	0.833333333333333	1	1.7578125
1342.09375	0.00833333333333333	1	30	3.125	1	1.21875
1345.634765625	0.00833333333333333	1	NaN	0.958333333333333	1	0.9169921875
1349.126953125	0.00833333333333333	1	NaN	1.08333333333333	1	1.6015625
1352.9775390625	0.00833333333333333	1	NaN	1.33333333333333	2	0.71875
1356.0517578125	0.00833333333333333	1	-30	-3.04166666666667	2	0.61328125
1358.869140625	0.00833333333333333	1	-30	-3.16666666666667	2	1.0595703125
1362.2265625	0.00833333333333333	1	-30	-3.54166666666667	2	0.6943359375
1365.5009765625	0.00833333333333333	1	NaN	1.20833333333333	1	1.412109375
1369.0439453125	0.00833333333333333	1	-30	-3.66666666666667	2	2.4130859375
1373.96875	0.00833333333333333	1	30	3.25	1	1.1923828125
1377.6767578125	0.00833333333333333	1	30	3.375	1	0.7646484375
1380.6103515625	0.00833333333333333	1	30	3.25	1	0.791015625
1383.71875	0.00833333333333333	1	30	3.375	1	0.955078125
1387.0927734375	0.00833333333333333	1	-30	-3.79166666666667	1	1.7490234375
1391.068359375	0.00833333333333333	1	-30	-3.29166666666667	1	0.9013671875
1394.1181640625	0.00833333333333333	1	NaN	1.20833333333333	2	1.7958984375
1398.3349609375	0.00833333333333333	1	NaN	1.08333333333333	2	1.8349609375
1402.3427734375	0.00833333333333333	1	-30	-3.16666666666667	2	1.458984375
1406.1259765625	0.00833333333333333	1	NaN	1.33333333333333	1	1.251953125
1409.8681640625	0.00833333333333333	1	NaN	0.958333333333333	1	1.7744140625
1413.8427734375	0.00833333333333333	1	30	3.5	1	1.255859375
1417.4091796875	0.00833333333333333	1	30	3.5	1	0.7373046875
1420.583984375	0.00833333333333333	1	NaN	1.45833333333333	1	0.6025390625
1423.4169921875	0.00833333333333333	1	-30	-3.29166666666667	2	1.09765625
1427.009765625	0.00833333333333333	1	NaN	1.08333333333333	1	0.7451171875
1430.025390625	0.00833333333333333	1	-30	-3.66666666666667	1	1.033203125
1433.30078125	0.00833333333333333	1	NaN	1.20833333333333	2	0.814453125
1436.7421875	0.00833333333333333	1	NaN	1.58333333333333	2	0.693359375
1439.9423828125	0.00833333333333333	1	NaN	1.45833333333333	1	0.9169921875
1443.4091796875	0.00833333333333333	1	30	3.625	2	1.1943359375
1446.8505859375	0.00833333333333333	1	30	3.625	2	0.7294921875
1449.892578125	0.00833333333333333	1	-30	-3.54166666666667	2	1.119140625
1453.2587890625	0.00833333333333333	1	NaN	1.08333333333333	2	0.7529296875
1456.3759765625	0.00833333333333333	1	NaN	1.58333333333333	2	0.732421875
1459.6162109375	0.00833333333333333	1	30	3.5	2	0.7080078125
1462.6669921875	0.00833333333333333	1	NaN	0.958333333333333	2	0.5771484375
1465.466796875	0.00833333333333333	1	NaN	0.833333333333333	1	1.9931640625
1469.94140625	0.00833333333333333	1	-30	-3.41666666666667	2	0.791015625
1473.18359375	0.00833333333333333	1	NaN	0.958333333333333	2	0.63671875
1476.216796875	0.00833333333333333	1	NaN	1.45833333333333	1	0.7314453125
1479.1171875	0.00833333333333333	1	NaN	1.58333333333333	1	0.8955078125
1482.3173828125	0.00833333333333333	1	-30	-3.66666666666667	1	1.568359375
1486	0.00833333333333333	1	-30	-3.54166666666667	2	0.9169921875
1489.5087890625	0.00833333333333333	1	30	3.375	2	0.8642578125
1492.55859375	0.00833333333333333	1	30	3.5	1	1.55859375
1496.6328125	0.00833333333333333	1	30	3.25	1	1.8203125
1500.8583984375	0.00833333333333333	1	30	3.375	1	1.1396484375
1504.2744140625	0.00833333333333333	1	NaN	0.833333333333333	2	3.2509765625
1509.75	0.00833333333333333	1	NaN	0.708333333333333	1	0.5439453125
1512.75	0.00833333333333333	1	30	3.625	1	0.8876953125
1516.1748046875	0.00833333333333333	1	-30	-3.54166666666667	2	1.0703125
1519.5078125	0.00833333333333333	1	30	3.75	1	0.849609375
1522.5576171875	0.00833333333333333	1	NaN	0.833333333333333	1	1.9921875
1526.71484375	0.00833333333333333	1	30	3.875	1	0.71484375
1529.6240234375	0.00833333333333333	1	30	4	1	1.89453125
1533.8408203125	0.00833333333333333	1	NaN	1.70833333333333	2	0.6689453125
1536.849609375	0.00833333333333333	1	-30	-3.66666666666667	2	0.6689453125
1539.69140625	0.00833333333333333	1	-30	-3.79166666666667	2	0.8994140625
1543.1494140625	0.00833333333333333	1	30	4.125	1	1.017578125
1546.3408203125	0.00833333333333333	1	-30	-3.66666666666667	2	0.6416015625
1549.4482421875	0.00833333333333333	1	-30	-3.79166666666667	2	0.7666015625
1552.58203125	0.00833333333333333	1	NaN	0.958333333333333	2	0.5126953125
1555.640625	0.00833333333333333	1	NaN	1.58333333333333	2	0.5341796875
1558.298828125	0.00833333333333333	1	30	3.5	2	0.7646484375
1561.482421875	0.00833333333333333	1	30	3.375	2	0.5810546875
1564.490234375	0.00833333333333333	1	-30	-3.91666666666667	2	0.525390625
1567.4658203125	0.00833333333333333	1	NaN	0.833333333333333	2	0.533203125
1570.0986328125	0.00833333333333333	1	-30	-3.91666666666667	2	0.5166015625
1572.9404296875	0.00833333333333333	1	30	4.25	2	0.5634765625
1576.0400390625	0.00833333333333333	1	30	4.125	2	0.5439453125
1579.1142578125	0.00833333333333333	1	NaN	1.45833333333333	2	0.453125
1581.9736328125	0.00833333333333333	1	NaN	0.708333333333333	2	0.673828125
1585.240234375	0.00833333333333333	1	-30	-4.04166666666667	1	0.85546875
1588.33203125	0.00833333333333333	1	-30	-3.91666666666667	1	0.68359375
1591.45703125	0.00833333333333333	1	NaN	0.583333333333333	1	1.6953125
1851.736328125	0.00833333333333333	1	-30	-4.04166666666667	2	0.83984375
1854.744140625	0.00833333333333333	1	-30	-3.79166666666667	2	0.49609375
1857.7275390625	0.00833333333333333	1	-30	-4.16666666666667	2	0.4814453125
1860.7197265625	0.00833333333333333	1	NaN	0.708333333333333	2	0.6015625
1863.435546875	0.00833333333333333	1	-30	-3.91666666666667	2	0.4775390625
1866.34375	0.00833333333333333	1	-30	-4.29166666666667	2	0.6728515625
1869.2861328125	0.00833333333333333	1	NaN	0.583333333333333	1	2.5947265625
1874.435546875	0.00833333333333333	1	-30	-4.04166666666667	2	0.6298828125
1877.5859375	0.00833333333333333	1	30	4	1	0.87109375
1881.0361328125	0.00833333333333333	1	30	4.125	2	1.837890625
1885.2109375	0.00833333333333333	1	NaN	1.33333333333333	2	0.6787109375
1888.2763671875	0.00833333333333333	1	NaN	0.708333333333333	1	1.1328125
1891.9853515625	0.00833333333333333	1	NaN	1.20833333333333	2	0.7685546875
1895.244140625	0.00833333333333333	1	NaN	1.08333333333333	1	0.7255859375
1898.21875	0.00833333333333333	1	NaN	1.20833333333333	2	0.767578125
1901.619140625	0.00833333333333333	1	30	4	1	0.6943359375
1904.8603515625	0.00833333333333333	1	NaN	0.833333333333333	2	0.9814453125
1908.1767578125	0.00833333333333333	1	NaN	0.708333333333333	1	0.6337890625
1911.3017578125	0.00833333333333333	1	-30	-4.41666666666667	2	0.6123046875
1914.509765625	0.00833333333333333	1	-30	-4.54166666666667	2	0.8447265625
1917.5595703125	0.00833333333333333	1	NaN	1.08333333333333	2	0.5712890625
1920.685546875	0.00833333333333333	1	30	4.125	2	0.708984375
1923.8935546875	0.00833333333333333	1	-30	-4.16666666666667	2	0.548828125
1926.9853515625	0.00833333333333333	1	30	3.25	2	0.537109375
1929.91796875	0.00833333333333333	1	-30	-4.66666666666667	2	0.5810546875
1932.751953125	0.00833333333333333	1	-30	-4.79166666666667	2	0.6591796875
1935.8349609375	0.00833333333333333	1	-30	-4.91666666666667	2	0.4482421875
1938.650390625	0.00833333333333333	1	NaN	0.958333333333333	2	0.5126953125
1941.5517578125	0.00833333333333333	1	30	3.125	1	0.939453125
1944.701171875	0.00833333333333333	1	-30	-5.04166666666667	2	0.5986328125
1947.576171875	0.00833333333333333	1	-30	-4.29166666666667	2	0.603515625
1950.7099609375	0.00833333333333333	1	30	3.25	1	1.349609375
1954.67578125	0.00833333333333333	1	NaN	0.833333333333333	2	0.5673828125
1957.767578125	0.00833333333333333	1	-30	-5.16666666666667	2	0.8046875
1961.2255859375	0.00833333333333333	1	-30	-5.29166666666667	2	1.5947265625
1965.275390625	0.00833333333333333	1	NaN	0.708333333333333	1	0.9453125
1968.7255859375	0.00833333333333333	1	-30	-5.41666666666667	1	1.2705078125
1972.16796875	0.00833333333333333	1	-30	-5.29166666666667	1	0.66015625
1975.025390625	0.00833333333333333	1	-30	-5.16666666666667	1	0.6669921875
1978.201171875	0.00833333333333333	1	-30	-4.41666666666667	2	0.626953125
1981.392578125	0.00833333333333333	1	30	3.375	2	0.66015625
1984.4580078125	0.00833333333333333	1	-30	-4.54166666666667	2	0.8427734375
1987.642578125	0.00833333333333333	1	-30	-5.04166666666667	1	0.666015625
1990.68359375	0.00833333333333333	1	30	3.25	2	0.705078125
1993.650390625	0.00833333333333333	1	30	3.125	2	0.833984375
1996.80078125	0.00833333333333333	1	NaN	0.833333333333333	2	0.66015625
1999.7841796875	0.00833333333333333	1	-30	-4.91666666666667	2	0.5244140625
2002.775390625	0.00833333333333333	1	30	3	2	0.5576171875
2005.900390625	0.00833333333333333	1	-30	-5.04166666666667	2	0.552734375
2008.7998046875	0.00833333333333333	1	30	4	2	0.5419921875
2011.69140625	0.00833333333333333	1	30	3.875	2	0.490234375
2014.4833984375	0.00833333333333333	1	-30	-4.66666666666667	2	0.666015625
2017.7587890625	0.00833333333333333	1	-30	-4.79166666666667	1	0.8544921875
2020.890625	0.00833333333333333	1	NaN	0.708333333333333	2	0.5791015625
2023.8671875	0.00833333333333333	1	30	2.875	1	0.978515625
2027.4501953125	0.00833333333333333	1	30	3	2	1.083984375
2030.775390625	0.00833333333333333	1	-30	-4.66666666666667	1	0.87890625
2033.7998046875	0.00833333333333333	1	NaN	0.583333333333333	1	1.142578125
2037.1669921875	0.00833333333333333	1	30	2.875	2	1.095703125
2040.7666015625	0.00833333333333333	1	-30	-5.16666666666667	1	1.5439453125
2044.8916015625	0.00833333333333333	1	-30	-5.04166666666667	1	0.8271484375
2047.923828125	0.00833333333333333	1	30	3.75	2	0.8349609375
2051.1083984375	0.00833333333333333	1	NaN	0.708333333333333	2	0.5625
2054.2744140625	0.00833333333333333	1	30	3.625	2	1.484375
2058.2080078125	0.00833333333333333	1	30	3.5	2	0.85546875
2061.548828125	0.00833333333333333	1	30	2.75	1	0.810546875
2064.56640625	0.00833333333333333	1	-30	-4.91666666666667	1	0.888671875
2067.8662109375	0.00833333333333333	1	-30	-4.54166666666667	1	0.708984375
2070.7080078125	0.00833333333333333	1	30	2.875	1	1.099609375
2074.3408203125	0.00833333333333333	1	30	3.375	1	0.642578125
2077.4736328125	0.00833333333333333	1	30	3.5	1	0.57421875
2080.58203125	0.00833333333333333	1	30	3.625	2	0.609375
2083.4814453125	0.00833333333333333	1	30	3	1	1.0546875
2086.681640625	0.00833333333333333	1	-30	-4.41666666666667	1	1.1904296875
2090.048828125	0.00833333333333333	1	-30	-4.29166666666667	2	0.8310546875
2093.1904296875	0.00833333333333333	1	30	3.125	2	1.41015625
2097.2568359375	0.00833333333333333	1	30	3	2	0.7431640625
2100.2734375	0.00833333333333333	1	-30	-4.41666666666667	2	2.5751953125
2105.2822265625	0.00833333333333333	1	30	2.875	1	0.677734375
2108.4658203125	0.00833333333333333	1	30	3.5	2	0.87890625
2111.6474609375	0.00833333333333333	1	30	3.375	2	0.689453125
2114.697265625	0.00833333333333333	1	-30	-4.79166666666667	1	0.83984375
2118.0234375	0.00833333333333333	1	-30	-4.66666666666667	1	0.8017578125
2121.0654296875	0.00833333333333333	1	-30	-4.54166666666667	2	0.7353515625
2124.22265625	0.00833333333333333	1	30	3.25	1	0.658203125
2126.9736328125	0.00833333333333333	1	30	3.375	2	0.771484375
2130.3486328125	0.00833333333333333	1	-30	-4.54166666666667	2	0.892578125
2133.5556640625	0.00833333333333333	1	-30	-4.66666666666667	1	1.1982421875
2136.865234375	0.00833333333333333	1	-30	-4.66666666666667	1	0.65625
2139.6982421875	0.00833333333333333	1	-30	-4.54166666666667	1	0.7119140625
2142.6396484375	0.00833333333333333	1	-30	-4.54166666666667	1	0.666015625
2145.7314453125	0.00833333333333333	1	-30	-4.41666666666667	1	0.734375
2148.8232421875	0.00833333333333333	1	-30	-4.29166666666667	1	1.1552734375
2201.005859375	0.00833333333333333	1	30	3.25	2	1.509765625
2204.8642578125	0.00833333333333333	1	30	3.125	1	6.9716796875
2214.3056640625	0.00833333333333333	1	-30	-4.41666666666667	2	0.7138671875
2217.546875	0.00833333333333333	1	-30	-4.54166666666667	2	0.7294921875
2220.796875	0.00833333333333333	1	-30	-4.66666666666667	2	0.8310546875
2223.7890625	0.00833333333333333	1	-30	-4.79166666666667	2	0.7275390625
2226.86328125	0.00833333333333333	1	-30	-4.91666666666667	2	0.541015625
2229.8798828125	0.00833333333333333	1	-30	-4.16666666666667	2	0.556640625
2232.6640625	0.00833333333333333	1	-30	-5.04166666666667	2	0.6201171875
2235.6884765625	0.00833333333333333	1	-30	-5.16666666666667	2	0.5
2238.330078125	0.00833333333333333	1	-30	-5.29166666666667	1	0.8427734375
2241.35546875	0.00833333333333333	1	-30	-5.16666666666667	1	1.3134765625
2245.0634765625	0.00833333333333333	1	-30	-4.29166666666667	2	0.59765625
2248.11328125	0.00833333333333333	1	-30	-5.04166666666667	2	0.5478515625
2251.138671875	0.00833333333333333	1	-30	-5.16666666666667	2	0.71484375
2254.3134765625	0.00833333333333333	1	-30	-4.41666666666667	2	0.6357421875
2257.421875	0.00833333333333333	1	-30	-4.54166666666667	2	0.4716796875
2260.271484375	0.00833333333333333	1	-30	-4.66666666666667	1	0.830078125
2263.1630859375	0.00833333333333333	1	-30	-4.54166666666667	2	1.314453125
2266.6298828125	0.00833333333333333	1	-30	-5.29166666666667	2	0.51171875
2270.3544921875	0.00833333333333333	1	-30	-5.41666666666667	1	0.9228515625
2273.646484375	0.00833333333333333	1	-30	-4.66666666666667	1	1.20703125
2276.962890625	0.00833333333333333	1	-30	-4.54166666666667	1	1.4345703125
2280.845703125	0.00833333333333333	1	-30	-4.41666666666667	1	1.240234375
2284.345703125	0.00833333333333333	1	-30	-4.29166666666667	2	0.8203125
2287.6630859375	0.00833333333333333	1	-30	-5.29166666666667	1	0.6708984375
2290.75390625	0.00833333333333333	1	-30	-5.16666666666667	1	0.7890625
2294.0205078125	0.00833333333333333	1	-30	-5.04166666666667	1	0.6416015625
2297.2373046875	0.00833333333333333	1	-30	-4.91666666666667	1	2.59375
2302.3125	0.00833333333333333	1	-30	-4.79166666666667	1	0.6142578125
2305.37890625	0.00833333333333333	1	-30	-4.66666666666667	2	2.6201171875
2310.337890625	0.00833333333333333	0	30	3.4375	1	0.6767578125
2313.4130859375	0.00833333333333333	0	-30	-4.67291666666667	1	0.673828125
2316.287109375	0.00833333333333333	0	-30	-4.67291666666667	1	0.6396484375
2319.345703125	0.00833333333333333	0	30	3.4375	1	0.9736328125
2322.61328125	0.00833333333333333	0	-30	-4.67291666666667	1	0.6748046875
2325.537109375	0.00833333333333333	0	30	3.4375	2	3.662109375
2331.5791015625	0.00833333333333333	0	-30	-4.67291666666667	2	0.8203125
2334.7783203125	0.00833333333333333	0	30	3.4375	2	0.9892578125
2338.1787109375	0.00833333333333333	0	-30	-4.67291666666667	2	1.3173828125
2341.794921875	0.00833333333333333	0	30	3.4375	2	1.005859375
2345.2197265625	0.00833333333333333	0	-30	-4.67291666666667	2	1.0361328125
2348.6943359375	0.00833333333333333	0	-30	-4.67291666666667	1	0.986328125
2352.185546875	0.00833333333333333	0	-30	-4.67291666666667	2	0.990234375
2355.7275390625	0.00833333333333333	0	30	3.4375	2	1.0009765625
2359.2861328125	0.00833333333333333	0	30	3.4375	2	0.890625
2362.6025390625	0.00833333333333333	0	-30	-4.67291666666667	2	0.7587890625
2365.6025390625	0.00833333333333333	0	30	3.3125	2	0.7099609375
2368.736328125	0.00833333333333333	0	30	3.3125	2	1.208984375
2372.0703125	0.00833333333333333	0	-30	-4.67291666666667	2	1.07421875
2375.4443359375	0.00833333333333333	0	30	3.3125	2	0.61328125
2378.64453125	0.00833333333333333	0	-30	-4.67291666666667	1	0.95703125
2381.751953125	0.00833333333333333	0	30	3.3125	2	0.8251953125
2384.9951171875	0.00833333333333333	0	-30	-4.67291666666667	2	0.7900390625
2388.044921875	0.00833333333333333	0	30	3.3125	2	0.740234375
2391.0947265625	0.00833333333333333	0	30	3.1875	2	0.7548828125
2394.40234375	0.00833333333333333	0	-30	-4.67291666666667	2	0.7353515625
2397.2861328125	0.00833333333333333	0	-30	-4.67291666666667	2	0.7080078125
2400.435546875	0.00833333333333333	0	30	3.1875	2	0.89453125
2403.453125	0.00833333333333333	0	-30	-4.67291666666667	1	1.861328125
2407.802734375	0.00833333333333333	0	-30	-4.67291666666667	2	1.591796875
2411.576171875	0.00833333333333333	0	30	3.1875	2	2.3779296875
2416.4609375	0.00833333333333333	0	-30	-4.67291666666667	1	1.765625
2420.427734375	0.00833333333333333	0	-30	-4.67291666666667	1	0.87109375
2423.7109375	0.00833333333333333	0	30	3.1875	1	0.8271484375
2426.8935546875	0.00833333333333333	0	30	3.1875	2	1.0771484375
2430.1103515625	0.00833333333333333	0	30	3.1875	2	1.0283203125
2433.27734375	0.00833333333333333	0	-30	-4.67291666666667	1	1.013671875
2436.66796875	0.00833333333333333	0	-30	-4.67291666666667	1	1.2392578125
2440.2275390625	0.00833333333333333	0	-30	-4.67291666666667	1	0.951171875
2443.5439453125	0.00833333333333333	0	-30	-4.54791666666667	2	1.7236328125
2447.6357421875	0.00833333333333333	0	30	3.1875	1	2.0634765625
2452.1015625	0.00833333333333333	0	-30	-4.54791666666667	1	3.685546875
2457.8271484375	0.00833333333333333	0	30	3.1875	1	1.77734375
2462.1689453125	0.00833333333333333	0	30	3.1875	1	3.2509765625
2467.91015625	0.00833333333333333	0	30	3.1875	1	1.3974609375
2471.5927734375	0.00833333333333333	0	30	3.1875	1	2.69921875
2476.7265625	0.00833333333333333	0	30	3.3125	1	1.5498046875
2480.41796875	0.00833333333333333	0	-30	-4.54791666666667	2	1.74609375
2484.6513671875	0.00833333333333333	0	30	3.3125	1	4.8173828125
2491.80078125	0.00833333333333333	0	30	3.3125	1	0.8115234375
2494.958984375	0.00833333333333333	0	-30	-4.54791666666667	2	0.8779296875
2498.025390625	0.00833333333333333	0	30	3.3125	2	0.9951171875
2501.193359375	0.00833333333333333	0	30	3.3125	1	1.2119140625
2504.7255859375	0.00833333333333333	0	-30	-4.54791666666667	2	0.671875
2507.55859375	0.00833333333333333	0	30	3.3125	1	1.0146484375
2510.859375	0.00833333333333333	0	-30	-4.54791666666667	2	0.76171875
2513.9091796875	0.00833333333333333	0	30	3.3125	1	1.4482421875
2517.8330078125	0.00833333333333333	0	-30	-4.54791666666667	1	0.9404296875
2521.341796875	0.00833333333333333	0	-30	-4.54791666666667	2	0.8564453125
2524.849609375	0.00833333333333333	0	30	3.3125	2	4.1640625
2531.458984375	0.00833333333333333	0	-30	-4.54791666666667	2	0.71484375
2534.783203125	0.00833333333333333	0	-30	-4.54791666666667	2	0.958984375
2538.1337890625	0.00833333333333333	0	30	3.3125	2	0.9443359375
2541.400390625	0.00833333333333333	0	-30	-4.54791666666667	2	0.845703125
2544.7255859375	0.00833333333333333	0	-30	-4.54791666666667	2	0.640625
2547.5576171875	0.00833333333333333	0	-30	-4.67291666666667	2	0.712890625
2550.5009765625	0.00833333333333333	0	30	3.3125	2	0.76171875
2553.8671875	0.00833333333333333	0	30	3.3125	1	0.99609375
2557.1171875	0.00833333333333333	0	-30	-4.67291666666667	1	0.8818359375
2560.158203125	0.00833333333333333	0	-30	-4.67291666666667	1	0.7373046875
2563.1669921875	0.00833333333333333	0	30	3.3125	1	1.4638671875
2567.099609375	0.00833333333333333	0	-30	-4.67291666666667	1	0.923828125
2570.291015625	0.00833333333333333	0	30	3.3125	2	0.8125
2573.6826171875	0.00833333333333333	0	-30	-4.67291666666667	2	0.8056640625
2576.658203125	0.00833333333333333	0	-30	-4.67291666666667	1	0.8212890625
2579.9248046875	0.00833333333333333	0	30	3.3125	1	0.970703125
2583.1337890625	0.00833333333333333	0	-30	-4.67291666666667	2	0.849609375
2586.18359375	0.00833333333333333	0	30	3.3125	2	0.720703125
2589.490234375	0.00833333333333333	0	30	3.3125	1	1.4140625
2593.474609375	0.00833333333333333	0	30	3.3125	1	1.5009765625
2682.923828125	0.00833333333333333	0	-30	-4.67291666666667	2	1.0634765625
2686.2734375	0.00833333333333333	0	30	3.3125	2	2.3935546875
2690.8232421875	0.00833333333333333	0	30	3.3125	1	1.1796875
2694.1318359375	0.00833333333333333	0	30	3.3125	2	2.19921875
2698.7236328125	0.00833333333333333	0	30	3.3125	2	0.751953125
2701.96484375	0.00833333333333333	0	30	3.3125	1	1.87109375
2706.28125	0.00833333333333333	0	-30	-4.67291666666667	2	0.8583984375
2709.33984375	0.00833333333333333	0	30	3.3125	1	1.248046875
2712.9384765625	0.00833333333333333	0	-30	-4.67291666666667	1	0.7373046875
2716.1064453125	0.00833333333333333	0	30	3.3125	2	0.7939453125
2719.2060546875	0.00833333333333333	0	30	3.3125	2	0.837890625
2722.3974609375	0.00833333333333333	0	30	3.3125	1	1.1103515625
2725.98046875	0.00833333333333333	0	30	3.3125	1	0.7041015625
2729.1728515625	0.00833333333333333	0	-30	-4.67291666666667	2	0.927734375
2732.439453125	0.00833333333333333	0	-30	-4.67291666666667	1	0.94921875
2735.6142578125	0.00833333333333333	0	30	3.3125	2	0.92578125
2739.1474609375	0.00833333333333333	0	-30	-4.67291666666667	2	0.9453125
2742.6474609375	0.00833333333333333	0	-30	-4.67291666666667	1	1.26171875
2746.5390625	0.00833333333333333	0	30	3.3125	1	0.8740234375
2749.689453125	0.00833333333333333	0	30	3.3125	1	1.091796875
2753.005859375	0.00833333333333333	0	30	3.3125	1	0.783203125
2756.3974609375	0.00833333333333333	0	-30	-4.67291666666667	2	0.8798828125
2759.5888671875	0.00833333333333333	0	30	3.3125	1	3.3203125
2765.3310546875	0.00833333333333333	0	30	3.3125	1	1.890625
2769.73046875	0.00833333333333333	0	-30	-4.67291666666667	2	1.267578125
2773.4462890625	0.00833333333333333	0	30	3.4375	1	1.1435546875
2776.9892578125	0.00833333333333333	0	-30	-4.67291666666667	2	0.736328125
2779.888671875	0.00833333333333333	0	30	3.4375	1	1.4296875
2783.5390625	0.00833333333333333	0	30	3.4375	1	0.8349609375
2786.9384765625	0.00833333333333333	0	-30	-4.67291666666667	2	0.763671875
2790.23828125	0.00833333333333333	0	30	3.4375	2	0.6640625
2793.4296875	0.00833333333333333	0	-30	-4.67291666666667	1	1.15234375
2797.0888671875	0.00833333333333333	0	30	3.4375	2	0.8857421875
2800.263671875	0.00833333333333333	0	-30	-4.67291666666667	2	0.8544921875
2803.60546875	0.00833333333333333	0	30	3.4375	1	0.9453125
2807.0380859375	0.00833333333333333	0	-30	-4.67291666666667	2	1.80078125
2811.087890625	0.00833333333333333	0	30	3.4375	1	1.447265625
2814.771484375	0.00833333333333333	0	-30	-4.67291666666667	1	1.2119140625
2818.1953125	0.00833333333333333	0	30	3.4375	2	0.931640625
2821.4716796875	0.00833333333333333	0	30	3.4375	1	2.6796875
2826.470703125	0.00833333333333333	0	30	3.4375	2	1.0732421875
2829.9462890625	0.00833333333333333	0	30	3.4375	2	0.853515625
2833.0712890625	0.00833333333333333	0	30	3.4375	2	1.640625
2837.087890625	0.00833333333333333	0	30	3.4375	2	1.34375
2840.837890625	0.00833333333333333	0	30	3.4375	1	1.498046875
2844.61328125	0.00833333333333333	0	30	3.4375	2	0.9228515625
2847.962890625	0.00833333333333333	0	-30	-4.67291666666667	1	0.9892578125
2851.146484375	0.00833333333333333	0	30	3.4375	2	0.7255859375
2854.3623046875	0.00833333333333333	0	30	3.4375	2	0.998046875
2857.8955078125	0.00833333333333333	0	-30	-4.67291666666667	1	0.9130859375
2861.1708984375	0.00833333333333333	0	30	3.4375	2	0.685546875
2864.4296875	0.00833333333333333	0	-30	-4.67291666666667	1	0.70703125
2867.6044921875	0.00833333333333333	0	30	3.4375	2	1.572265625
2871.787109375	0.00833333333333333	0	30	3.3125	2	0.822265625
2874.8291015625	0.00833333333333333	0	30	3.3125	2	0.8681640625
2878.0791015625	0.00833333333333333	0	-30	-4.67291666666667	2	0.75390625
2881.169921875	0.00833333333333333	0	-30	-4.67291666666667	2	0.703125
2884.494140625	0.00833333333333333	0	30	3.3125	2	1.8916015625
2888.8291015625	0.00833333333333333	0	-30	-4.67291666666667	1	0.8359375
2891.845703125	0.00833333333333333	0	30	3.3125	1	2.7880859375
2897.01171875	0.00833333333333333	0	-30	-4.67291666666667	1	0.8701171875
2900.4619140625	0.00833333333333333	0	-30	-4.67291666666667	2	0.69140625
2903.5205078125	0.00833333333333333	0	30	3.3125	1	1.6337890625
2907.8037109375	0.00833333333333333	0	-30	-4.67291666666667	2	0.7099609375
2910.9033203125	0.00833333333333333	0	-30	-4.67291666666667	2	0.802734375
2914.1201171875	0.00833333333333333	0	30	3.3125	2	0.6181640625
2917.1943359375	0.00833333333333333	0	30	3.3125	2	0.6875
2920.3203125	0.00833333333333333	0	30	3.3125	2	0.673828125
2923.3203125	0.00833333333333333	0	30	3.3125	2	0.5859375
2926.5283203125	0.00833333333333333	0	-30	-4.67291666666667	2	0.7626953125
2929.619140625	0.00833333333333333	0	-30	-4.67291666666667	1	1.3115234375
2933.2529296875	0.00833333333333333	0	-30	-4.67291666666667	1	1.0380859375
2936.501953125	0.00833333333333333	0	30	3.3125	1	0.9091796875
2939.9697265625	0.00833333333333333	0	30	3.3125	2	0.712890625
2943.28515625	0.00833333333333333	0	30	3.3125	1	1.478515625
2947.14453125	0.00833333333333333	0	30	3.3125	1	1.123046875
2950.828125	0.00833333333333333	0	-30	-4.67291666666667	2	0.7353515625
2954.15234375	0.00833333333333333	0	30	3.3125	2	4.33984375
2960.669921875	0.00833333333333333	0	-30	-4.67291666666667	2	0.91015625
2964.0107421875	0.00833333333333333	0	-30	-4.67291666666667	2	0.7373046875
3016.1015625	0.00833333333333333	0	30	3.3125	1	13.400390625
3031.9853515625	0.00833333333333333	0	-30	-4.67291666666667	2	1.125
3035.6923828125	0.00833333333333333	0	-30	-4.67291666666667	1	1.11328125
3039.326171875	0.00833333333333333	0	30	3.3125	1	2.087890625
3044.05078125	0.00833333333333333	0	-30	-4.67291666666667	1	1.4912109375
3048.1015625	0.00833333333333333	0	-30	-4.67291666666667	2	1.6328125
3052.0009765625	0.00833333333333333	0	30	3.3125	1	1.09375
3055.326171875	0.00833333333333333	0	-30	-4.67291666666667	2	0.6484375
3058.5849609375	0.00833333333333333	0	30	3.3125	1	0.765625
3061.783203125	0.00833333333333333	0	-30	-4.67291666666667	1	0.8876953125
3065.0009765625	0.00833333333333333	0	30	3.3125	2	1.126953125
3068.8515625	0.00833333333333333	0	-30	-4.67291666666667	2	1.244140625
3072.7763671875	0.00833333333333333	0	30	3.3125	2	0.6953125
3075.9423828125	0.00833333333333333	0	30	3.3125	1	0.8408203125
3079.109375	0.00833333333333333	0	-30	-4.67291666666667	1	0.8740234375
3082.576171875	0.00833333333333333	0	30	3.3125	2	1.0078125
3086.2255859375	0.00833333333333333	0	30	3.3125	2	1.9658203125
3090.67578125	0.00833333333333333	0	-30	-4.67291666666667	2	0.916015625
3094.1005859375	0.00833333333333333	0	30	3.3125	2	1.01953125
3097.5927734375	0.00833333333333333	0	30	3.3125	1	1.0390625
3100.859375	0.00833333333333333	0	30	3.3125	2	5.4052734375
3108.875	0.00833333333333333	0	-30	-4.67291666666667	1	0.9091796875
3112.1669921875	0.00833333333333333	0	-30	-4.67291666666667	1	1.2978515625
3116.0498046875	0.00833333333333333	0	30	3.3125	1	1.630859375
3119.9501953125	0.00833333333333333	0	-30	-4.67291666666667	1	0.7548828125
3122.857421875	0.00833333333333333	0	30	3.3125	1	0.927734375
3126.18359375	0.00833333333333333	0	30	3.3125	2	0.857421875
3129.3837890625	0.00833333333333333	0	-30	-4.67291666666667	1	0.8017578125
3132.408203125	0.00833333333333333	0	-30	-4.67291666666667	1	0.80078125
3135.3662109375	0.00833333333333333	0	-30	-4.54791666666667	2	0.642578125
3138.341796875	0.00833333333333333	0	30	3.3125	2	0.8037109375
3141.6748046875	0.00833333333333333	0	-30	-4.54791666666667	2	0.6865234375
3144.724609375	0.00833333333333333	0	-30	-4.54791666666667	1	0.8447265625
3147.94140625	0.00833333333333333	0	-30	-4.54791666666667	2	0.7880859375
3151.4501953125	0.00833333333333333	0	30	3.3125	1	0.6318359375
3154.3662109375	0.00833333333333333	0	30	3.3125	2	0.7314453125
3158.81640625	0.00833333333333333	0	30	3.3125	1	0.8251953125
3161.841796875	0.00833333333333333	0	30	3.3125	1	1.240234375
3165.5	0.00833333333333333	0	-30	-4.54791666666667	2	1.310546875
3169.19140625	0.00833333333333333	0	-30	-4.54791666666667	1	1.0908203125
3172.5	0.00833333333333333	0	-30	-4.54791666666667	1	1.822265625
3176.5166015625	0.00833333333333333	0	-30	-4.54791666666667	1	0.8623046875
3179.6484375	0.00833333333333333	0	-30	-4.54791666666667	2	1.5703125
3183.857421875	0.00833333333333333	0	30	3.3125	1	0.8251953125
3187.1240234375	0.00833333333333333	0	30	3.3125	1	1.462890625
3191.140625	0.00833333333333333	0	-30	-4.54791666666667	2	0.7109375
3193.9990234375	0.00833333333333333	0	-30	-4.54791666666667	2	0.8681640625
3197.265625	0.00833333333333333	0	30	3.3125	2	1.08984375
3200.916015625	0.00833333333333333	0	-30	-4.54791666666667	2	0.7109375
3203.9072265625	0.00833333333333333	0	30	3.3125	2	1.3525390625
3207.515625	0.00833333333333333	0	-30	-4.54791666666667	1	0.9921875
3210.6826171875	0.00833333333333333	0	-30	-4.54791666666667	1	4.689453125
3217.7744140625	0.00833333333333333	0	-30	-4.54791666666667	2	0.669921875
3220.798828125	0.00833333333333333	0	30	3.3125	2	0.685546875
3224.08203125	0.00833333333333333	0	-30	-4.54791666666667	2	0.8896484375
3227.44921875	0.00833333333333333	0	-30	-4.54791666666667	2	0.8505859375
3230.6396484375	0.00833333333333333	0	-30	-4.54791666666667	2	0.5966796875
3233.4736328125	0.00833333333333333	0	30	3.3125	2	0.6904296875
3236.5068359375	0.00833333333333333	0	-30	-4.54791666666667	2	0.6337890625
3239.7822265625	0.00833333333333333	0	-30	-4.67291666666667	2	0.7587890625
3242.873046875	0.00833333333333333	0	30	3.3125	2	0.595703125
3245.70703125	0.00833333333333333	0	-30	-4.67291666666667	2	0.609375
3248.83984375	0.00833333333333333	0	-30	-4.67291666666667	1	0.8447265625
3252.1640625	0.00833333333333333	0	30	3.1875	2	0.609375
3254.990234375	0.00833333333333333	0	-30	-4.67291666666667	1	0.8388671875
3258.1650390625	0.00833333333333333	0	-30	-4.67291666666667	1	0.6484375
3261.3056640625	0.00833333333333333	0	30	3.1875	1	0.763671875
3264.630859375	0.00833333333333333	0	-30	-4.67291666666667	1	0.630859375
3267.5478515625	0.00833333333333333	0	30	3.1875	1	0.6494140625
3270.2978515625	0.00833333333333333	0	-30	-4.67291666666667	1	0.6513671875
3273.2314453125	0.00833333333333333	0	-30	-4.54791666666667	1	0.654296875
3276.4150390625	0.00833333333333333	0	-30	-4.54791666666667	1	0.6142578125
3279.1484375	0.00833333333333333	0	-30	-4.54791666666667	1	0.873046875
3282.1142578125	0.00833333333333333	0	30	3.1875	2	1.0751953125
3285.5732421875	0.00833333333333333	0	-30	-4.54791666666667	1	0.7451171875
3288.505859375	0.00833333333333333	0	-30	-4.54791666666667	1	0.724609375
3291.7470703125	0.00833333333333333	0	-30	-4.42291666666667	1	2.02734375
3296.3564453125	0.00833333333333333	0	30	3.1875	1	0.7939453125
3299.5556640625	0.00833333333333333	0	30	3.1875	2	3.3310546875
3305.0712890625	0.00833333333333333	0	30	3.1875	1	2.0078125
3351.470703125	0.00833333333333333	0	-30	-4.42291666666667	2	1.1611328125
3355.0888671875	0.00833333333333333	0	-30	-4.42291666666667	2	0.591796875
3357.921875	0.00833333333333333	0	-30	-4.42291666666667	2	0.654296875
3360.9716796875	0.00833333333333333	0	30	3.1875	1	3.94140625
3367.4052734375	0.00833333333333333	0	-30	-4.42291666666667	2	0.6279296875
3370.546875	0.00833333333333333	0	-30	-4.42291666666667	2	0.59765625
3373.455078125	0.00833333333333333	0	-30	-4.54791666666667	2	0.609375
3376.404296875	0.00833333333333333	0	30	3.1875	2	0.6689453125
3379.521484375	0.00833333333333333	0	30	3.1875	1	1.4560546875
3383.5966796875	0.00833333333333333	0	-30	-4.54791666666667	2	0.66015625
3386.5048828125	0.00833333333333333	0	-30	-4.54791666666667	1	0.7763671875
3389.7880859375	0.00833333333333333	0	30	3.1875	2	0.7412109375
3392.830078125	0.00833333333333333	0	30	3.1875	2	0.859375
3396.2548828125	0.00833333333333333	0	-30	-4.54791666666667	1	0.8427734375
3399.5126953125	0.00833333333333333	0	-30	-4.54791666666667	1	0.6728515625
3402.4208984375	0.00833333333333333	0	-30	-4.54791666666667	1	0.9326171875
3405.6962890625	0.00833333333333333	0	30	3.1875	1	0.6982421875
3408.8798828125	0.00833333333333333	0	30	3.1875	1	2.3701171875
3413.8623046875	0.00833333333333333	0	30	3.1875	1	1.3642578125
3417.6708984375	0.00833333333333333	0	-30	-4.54791666666667	2	2.0751953125
3422.3212890625	0.00833333333333333	0	-30	-4.54791666666667	1	0.9375
3425.912109375	0.00833333333333333	0	30	3.1875	2	0.90625
3429.1455078125	0.00833333333333333	0	-30	-4.54791666666667	1	0.9453125
3432.220703125	0.00833333333333333	0	30	3.1875	1	0.7578125
3435.5703125	0.00833333333333333	0	30	3.1875	1	0.736328125
3438.75390625	0.00833333333333333	0	30	3.1875	1	0.6572265625
3441.8623046875	0.00833333333333333	0	30	3.1875	1	0.716796875
3445.0537109375	0.00833333333333333	0	-30	-4.54791666666667	1	0.61328125
3447.9794921875	0.00833333333333333	0	-30	-4.54791666666667	1	0.935546875
3451.2705078125	0.00833333333333333	0	-30	-4.54791666666667	1	0.876953125
3454.7041015625	0.00833333333333333	0	30	3.1875	1	1.515625
3458.7119140625	0.00833333333333333	0	-30	-4.42291666666667	1	0.6591796875
3461.8369140625	0.00833333333333333	0	30	3.3125	1	0.638671875
3464.8955078125	0.00833333333333333	0	-30	-4.42291666666667	1	0.6123046875
3467.845703125	0.00833333333333333	0	30	3.3125	2	4.1025390625
3474.4365234375	0.00833333333333333	0	-30	-4.42291666666667	1	0.6083984375
3477.12890625	0.00833333333333333	0	-30	-4.42291666666667	1	0.5869140625
3479.9697265625	0.00833333333333333	0	30	3.3125	2	0.8671875
3483.369140625	0.00833333333333333	0	30	3.3125	1	0.6748046875
3486.412109375	0.00833333333333333	0	30	3.3125	1	0.640625
3489.5947265625	0.00833333333333333	0	30	3.3125	2	0.76171875
3492.578125	0.00833333333333333	0	-30	-4.42291666666667	1	2.0029296875
3496.8935546875	0.00833333333333333	0	30	3.3125	1	1.3916015625
3500.6865234375	0.00833333333333333	0	30	3.3125	2	0.7744140625
3503.9443359375	0.00833333333333333	0	30	3.3125	2	0.724609375
3507.0859375	0.00833333333333333	0	30	3.3125	2	0.7275390625
3510.2451171875	0.00833333333333333	0	-30	-4.29791666666667	1	0.9599609375
3513.63671875	0.00833333333333333	0	30	3.3125	2	1.5849609375
3517.65234375	0.00833333333333333	0	-30	-4.29791666666667	2	2.9775390625
3522.994140625	0.00833333333333333	0	-30	-4.29791666666667	1	0.7958984375
3526.169921875	0.00833333333333333	0	-30	-4.29791666666667	1	0.6357421875
3529.111328125	0.00833333333333333	0	30	3.3125	1	2.0224609375
3533.568359375	0.00833333333333333	0	-30	-4.29791666666667	1	1.3583984375
3537.177734375	0.00833333333333333	0	-30	-4.29791666666667	1	0.8125
3540.5439453125	0.00833333333333333	0	-30	-4.29791666666667	2	1.21484375
3544.15234375	0.00833333333333333	0	-30	-4.29791666666667	2	0.8134765625
3547.15234375	0.00833333333333333	0	30	3.3125	2	0.92578125
3550.3193359375	0.00833333333333333	0	-30	-4.29791666666667	1	1.7509765625
3554.2275390625	0.00833333333333333	0	30	3.3125	2	1.02734375
3557.8193359375	0.00833333333333333	0	30	3.3125	1	1.0439453125
3561.4443359375	0.00833333333333333	0	-30	-4.29791666666667	2	0.890625
3564.6435546875	0.00833333333333333	0	-30	-4.29791666666667	2	0.5791015625
3567.7353515625	0.00833333333333333	0	30	3.3125	2	0.744140625
3570.8857421875	0.00833333333333333	0	-30	-4.29791666666667	2	0.76953125
3573.8857421875	0.00833333333333333	0	30	3.3125	2	0.59375
3576.65234375	0.00833333333333333	0	30	3.3125	2	0.5791015625
3579.4189453125	0.00833333333333333	0	-30	-4.29791666666667	2	1.0849609375
3582.9765625	0.00833333333333333	0	-30	-4.29791666666667	2	0.6708984375
3585.84375	0.00833333333333333	0	30	3.3125	2	0.5400390625
3588.8017578125	0.00833333333333333	0	-30	-4.42291666666667	1	0.982421875
3591.9931640625	0.00833333333333333	0	-30	-4.42291666666667	2	0.85546875
3595.259765625	0.00833333333333333	0	-30	-4.42291666666667	2	0.580078125
3598.0263671875	0.00833333333333333	0	-30	-4.42291666666667	1	0.7578125
3601.1845703125	0.00833333333333333	0	-30	-4.42291666666667	1	0.84765625
3604.5849609375	0.00833333333333333	0	-30	-4.42291666666667	1	0.8076171875
3607.876953125	0.00833333333333333	0	30	3.3125	1	2.099609375
3612.41796875	0.00833333333333333	0	-30	-4.42291666666667	2	0.662109375
3615.716796875	0.00833333333333333	0	30	3.3125	2	0.9560546875
3619.0341796875	0.00833333333333333	0	30	3.3125	2	0.7109375
3622.0341796875	0.00833333333333333	0	-30	-4.42291666666667	2	0.6943359375
3644.833984375	0.00833333333333333	0	30	3.3125	1	0.8955078125
3647.9345703125	0.00833333333333333	0	30	3.3125	1	0.6748046875
3650.767578125	0.00833333333333333	0	-30	-4.42291666666667	1	0.5703125
3653.517578125	0.00833333333333333	0	30	3.3125	1	1.1005859375
3657.0751953125	0.00833333333333333	0	-30	-4.42291666666667	1	0.791015625
3660.05859375	0.00833333333333333	0	-30	-4.42291666666667	1	0.623046875
3663.025390625	0.00833333333333333	0	30	3.3125	1	1.2724609375
3666.4755859375	0.00833333333333333	0	30	3.3125	2	0.89453125
3669.7919921875	0.00833333333333333	0	-30	-4.42291666666667	1	0.72265625
3673.0009765625	0.00833333333333333	0	30	3.3125	1	2.0732421875
3677.333984375	0.00833333333333333	0	-30	-4.42291666666667	1	0.6044921875
3680.42578125	0.00833333333333333	0	30	3.3125	1	4.1533203125
3686.9755859375	0.00833333333333333	0	30	3.3125	1	0.69921875
3691.5751953125	0.00833333333333333	0	30	3.3125	1	1.3955078125
3695.099609375	0.00833333333333333	0	-30	-4.29791666666667	1	1.263671875
3698.9921875	0.00833333333333333	0	-30	-4.29791666666667	1	0.763671875
3702.2158203125	0.00833333333333333	0	30	3.3125	1	1.076171875
3705.8076171875	0.00833333333333333	0	30	3.4375	1	2.01171875
3710.224609375	0.00833333333333333	0	30	3.4375	1	1.546875
3714.0419921875	0.00833333333333333	0	-30	-4.29791666666667	1	0.74609375
3717.1826171875	0.00833333333333333	0	30	3.4375	1	1.0927734375
3720.8828125	0.00833333333333333	0	-30	-4.29791666666667	2	2.048828125
3725.2001953125	0.00833333333333333	0	30	3.4375	1	1.3642578125
3728.9501953125	0.00833333333333333	0	-30	-4.29791666666667	1	1.310546875
3732.7998046875	0.00833333333333333	0	-30	-4.29791666666667	1	0.892578125
3735.8583984375	0.00833333333333333	0	30	3.4375	1	1.8984375
3740.3330078125	0.00833333333333333	0	30	3.5625	1	0.6796875
3743.5166015625	0.00833333333333333	0	30	3.5625	1	1.072265625
3746.82421875	0.00833333333333333	0	-30	-4.29791666666667	1	1.3720703125
3750.3740234375	0.00833333333333333	0	30	3.5625	2	1.462890625
3754.265625	0.00833333333333333	0	-30	-4.29791666666667	1	0.748046875
3757.416015625	0.00833333333333333	0	-30	-4.29791666666667	1	1.9658203125
3761.6494140625	0.00833333333333333	0	30	3.5625	2	2.7080078125
3766.5322265625	0.00833333333333333	0	30	3.5625	1	2.10546875
3771.041015625	0.00833333333333333	0	-30	-4.17291666666667	1	0.98046875
3774.3740234375	0.00833333333333333	0	-30	-4.17291666666667	1	0.65625
3777.1728515625	0.00833333333333333	0	30	3.5625	1	1.216796875
3780.9404296875	0.00833333333333333	0	30	3.5625	2	5.75390625
3788.865234375	0.00833333333333333	0	-30	-4.17291666666667	1	1.29296875
3792.5234375	0.00833333333333333	0	-30	-4.17291666666667	2	2.802734375
3797.6240234375	0.00833333333333333	0	30	3.5625	2	1.20703125
3801.306640625	0.00833333333333333	0	30	3.5625	1	3.3798828125
3806.8154296875	0.00833333333333333	0	30	3.5625	2	0.943359375
3810.3564453125	0.00833333333333333	0	-30	-4.17291666666667	1	0.666015625
3813.45703125	0.00833333333333333	0	-30	-4.17291666666667	1	1.40625
3817.115234375	0.00833333333333333	0	30	3.5625	2	1.251953125
3820.740234375	0.00833333333333333	0	-30	-4.17291666666667	1	3.291015625
3826.498046875	0.00833333333333333	0	-30	-4.17291666666667	1	0.7333984375
3829.6318359375	0.00833333333333333	0	-30	-4.17291666666667	2	3.6240234375
3835.697265625	0.00833333333333333	0	-30	-4.17291666666667	2	1.56640625
3839.681640625	0.00833333333333333	0	-30	-4.17291666666667	2	0.9501953125
3842.84765625	0.00833333333333333	0	-30	-4.17291666666667	2	0.7998046875
3846.1552734375	0.00833333333333333	0	30	3.5625	1	1.212890625
3849.7392578125	0.00833333333333333	0	30	3.5625	2	0.98046875
3853.123046875	0.00833333333333333	0	30	3.5625	1	3.765625
3859.2548828125	0.00833333333333333	0	30	3.5625	1	1.2333984375
3863.09765625	0.00833333333333333	0	-30	-4.17291666666667	1	1.9912109375
3867.263671875	0.00833333333333333	0	-30	-4.17291666666667	1	1.9375
3871.6474609375	0.00833333333333333	0	-30	-4.17291666666667	1	0.8662109375
3874.85546875	0.00833333333333333	0	-30	-4.17291666666667	1	2.9453125
3880.1396484375	0.00833333333333333	0	-30	-4.17291666666667	2	1.7412109375
3884.4892578125	0.00833333333333333	0	30	3.5625	1	0.7998046875
3887.6806640625	0.00833333333333333	0	30	3.5625	1	1.5048828125
3891.4052734375	0.00833333333333333	0	-30	-4.17291666666667	1	1.8046875
3895.4462890625	0.00833333333333333	0	-30	-4.17291666666667	1	0.8916015625
3898.8056640625	0.00833333333333333	0	30	3.5625	1	1.3564453125
3902.505859375	0.00833333333333333	0	-30	-4.17291666666667	1	1.0478515625
3905.6884765625	0.00833333333333333	0	30	3.6875	1	0.79296875
3908.5966796875	0.00833333333333333	0	-30	-4.17291666666667	1	0.8134765625
3911.73828125	0.00833333333333333	0	30	3.6875	1	1.7119140625
3915.8876953125	0.00833333333333333	0	-30	-4.17291666666667	1	0.71484375
3918.86328125	0.00833333333333333	0	30	3.6875	2	1.39453125
3922.697265625	0.00833333333333333	0	30	3.6875	1	1.017578125
3925.888671875	0.00833333333333333	0	-30	-4.04791666666667	1	2.10546875
3930.080078125	0.00833333333333333	0	30	3.6875	2	2.546875
3935.146484375	0.00833333333333333	0	-30	-4.04791666666667	1	0.8720703125
3938.4130859375	0.00833333333333333	0	-30	-4.04791666666667	1	1.6220703125
3942.146484375	0.00833333333333333	0	-30	-4.04791666666667	1	2.14453125
3946.7294921875	0.00833333333333333	0	-30	-4.04791666666667	2	1.4814453125
3950.771484375	0.00833333333333333	0	30	3.6875	1	0.8564453125
3973.3876953125	0.00833333333333333	0	-30	-4.04791666666667	1	1.904296875
3977.74609375	0.00833333333333333	0	-30	-4.04791666666667	2	0.826171875
3981.087890625	0.00833333333333333	0	30	3.6875	2	0.6845703125
3984.3212890625	0.00833333333333333	0	-30	-4.04791666666667	2	0.8193359375
3987.779296875	0.00833333333333333	0	30	3.6875	2	0.6728515625
3990.7373046875	0.00833333333333333	0	30	3.6875	2	0.5791015625
3993.4873046875	0.00833333333333333	0	-30	-4.04791666666667	2	0.7177734375
3996.6044921875	0.00833333333333333	0	30	3.6875	2	1.3125
4000.0625	0.00833333333333333	0	30	3.6875	2	0.646484375
4002.8623046875	0.00833333333333333	0	-30	-4.04791666666667	1	0.791015625
4005.904296875	0.00833333333333333	0	-30	-4.04791666666667	1	1.0927734375
4009.3955078125	0.00833333333333333	0	-30	-4.04791666666667	1	0.857421875
4012.470703125	0.00833333333333333	0	30	3.5625	1	1.3271484375
4016.00390625	0.00833333333333333	0	30	3.5625	1	0.9853515625
4019.353515625	0.00833333333333333	0	30	3.5625	1	0.8037109375
4022.6357421875	0.00833333333333333	0	30	3.5625	2	1.7294921875
4026.88671875	0.00833333333333333	0	30	3.5625	2	4.0068359375
4033.2119140625	0.00833333333333333	0	-30	-4.04791666666667	1	1.578125
4037.2373046875	0.00833333333333333	0	-30	-4.04791666666667	1	1.544921875
4041.0439453125	0.00833333333333333	0	-30	-3.92291666666667	1	0.7626953125
4044.2373046875	0.00833333333333333	0	30	3.5625	1	2.2734375
4049.1279296875	0.00833333333333333	0	-30	-3.92291666666667	1	5.0380859375
4056.537109375	0.00833333333333333	0	30	3.5625	1	0.78125
4059.5703125	0.00833333333333333	0	-30	-3.92291666666667	1	0.95703125
4062.828125	0.00833333333333333	0	-30	-3.92291666666667	1	0.890625
4066.228515625	0.00833333333333333	0	-30	-3.92291666666667	1	2.146484375
4070.919921875	0.00833333333333333	0	30	3.5625	2	0.638671875
4073.8857421875	0.00833333333333333	0	-30	-3.79791666666667	2	1.0576171875
4077.3525390625	0.00833333333333333	0	30	3.5625	1	1.2470703125
4081.1025390625	0.00833333333333333	0	-30	-3.79791666666667	1	0.865234375
4084.2021484375	0.00833333333333333	0	30	3.5625	2	1.4609375
4088.3193359375	0.00833333333333333	0	30	3.5625	1	1.232421875
4091.869140625	0.00833333333333333	0	-30	-3.79791666666667	2	0.6669921875
4094.953125	0.00833333333333333	0	30	3.5625	2	0.6708984375
4097.9189453125	0.00833333333333333	0	30	3.5625	1	1.4814453125
4101.9189453125	0.00833333333333333	0	30	3.5625	2	1.177734375
4105.2529296875	0.00833333333333333	0	-30	-3.79791666666667	2	0.6435546875
4108.01953125	0.00833333333333333	0	30	3.5625	2	0.6923828125
4111.0029296875	0.00833333333333333	0	30	3.5625	2	0.58984375
4113.7939453125	0.00833333333333333	0	30	3.5625	1	1.22265625
4117.5771484375	0.00833333333333333	0	-30	-3.79791666666667	1	0.84765625
4120.876953125	0.00833333333333333	0	-30	-3.79791666666667	1	1.0439453125
4124.3193359375	0.00833333333333333	0	-30	-3.79791666666667	1	0.6416015625
4127.3271484375	0.00833333333333333	0	30	3.5625	1	0.6416015625
4130.09375	0.00833333333333333	0	-30	-3.79791666666667	1	0.69140625
4133.40234375	0.00833333333333333	0	-30	-3.79791666666667	1	1.1103515625
4137.02734375	0.00833333333333333	0	-30	-3.67291666666667	1	1.91015625
4141.3857421875	0.00833333333333333	0	30	3.5625	1	2.2080078125
4145.8681640625	0.00833333333333333	0	30	3.5625	1	1.4453125
4149.4853515625	0.00833333333333333	0	-30	-3.67291666666667	2	1.2529296875
4153.3603515625	0.00833333333333333	0	30	3.5625	2	1.1533203125
4157.0009765625	0.00833333333333333	0	-30	-3.67291666666667	2	1.9052734375
4161.4765625	0.00833333333333333	0	30	3.5625	1	0.9892578125
4164.818359375	0.00833333333333333	0	-30	-3.67291666666667	2	0.671875
4168.1767578125	0.00833333333333333	0	-30	-3.67291666666667	2	0.7373046875
4171.3095703125	0.00833333333333333	0	-30	-3.67291666666667	2	3.9091796875
4177.54296875	0.00833333333333333	0	30	3.5625	1	0.9716796875
4180.7099609375	0.00833333333333333	0	30	3.5625	1	0.63671875
4183.818359375	0.00833333333333333	0	-30	-3.79791666666667	1	0.6728515625
4186.9267578125	0.00833333333333333	0	-30	-3.79791666666667	2	0.923828125
4190.318359375	0.00833333333333333	0	-30	-3.79791666666667	1	0.6923828125
4193.2431640625	0.00833333333333333	0	-30	-3.79791666666667	1	0.6953125
4196.1513671875	0.00833333333333333	0	30	3.5625	1	1.1318359375
4199.4599609375	0.00833333333333333	0	30	3.5625	1	0.791015625
4202.6845703125	0.00833333333333333	0	30	3.6875	2	1.89453125
4207.1923828125	0.00833333333333333	0	30	3.6875	2	1.05078125
4210.9091796875	0.00833333333333333	0	-30	-3.79791666666667	2	1.646484375
4214.908203125	0.00833333333333333	0	30	3.6875	1	1.1591796875
4218.2763671875	0.00833333333333333	0	-30	-3.79791666666667	1	1.919921875
4222.3671875	0.00833333333333333	0	-30	-3.79791666666667	2	2.2373046875
4227.142578125	0.00833333333333333	0	30	3.6875	2	0.78125
4230.17578125	0.00833333333333333	0	-30	-3.79791666666667	1	1.30078125
4233.7509765625	0.00833333333333333	0	-30	-3.79791666666667	2	0.78125
4237.083984375	0.00833333333333333	0	-30	-3.79791666666667	1	0.9208984375
4240.6259765625	0.00833333333333333	0	30	3.6875	2	0.939453125
4243.9501953125	0.00833333333333333	0	30	3.6875	2	0.7109375
4247.158203125	0.00833333333333333	0	30	3.6875	1	1.982421875
4251.7421875	0.00833333333333333	0	-30	-3.79791666666667	2	0.6708984375
4254.8740234375	0.00833333333333333	0	30	3.6875	1	0.859375
4258.0087890625	0.00833333333333333	0	30	3.6875	2	0.98046875
4326.732421875	0.00833333333333333	0	30	3.6875	1	1.38671875
4330.2490234375	0.00833333333333333	0	-30	-3.79791666666667	2	3.830078125
4336.3828125	0.00833333333333333	0	-30	-3.79791666666667	1	1.12109375
4339.640625	0.00833333333333333	0	30	3.6875	2	1.03125
4343.140625	0.00833333333333333	0	30	3.6875	1	1.3955078125
4346.890625	0.00833333333333333	0	-30	-3.79791666666667	2	1.533203125
4350.6318359375	0.00833333333333333	0	-30	-3.79791666666667	1	0.8798828125
4353.865234375	0.00833333333333333	0	-30	-3.79791666666667	1	0.8544921875
4357.1240234375	0.00833333333333333	0	30	3.6875	2	0.7158203125
4360.0478515625	0.00833333333333333	0	-30	-3.79791666666667	1	0.8564453125
4363.1240234375	0.00833333333333333	0	30	3.6875	1	1.1650390625
4366.765625	0.00833333333333333	0	-30	-3.79791666666667	2	1.130859375
4370.548828125	0.00833333333333333	0	-30	-3.79791666666667	1	1.107421875
4373.8232421875	0.00833333333333333	0	-30	-3.79791666666667	1	0.8251953125
4377.0322265625	0.00833333333333333	0	30	3.6875	1	3.3046875
4382.498046875	0.00833333333333333	0	-30	-3.79791666666667	2	0.935546875
4385.873046875	0.00833333333333333	0	30	3.6875	1	1.583984375
4389.8984375	0.00833333333333333	0	-30	-3.79791666666667	2	1.7109375
4394.1728515625	0.00833333333333333	0	30	3.6875	2	0.7734375
4397.5068359375	0.00833333333333333	0	-30	-3.79791666666667	2	0.9423828125
4400.9814453125	0.00833333333333333	0	30	3.6875	2	1.0126953125
4404.1884765625	0.00833333333333333	0	30	3.6875	2	1.4609375
4408.181640625	0.00833333333333333	0	30	3.6875	1	0.8525390625
4411.5810546875	0.00833333333333333	0	-30	-3.79791666666667	1	0.9248046875
4414.86328125	0.00833333333333333	0	30	3.6875	2	0.810546875
4417.873046875	0.00833333333333333	0	30	3.6875	2	1.3369140625
4421.5732421875	0.00833333333333333	0	30	3.6875	2	0.78125
4424.4482421875	0.00833333333333333	0	-30	-3.79791666666667	2	2.6259765625
4429.5146484375	0.00833333333333333	0	-30	-3.79791666666667	1	0.9755859375
4432.9638671875	0.00833333333333333	0	-30	-3.79791666666667	1	7.1748046875
4442.4228515625	0.00833333333333333	0	30	3.6875	1	1.1396484375
4445.8642578125	0.00833333333333333	0	30	3.6875	1	1.1875
4449.138671875	0.00833333333333333	0	30	3.6875	2	1.041015625
4452.5546875	0.00833333333333333	0	30	3.6875	2	1.072265625
4455.888671875	0.00833333333333333	0	-30	-3.79791666666667	1	1.1796875
4459.3056640625	0.00833333333333333	0	-30	-3.79791666666667	1	1.345703125
4463.23046875	0.00833333333333333	0	30	3.6875	1	1.0615234375
4466.7724609375	0.00833333333333333	0	-30	-3.79791666666667	1	0.8310546875
4470.0634765625	0.00833333333333333	0	-30	-3.67291666666667	1	0.716796875
4473.3720703125	0.00833333333333333	0	30	3.6875	2	0.7763671875
4476.7470703125	0.00833333333333333	0	30	3.6875	1	1.193359375
4480.1220703125	0.00833333333333333	0	-30	-3.67291666666667	1	1.498046875
4484.1220703125	0.00833333333333333	0	30	3.6875	2	0.7783203125
4487.3125	0.00833333333333333	0	30	3.6875	2	0.8759765625
4490.61328125	0.00833333333333333	0	30	3.6875	1	1.55078125
4494.421875	0.00833333333333333	0	-30	-3.67291666666667	1	1.0146484375
4497.705078125	0.00833333333333333	0	-30	-3.67291666666667	1	4.2919921875
4504.1630859375	0.00833333333333333	0	30	3.6875	2	0.8974609375
4507.720703125	0.00833333333333333	0	30	3.6875	1	1.1240234375
4511.087890625	0.00833333333333333	0	-30	-3.67291666666667	2	0.876953125
4514.296875	0.00833333333333333	0	-30	-3.67291666666667	2	1.2763671875
4518.1630859375	0.00833333333333333	0	-30	-3.67291666666667	1	3.001953125
4523.6298828125	0.00833333333333333	0	-30	-3.67291666666667	1	0.84765625
4526.5966796875	0.00833333333333333	0	30	3.6875	1	1.529296875
4530.4208984375	0.00833333333333333	0	30	3.6875	2	1.13671875
4534.0546875	0.00833333333333333	0	30	3.6875	2	0.9833984375
4537.279296875	0.00833333333333333	0	-30	-3.67291666666667	2	1.3427734375
4540.9296875	0.00833333333333333	0	-30	-3.67291666666667	1	0.99609375
4544.1796875	0.00833333333333333	0	-30	-3.67291666666667	1	0.5947265625
4547.0126953125	0.00833333333333333	0	-30	-3.67291666666667	1	0.59375
4549.9033203125	0.00833333333333333	0	-30	-3.67291666666667	1	3.3916015625
4555.8046875	0.00833333333333333	0	-30	-3.67291666666667	2	1.0576171875
4559.3623046875	0.00833333333333333	0	30	3.6875	2	0.7568359375
4562.779296875	0.00833333333333333	0	-30	-3.67291666666667	2	0.763671875
4566.0205078125	0.00833333333333333	0	30	3.6875	2	0.994140625
4569.1875	0.00833333333333333	0	-30	-3.67291666666667	1	0.8837890625
4572.4287109375	0.00833333333333333	0	30	3.6875	1	1.05859375
4575.6787109375	0.00833333333333333	0	30	3.6875	1	0.7685546875
4578.470703125	0.00833333333333333	0	-30	-3.67291666666667	2	1.3125
4582.0869140625	0.00833333333333333	0	-30	-3.67291666666667	2	0.79296875
4585.3193359375	0.00833333333333333	0	-30	-3.67291666666667	1	0.7841796875
4588.279296875	0.00833333333333333	0	-30	-3.67291666666667	1	0.720703125
4591.0703125	0.00833333333333333	0	-30	-3.67291666666667	2	0.673828125
4593.8291015625	0.00833333333333333	0	-30	-3.67291666666667	2	0.642578125
4596.603515625	0.00833333333333333	0	30	3.6875	2	0.5966796875
4599.353515625	0.00833333333333333	0	-30	-3.67291666666667	2	0.57421875
4602.51171875	0.00833333333333333	0	30	3.6875	2	0.912109375
4605.62890625	0.00833333333333333	0	-30	-3.67291666666667	1	0.8515625
4608.5947265625	0.00833333333333333	0	-30	-3.67291666666667	2	0.8935546875
4611.703125	0.00833333333333333	0	-30	-3.67291666666667	1	1.2333984375
4652.251953125	0.00833333333333333	0	30	3.6875	1	1.1337890625
4655.7021484375	0.00833333333333333	0	-30	-3.67291666666667	1	0.939453125
4658.8857421875	0.00833333333333333	0	30	3.6875	1	0.7958984375
4661.8359375	0.00833333333333333	0	30	3.6875	2	1.25390625
4665.3359375	0.00833333333333333	0	-30	-3.67291666666667	1	0.90625
4668.494140625	0.00833333333333333	0	30	3.6875	1	0.6279296875
4671.3525390625	0.00833333333333333	0	30	3.6875	1	0.666015625
4674.1689453125	0.00833333333333333	0	30	3.6875	1	0.6416015625
4677.052734375	0.00833333333333333	0	30	3.6875	1	0.58203125
4679.7861328125	0.00833333333333333	0	-30	-3.67291666666667	1	0.568359375
4682.3857421875	0.00833333333333333	0	-30	-3.67291666666667	1	0.728515625
4685.1943359375	0.00833333333333333	0	30	3.6875	1	0.576171875
4687.8935546875	0.00833333333333333	0	30	3.8125	1	0.5888671875
4690.8193359375	0.00833333333333333	0	-30	-3.54791666666667	1	0.5673828125
4693.810546875	0.00833333333333333	0	-30	-3.54791666666667	1	0.5927734375
4696.52734375	0.00833333333333333	0	-30	-3.54791666666667	1	0.4833984375
4699.21875	0.00833333333333333	0	-30	-3.54791666666667	1	0.5361328125
4701.869140625	0.00833333333333333	0	30	3.8125	1	0.4619140625
4704.77734375	0.00833333333333333	0	-30	-3.54791666666667	1	0.7060546875
4707.7353515625	0.00833333333333333	0	30	3.8125	1	0.5322265625
4710.744140625	0.00833333333333333	0	-30	-3.42291666666667	1	0.611328125
4713.7509765625	0.00833333333333333	0	30	3.8125	1	0.6689453125
4716.501953125	0.00833333333333333	0	30	3.8125	1	0.60546875
4719.451171875	0.00833333333333333	0	30	3.9375	2	1.16015625
4723.16015625	0.00833333333333333	0	30	3.9375	1	0.587890625
4725.7685546875	0.00833333333333333	0	30	3.9375	2	1.35546875
4729.5185546875	0.00833333333333333	0	-30	-3.42291666666667	1	0.8857421875
4732.5185546875	0.00833333333333333	0	-30	-3.42291666666667	1	0.677734375
4735.5771484375	0.00833333333333333	0	-30	-3.42291666666667	1	1.5869140625
4739.41796875	0.00833333333333333	0	-30	-3.42291666666667	1	1.810546875
4743.42578125	0.00833333333333333	0	30	3.9375	2	1.38671875
4747.28515625	0.00833333333333333	0	30	3.9375	1	2.5361328125
4752.109375	0.00833333333333333	0	-30	-3.29791666666667	1	0.87109375
4755.1259765625	0.00833333333333333	0	30	3.9375	1	1.71875
4759.0263671875	0.00833333333333333	0	30	3.9375	1	3.451171875
4764.55078125	0.00833333333333333	0	30	3.9375	2	1.5830078125
4768.333984375	0.00833333333333333	0	-30	-3.29791666666667	1	0.615234375
4771.29296875	0.00833333333333333	0	30	3.9375	2	1.056640625
4774.966796875	0.00833333333333333	0	30	3.9375	2	1.5751953125
4779.05078125	0.00833333333333333	0	-30	-3.29791666666667	1	0.8828125
4782.2841796875	0.00833333333333333	0	-30	-3.29791666666667	1	0.689453125
4785.224609375	0.00833333333333333	0	-30	-3.29791666666667	1	0.7490234375
4788.0595703125	0.00833333333333333	0	30	3.9375	1	1.4345703125
4791.734375	0.00833333333333333	0	-30	-3.17291666666667	2	1.34375
4795.6005859375	0.00833333333333333	0	30	3.9375	2	0.845703125
4798.841796875	0.00833333333333333	0	30	3.9375	2	1.62109375
4802.7509765625	0.00833333333333333	0	30	3.9375	2	1
4806.3251953125	0.00833333333333333	0	30	3.9375	2	0.689453125
4809.099609375	0.00833333333333333	0	30	3.9375	2	0.779296875
4812.1923828125	0.00833333333333333	0	-30	-3.17291666666667	2	0.6064453125
4815.375	0.00833333333333333	0	-30	-3.17291666666667	2	0.6474609375
4818.341796875	0.00833333333333333	0	-30	-3.17291666666667	2	0.5693359375
4821.4091796875	0.00833333333333333	0	-30	-3.17291666666667	2	0.5576171875
4824.43359375	0.00833333333333333	0	-30	-3.29791666666667	2	0.9013671875
4827.408203125	0.00833333333333333	0	30	3.8125	2	0.5751953125
4830.533203125	0.00833333333333333	0	30	3.8125	1	1.5703125
4834.291015625	0.00833333333333333	0	-30	-3.29791666666667	2	0.7490234375
4837.224609375	0.00833333333333333	0	-30	-3.29791666666667	2	1.6708984375
4841.025390625	0.00833333333333333	0	-30	-3.29791666666667	1	1.1259765625
4844.541015625	0.00833333333333333	0	-30	-3.29791666666667	1	0.70703125
4847.2666015625	0.00833333333333333	0	30	3.8125	1	1.6376953125
4851.44921875	0.00833333333333333	0	30	3.8125	1	1.646484375
4855.2333984375	0.00833333333333333	0	30	3.8125	2	0.9912109375
4858.5	0.00833333333333333	0	30	3.8125	1	0.5966796875
4861.56640625	0.00833333333333333	0	-30	-3.29791666666667	1	0.6337890625
4864.533203125	0.00833333333333333	0	30	3.8125	1	0.6591796875
4867.4072265625	0.00833333333333333	0	-30	-3.29791666666667	1	0.9296875
4870.7578125	0.00833333333333333	0	-30	-3.29791666666667	1	0.859375
4874.158203125	0.00833333333333333	0	30	3.8125	1	0.642578125
4877.06640625	0.00833333333333333	0	-30	-3.17291666666667	1	0.58203125
4879.8994140625	0.00833333333333333	0	-30	-3.17291666666667	1	0.701171875
4882.857421875	0.00833333333333333	0	30	3.8125	1	0.783203125
4885.9912109375	0.00833333333333333	0	-30	-3.17291666666667	2	1.3935546875
4889.7578125	0.00833333333333333	0	-30	-3.17291666666667	1	1.123046875
4893.1826171875	0.00833333333333333	0	-30	-3.17291666666667	1	1.0029296875
4896.541015625	0.00833333333333333	0	30	3.8125	2	1.380859375
4900.1328125	0.00833333333333333	0	30	3.8125	1	0.9013671875
4903.0576171875	0.00833333333333333	0	30	3.8125	1	0.83203125
4906.482421875	0.00833333333333333	0	30	3.8125	1	0.87109375
4909.45703125	0.00833333333333333	0	30	3.8125	2	0.7607421875
4922.189453125	0.00833333333333333	0	30	3.8125	1	1.5966796875
4925.9658203125	0.00833333333333333	0	30	3.8125	1	1.1962890625
4929.732421875	0.00833333333333333	0	30	3.8125	2	1.013671875
4933.2734375	0.00833333333333333	0	-30	-3.17291666666667	1	0.6572265625
4936.265625	0.00833333333333333	0	-30	-3.17291666666667	1	0.625
4939.181640625	0.00833333333333333	0	-30	-3.17291666666667	1	1.8134765625
4943.140625	0.00833333333333333	0	-30	-3.04791666666667	1	1.0380859375
4946.2734375	0.00833333333333333	0	30	3.8125	2	0.8818359375
4950.3486328125	0.00833333333333333	0	30	3.8125	1	0.623046875
4953.0234375	0.00833333333333333	0	30	3.8125	1	1.6201171875
4956.998046875	0.00833333333333333	0	30	3.8125	1	2.173828125
4961.3564453125	0.00833333333333333	0	-30	-3.04791666666667	1	0.966796875
4964.615234375	0.00833333333333333	0	-30	-3.04791666666667	2	1.228515625
4967.990234375	0.00833333333333333	0	30	3.8125	2	1.4775390625
4971.7060546875	0.00833333333333333	0	-30	-3.04791666666667	2	0.8095703125
4975.056640625	0.00833333333333333	0	30	3.8125	2	0.8515625
4978.1982421875	0.00833333333333333	0	-30	-3.04791666666667	2	0.7333984375
4981.2724609375	0.00833333333333333	0	30	3.8125	1	1.1318359375
4984.5390625	0.00833333333333333	0	-30	-3.04791666666667	2	0.8017578125
4987.5810546875	0.00833333333333333	0	-30	-3.04791666666667	2	2.119140625
4992.2548828125	0.00833333333333333	0	-30	-3.17291666666667	1	1.0693359375
4995.53125	0.00833333333333333	0	-30	-3.17291666666667	1	0.849609375
4998.4814453125	0.00833333333333333	0	30	3.8125	1	0.6748046875
5001.65625	0.00833333333333333	0	-30	-3.17291666666667	2	0.876953125
5004.771484375	0.00833333333333333	0	30	3.8125	2	1.2490234375
5008.23828125	0.00833333333333333	0	30	3.8125	1	0.822265625
5011.6044921875	0.00833333333333333	0	30	3.8125	2	0.6484375
5014.4560546875	0.00833333333333333	0	30	3.8125	2	0.7734375
5017.59765625	0.00833333333333333	0	-30	-3.17291666666667	1	0.85546875
5020.8974609375	0.00833333333333333	0	-30	-3.17291666666667	2	0.9404296875
5023.9892578125	0.00833333333333333	0	-30	-3.17291666666667	2	0.65625
5026.9140625	0.00833333333333333	0	-30	-3.17291666666667	2	0.779296875
5029.921875	0.00833333333333333	0	-30	-3.17291666666667	2	0.5634765625
5032.7802734375	0.00833333333333333	0	-30	-3.17291666666667	1	0.9052734375
5035.73046875	0.00833333333333333	0	-30	-3.17291666666667	2	0.947265625
5039.072265625	0.00833333333333333	0	30	3.8125	2	1.029296875
5042.4970703125	0.00833333333333333	0	-30	-3.17291666666667	1	0.701171875
5045.513671875	0.00833333333333333	0	30	3.8125	2	0.6123046875
5048.3974609375	0.00833333333333333	0	30	3.8125	2	0.640625
5051.587890625	0.00833333333333333	0	30	3.6875	1	0.8984375
5054.9970703125	0.00833333333333333	0	-30	-3.17291666666667	1	0.673828125
5058.12109375	0.00833333333333333	0	-30	-3.17291666666667	2	1.3330078125
5061.8388671875	0.00833333333333333	0	30	3.6875	2	0.6396484375
5064.61328125	0.00833333333333333	0	30	3.6875	1	1.28125
5067.9716796875	0.00833333333333333	0	-30	-3.17291666666667	1	1.2431640625
5071.587890625	0.00833333333333333	0	-30	-3.17291666666667	1	0.8994140625
5074.7802734375	0.00833333333333333	0	-30	-3.17291666666667	1	0.6748046875
5077.8544921875	0.00833333333333333	0	30	3.6875	1	1.12109375
5081.4794921875	0.00833333333333333	0	-30	-3.17291666666667	1	0.8154296875
5084.712890625	0.00833333333333333	0	30	3.6875	1	0.89453125
5088.1796875	0.00833333333333333	0	30	3.6875	1	0.740234375
5091.4716796875	0.00833333333333333	0	-30	-3.17291666666667	2	0.7275390625
5094.5546875	0.00833333333333333	0	-30	-3.17291666666667	2	1.0927734375
5098.087890625	0.00833333333333333	0	-30	-3.17291666666667	2	0.744140625
5101.162109375	0.00833333333333333	0	30	3.6875	2	0.9658203125
5104.7041015625	0.00833333333333333	0	30	3.6875	1	1.064453125
5107.970703125	0.00833333333333333	0	-30	-3.17291666666667	1	0.837890625
5111.2626953125	0.00833333333333333	0	30	3.6875	1	0.75390625
5114.3212890625	0.00833333333333333	0	-30	-3.17291666666667	1	0.775390625
5117.12109375	0.00833333333333333	0	-30	-3.17291666666667	1	0.6875
5119.9296875	0.00833333333333333	0	30	3.6875	1	0.8232421875
5122.75390625	0.00833333333333333	0	-30	-3.17291666666667	1	0.5830078125
5125.462890625	0.00833333333333333	0	30	3.6875	1	0.5458984375
5128.470703125	0.00833333333333333	0	30	3.6875	1	0.5302734375
5131.3291015625	0.00833333333333333	0	30	3.8125	1	0.599609375
5134.4541015625	0.00833333333333333	0	-30	-3.17291666666667	2	1.1630859375
5137.736328125	0.00833333333333333	0	-30	-3.17291666666667	1	0.7529296875
5140.87109375	0.00833333333333333	0	30	3.8125	2	1.978515625
5145.00390625	0.00833333333333333	0	30	3.8125	2	1.349609375
5148.8203125	0.00833333333333333	0	30	3.8125	1	0.7490234375
5151.853515625	0.00833333333333333	0	30	3.8125	2	0.8681640625
5154.953125	0.00833333333333333	0	30	3.8125	1	0.712890625
5158.1787109375	0.00833333333333333	0	30	3.8125	1	0.623046875
5161.25390625	0.00833333333333333	0	-30	-3.17291666666667	1	0.7802734375
5164.412109375	0.00833333333333333	0	-30	-3.17291666666667	1	0.638671875
5167.3701171875	0.00833333333333333	0	30	3.8125	2	0.7919921875
5170.4951171875	0.00833333333333333	0	30	3.8125	1	1.21875
5173.787109375	0.00833333333333333	0	30	3.8125	2	1.53515625
5177.6201171875	0.00833333333333333	0	30	3.8125	1	1.2861328125
5181.4033203125	0.00833333333333333	0	-30	-3.17291666666667	1	0.7353515625
5197.0029296875	0.00833333333333333	0	30	3.8125	1	1.34375
5200.8193359375	0.00833333333333333	0	30	3.8125	1	1.84765625
5205.1357421875	0.00833333333333333	0	30	3.8125	1	0.931640625
5208.59375	0.00833333333333333	0	30	3.8125	1	0.7060546875
5211.5859375	0.00833333333333333	0	-30	-3.17291666666667	2	0.76171875
5214.64453125	0.00833333333333333	0	-30	-3.17291666666667	2	0.7265625
5217.5693359375	0.00833333333333333	0	-30	-3.17291666666667	1	1.0419921875
5220.8359375	0.00833333333333333	0	30	3.9375	1	2
5224.986328125	0.00833333333333333	0	-30	-3.17291666666667	2	0.6416015625
5227.8017578125	0.00833333333333333	0	30	3.9375	2	1.8984375
5232.3515625	0.00833333333333333	0	-30	-3.17291666666667	1	0.8046875
5235.3857421875	0.00833333333333333	0	-30	-3.17291666666667	2	1.05078125
5238.7939453125	0.00833333333333333	0	30	3.9375	1	1.474609375
5242.6181640625	0.00833333333333333	0	30	3.9375	2	0.71484375
5245.4599609375	0.00833333333333333	0	-30	-3.17291666666667	2	1.369140625
5249.119140625	0.00833333333333333	0	-30	-3.17291666666667	1	1.1181640625
5252.3603515625	0.00833333333333333	0	-30	-3.17291666666667	1	0.96484375
5255.4853515625	0.00833333333333333	0	-30	-3.17291666666667	1	0.85546875
5258.6435546875	0.00833333333333333	0	30	3.9375	2	1.3291015625
5262.4853515625	0.00833333333333333	0	30	3.9375	2	1.4404296875
5266.16015625	0.00833333333333333	0	30	3.9375	1	1.189453125
5269.744140625	0.00833333333333333	0	-30	-3.17291666666667	1	1.5732421875
5273.54296875	0.00833333333333333	0	30	3.9375	2	0.798828125
5276.5439453125	0.00833333333333333	0	-30	-3.17291666666667	2	0.6455078125
5279.4931640625	0.00833333333333333	0	30	3.9375	2	2.79296875
5284.376953125	0.00833333333333333	0	30	3.9375	2	0.7412109375
5287.685546875	0.00833333333333333	0	30	3.9375	1	1.2958984375
5291.4267578125	0.00833333333333333	0	-30	-3.17291666666667	2	1.1796875
5294.9599609375	0.00833333333333333	0	30	3.9375	1	1.5341796875
5298.9013671875	0.00833333333333333	0	30	3.9375	1	1.12890625
5302.1181640625	0.00833333333333333	0	-30	-3.17291666666667	1	1.408203125
5305.876953125	0.00833333333333333	0	30	3.9375	1	0.7294921875
5309.0595703125	0.00833333333333333	0	30	3.9375	1	0.7392578125
5312.275390625	0.00833333333333333	0	30	4.0625	2	1.099609375
5315.576171875	0.00833333333333333	0	30	4.0625	2	0.88671875
5319.04296875	0.00833333333333333	0	-30	-3.17291666666667	2	1.5244140625
5322.8515625	0.00833333333333333	0	-30	-3.17291666666667	1	0.947265625
5325.8427734375	0.00833333333333333	0	-30	-3.17291666666667	2	0.748046875
5328.767578125	0.00833333333333333	0	30	4.0625	1	0.86328125
5331.716796875	0.00833333333333333	0	-30	-3.17291666666667	2	0.70703125
5334.9677734375	0.00833333333333333	0	30	4.0625	2	0.615234375
5337.701171875	0.00833333333333333	0	-30	-3.17291666666667	1	0.890625
5340.92578125	0.00833333333333333	0	30	4.0625	2	0.826171875
5343.92578125	0.00833333333333333	0	30	4.0625	2	0.8818359375
5346.9755859375	0.00833333333333333	0	-30	-3.17291666666667	2	1.240234375
5350.400390625	0.00833333333333333	0	30	4.0625	2	0.751953125
5353.4921875	0.00833333333333333	0	-30	-3.17291666666667	2	0.8193359375
5356.8662109375	0.00833333333333333	0	-30	-3.17291666666667	2	0.677734375
5359.6337890625	0.00833333333333333	0	-30	-3.17291666666667	2	3.966796875
5365.875	0.00833333333333333	0	-30	-3.17291666666667	2	0.8212890625
5369.2421875	0.00833333333333333	0	30	4.0625	2	0.88671875
5372.3759765625	0.00833333333333333	0	-30	-3.29791666666667	2	0.6005859375
5375.150390625	0.00833333333333333	0	-30	-3.29791666666667	2	0.74609375
5377.9921875	0.00833333333333333	0	-30	-3.29791666666667	2	0.9609375
5381.3671875	0.00833333333333333	0	-30	-3.29791666666667	2	0.5380859375
5384.1162109375	0.00833333333333333	0	30	3.9375	2	0.6923828125
5387.05859375	0.00833333333333333	0	30	3.9375	2	0.9111328125
5390.4755859375	0.00833333333333333	0	30	3.9375	2	3.3017578125
5396.05859375	0.00833333333333333	0	30	3.9375	2	0.6953125
5399.0498046875	0.00833333333333333	0	30	3.9375	2	0.6875
5401.9248046875	0.00833333333333333	0	-30	-3.29791666666667	1	1.4443359375
5405.8076171875	0.00833333333333333	0	-30	-3.29791666666667	2	0.9384765625
5409.291015625	0.00833333333333333	0	-30	-3.29791666666667	2	0.5908203125
5412.0830078125	0.00833333333333333	0	-30	-3.29791666666667	2	0.54296875
5414.9169921875	0.00833333333333333	0	30	3.8125	2	0.64453125
5417.8251953125	0.00833333333333333	0	30	3.8125	2	0.552734375
5420.5830078125	0.00833333333333333	0	30	3.8125	2	0.6435546875
5423.349609375	0.00833333333333333	0	30	3.8125	2	0.484375
5426.3076171875	0.00833333333333333	0	30	3.8125	2	0.54296875
5429.291015625	0.00833333333333333	0	30	3.6875	2	0.5673828125
5431.9833984375	0.00833333333333333	0	30	3.6875	2	0.68359375
5434.8828125	0.00833333333333333	0	-30	-3.29791666666667	2	1.16015625
5438.2333984375	0.00833333333333333	0	30	3.6875	2	0.78515625
5441.4580078125	0.00833333333333333	0	30	3.6875	2	0.5048828125
5444.19921875	0.00833333333333333	0	-30	-3.29791666666667	2	0.6435546875
5448.1162109375	0.00833333333333333	0	30	3.6875	2	0.5830078125
5450.974609375	0.00833333333333333	0	30	3.5625	1	0.9404296875
5454.107421875	0.00833333333333333	0	-30	-3.42291666666667	1	1.935546875
5458.482421875	0.00833333333333333	0	-30	-3.42291666666667	1	2.201171875
5462.8994140625	0.00833333333333333	0	-30	-3.42291666666667	1	1.544921875
