onset	duration	titr	surround	centre	response	rt
14.123046875	0.00833333333333333	1	30	15	2	0.8115234375
17.296875	0.00833333333333333	1	-30	15	2	4.349609375
23.60546875	0.00833333333333333	1	NaN	-15	1	1.1533203125
26.888671875	0.00833333333333333	1	30	-15	1	0.7900390625
30.1298828125	0.00833333333333333	1	-30	14	2	0.533203125
33.0048828125	0.00833333333333333	1	NaN	-14	1	0.634765625
36.0712890625	0.00833333333333333	1	NaN	-13	1	0.6484375
38.6962890625	0.00833333333333333	1	-30	13	2	0.5908203125
41.3466796875	0.00833333333333333	1	NaN	-12	1	0.6923828125
44.0634765625	0.00833333333333333	1	-30	-15	2	0.51171875
46.6884765625	0.00833333333333333	1	30	14	1	0.83984375
49.73828125	0.00833333333333333	1	NaN	-11	1	0.5732421875
52.4384765625	0.00833333333333333	1	30	15	1	1.3857421875
56.330078125	0.00833333333333333	1	-30	12	2	0.4697265625
59.1630859375	0.00833333333333333	1	NaN	15	2	0.724609375
62.0048828125	0.00833333333333333	1	-30	11	2	0.443359375
64.9375	0.00833333333333333	1	NaN	14	2	0.494140625
67.7548828125	0.00833333333333333	1	30	-14	1	0.5498046875
70.3046875	0.00833333333333333	1	-30	-16	1	1.2158203125
73.7626953125	0.00833333333333333	1	-30	10	2	0.501953125
76.3115234375	0.00833333333333333	1	NaN	13	2	0.5693359375
78.9462890625	0.00833333333333333	1	NaN	12	2	0.6298828125
81.5712890625	0.00833333333333333	1	30	16	1	1.2529296875
84.8955078125	0.00833333333333333	1	NaN	11	2	0.7939453125
87.8623046875	0.00833333333333333	1	-30	9	2	0.7470703125
91.095703125	0.00833333333333333	1	30	-13	1	0.537109375
93.845703125	0.00833333333333333	1	30	17	1	1.1240234375
97.4619140625	0.00833333333333333	1	-30	8	2	0.458984375
100.162109375	0.00833333333333333	1	30	-12	1	0.5361328125
102.7294921875	0.00833333333333333	1	NaN	10	2	0.49609375
105.25390625	0.00833333333333333	1	30	18	2	1.6513671875
109.0126953125	0.00833333333333333	1	-30	-15	1	0.7978515625
111.845703125	0.00833333333333333	1	30	-11	1	0.5322265625
114.5537109375	0.00833333333333333	1	30	17	2	0.6396484375
117.6865234375	0.00833333333333333	1	30	-10	1	0.5556640625
120.5947265625	0.00833333333333333	1	NaN	-10	1	0.455078125
123.01171875	0.00833333333333333	1	NaN	-9	1	0.58984375
126.103515625	0.00833333333333333	1	NaN	9	2	0.73828125
129.01953125	0.00833333333333333	1	NaN	-8	1	0.5029296875
131.703125	0.00833333333333333	1	30	-9	1	0.5712890625
134.51171875	0.00833333333333333	1	NaN	8	2	0.5068359375
137.1455078125	0.00833333333333333	1	30	-8	1	0.544921875
139.8623046875	0.00833333333333333	1	-30	-14	1	0.8525390625
143.0029296875	0.00833333333333333	1	-30	-13	1	0.8720703125
146.27734375	0.00833333333333333	1	NaN	7	2	0.3984375
148.861328125	0.00833333333333333	1	NaN	-7	1	0.4609375
151.578125	0.00833333333333333	1	-30	-12	1	1.0810546875
154.9951171875	0.00833333333333333	1	NaN	-6	1	0.5439453125
157.6533203125	0.00833333333333333	1	-30	7	2	0.517578125
160.353515625	0.00833333333333333	1	-30	6	2	0.3935546875
163.1025390625	0.00833333333333333	1	NaN	-5	1	0.5166015625
166.0029296875	0.00833333333333333	1	NaN	-4	1	0.6162109375
168.8701171875	0.00833333333333333	1	-30	5	2	0.6455078125
171.619140625	0.00833333333333333	1	-30	4	2	0.7041015625
174.435546875	0.00833333333333333	1	NaN	6	2	0.49609375
177.203125	0.00833333333333333	1	NaN	-3	1	0.6171875
180.0439453125	0.00833333333333333	1	NaN	-2	2	0.49609375
182.619140625	0.00833333333333333	1	NaN	-3	1	0.736328125
185.64453125	0.00833333333333333	1	30	-7	1	0.54296875
188.5771484375	0.00833333333333333	1	-30	3	2	0.5546875
191.568359375	0.00833333333333333	1	30	16	1	1.419921875
195.1015625	0.00833333333333333	1	NaN	5	2	0.5107421875
198.0361328125	0.00833333333333333	1	NaN	4	2	0.4326171875
200.869140625	0.00833333333333333	1	-30	2	2	0.591796875
203.744140625	0.00833333333333333	1	-30	1	2	0.64453125
206.51953125	0.00833333333333333	1	-30	0	2	0.548828125
209.28515625	0.00833333333333333	1	30	17	2	0.6796875
212.4599609375	0.00833333333333333	1	-30	-11	2	0.9609375
215.435546875	0.00833333333333333	1	30	-6	1	0.865234375
218.376953125	0.00833333333333333	1	NaN	-2	2	0.6357421875
221.28515625	0.00833333333333333	1	30	16	2	0.6396484375
224.16015625	0.00833333333333333	1	NaN	3	2	0.46875
226.9765625	0.00833333333333333	1	NaN	2	2	0.453125
229.484375	0.00833333333333333	1	-30	-1	2	0.513671875
232.4931640625	0.00833333333333333	1	NaN	-3	1	0.5205078125
235.02734375	0.00833333333333333	1	NaN	1	1	0.9619140625
238.1435546875	0.00833333333333333	1	NaN	-2	1	0.6298828125
241.2431640625	0.00833333333333333	1	30	-5	1	0.4990234375
243.9853515625	0.00833333333333333	1	-30	-12	1	0.6767578125
246.9765625	0.00833333333333333	1	NaN	-1	1	0.8212890625
250.1181640625	0.00833333333333333	1	NaN	2	2	0.4482421875
252.634765625	0.00833333333333333	1	30	15	2	1.5791015625
256.29296875	0.00833333333333333	1	NaN	1	2	0.6572265625
259.2265625	0.00833333333333333	1	30	14	2	0.763671875
261.9931640625	0.00833333333333333	1	NaN	0	1	0.7578125
264.8427734375	0.00833333333333333	1	-30	-11	1	1.779296875
269.0849609375	0.00833333333333333	1	-30	-10	2	0.7294921875
272.1181640625	0.00833333333333333	1	-30	-2	2	0.6650390625
275.0849609375	0.00833333333333333	1	30	13	2	1.2900390625
278.54296875	0.00833333333333333	1	NaN	0	2	0.6640625
281.67578125	0.00833333333333333	1	30	-4	1	0.5078125
284.4755859375	0.00833333333333333	1	-30	-11	1	0.8115234375
287.7509765625	0.00833333333333333	1	30	12	2	1.1279296875
291.359375	0.00833333333333333	1	NaN	1	1	0.9921875
294.30078125	0.00833333333333333	1	NaN	-1	1	0.7470703125
297.484375	0.00833333333333333	1	NaN	0	1	0.5869140625
300.0927734375	0.00833333333333333	1	NaN	1	1	0.69140625
302.93359375	0.00833333333333333	1	30	11	1	0.5390625
305.6845703125	0.00833333333333333	1	NaN	2	2	0.5234375
308.5673828125	0.00833333333333333	1	-30	-3	2	0.6171875
311.3759765625	0.00833333333333333	1	-30	-4	2	0.5205078125
421.4072265625	0.00833333333333333	1	30	12	1	1.0126953125
424.666015625	0.00833333333333333	1	30	13	1	1.3857421875
428.33203125	0.00833333333333333	1	30	-3	1	0.5439453125
431.2490234375	0.00833333333333333	1	30	14	2	0.72265625
433.990234375	0.00833333333333333	1	NaN	2	2	0.7421875
436.923828125	0.00833333333333333	1	NaN	1	1	0.6328125
439.673828125	0.00833333333333333	1	-30	-10	1	1.37890625
443.3564453125	0.00833333333333333	1	NaN	2	2	0.5517578125
445.9990234375	0.00833333333333333	1	NaN	1	1	1.26171875
449.6640625	0.00833333333333333	1	30	13	2	0.884765625
452.95703125	0.00833333333333333	1	30	12	1	1.087890625
456.5068359375	0.00833333333333333	1	-30	-5	2	0.5859375
459.5478515625	0.00833333333333333	1	-30	-6	2	1.033203125
462.5986328125	0.00833333333333333	1	-30	-9	2	0.607421875
465.2392578125	0.00833333333333333	1	NaN	2	2	0.5908203125
468.1474609375	0.00833333333333333	1	30	-2	1	0.5859375
470.9736328125	0.00833333333333333	1	NaN	1	2	0.4638671875
473.615234375	0.00833333333333333	1	-30	-10	1	0.7978515625
476.814453125	0.00833333333333333	1	NaN	0	2	0.439453125
479.6064453125	0.00833333333333333	1	NaN	1	2	0.5986328125
482.5146484375	0.00833333333333333	1	NaN	-1	1	0.5634765625
485.03125	0.00833333333333333	1	-30	-9	1	0.89453125
487.9482421875	0.00833333333333333	1	-30	-7	2	0.5537109375
490.939453125	0.00833333333333333	1	NaN	0	2	0.40234375
493.46484375	0.00833333333333333	1	NaN	0	2	0.8056640625
496.4150390625	0.00833333333333333	1	NaN	-1	1	0.615234375
499.064453125	0.00833333333333333	1	30	13	2	0.7900390625
501.998046875	0.00833333333333333	1	-30	-8	2	0.912109375
504.9140625	0.00833333333333333	1	30	12	2	0.556640625
507.814453125	0.00833333333333333	1	NaN	0	2	0.751953125
510.7392578125	0.00833333333333333	1	-30	-8	2	0.771484375
513.748046875	0.00833333333333333	1	NaN	-1	2	0.787109375
516.748046875	0.00833333333333333	1	-30	-9	1	0.5947265625
519.5888671875	0.00833333333333333	1	30	-1	1	0.578125
522.3056640625	0.00833333333333333	1	NaN	-1	1	0.5732421875
524.90625	0.00833333333333333	1	30	0	1	0.62109375
527.65625	0.00833333333333333	1	30	1	1	0.623046875
530.4560546875	0.00833333333333333	1	-30	-8	2	0.5830078125
533.2890625	0.00833333333333333	1	-30	-9	2	0.8701171875
536.296875	0.00833333333333333	1	NaN	-2	1	0.662109375
538.98046875	0.00833333333333333	1	30	11	2	0.69140625
541.6640625	0.00833333333333333	1	-30	-9	1	0.83203125
544.59765625	0.00833333333333333	1	30	2	1	0.681640625
547.671875	0.00833333333333333	1	-30	-8	1	0.431640625
550.5302734375	0.00833333333333333	1	-30	-7	1	0.853515625
553.5546875	0.00833333333333333	1	-30	-6	2	0.5419921875
556.296875	0.00833333333333333	1	-30	-7	1	0.86328125
559.505859375	0.00833333333333333	1	NaN	0	1	1.0302734375
562.771484375	0.00833333333333333	1	-30	-10	1	0.8525390625
565.763671875	0.00833333333333333	1	30	10	2	0.8203125
569.0048828125	0.00833333333333333	1	-30	-9	1	0.8115234375
571.9306640625	0.00833333333333333	1	-30	-6	1	2.7900390625
576.7880859375	0.00833333333333333	1	30	9	1	1.29296875
580.35546875	0.00833333333333333	1	NaN	1	2	1.59765625
584.23828125	0.00833333333333333	1	30	3	1	0.6669921875
586.9541015625	0.00833333333333333	1	-30	-8	1	0.6630859375
590.087890625	0.00833333333333333	1	-30	-7	2	0.552734375
592.837890625	0.00833333333333333	1	30	10	1	1.1796875
596.4296875	0.00833333333333333	1	30	11	2	0.755859375
599.396484375	0.00833333333333333	1	30	4	1	0.5166015625
601.9296875	0.00833333333333333	1	-30	-5	2	0.744140625
604.98828125	0.00833333333333333	1	30	5	1	1.26171875
608.37890625	0.00833333333333333	1	-30	-6	2	0.5185546875
611.1044921875	0.00833333333333333	1	-30	-7	2	0.77734375
614.24609375	0.00833333333333333	1	-30	-8	1	0.68359375
616.904296875	0.00833333333333333	1	30	6	1	0.9775390625
619.9130859375	0.00833333333333333	1	-30	-7	1	1.0732421875
623.462890625	0.00833333333333333	1	30	7	1	0.931640625
626.4033203125	0.00833333333333333	1	-30	-6	2	1.134765625
629.7705078125	0.00833333333333333	1	-30	-7	2	0.6796875
632.8125	0.00833333333333333	1	30	8	2	0.7666015625
635.779296875	0.00833333333333333	1	-30	-8	1	0.8076171875
638.9111328125	0.00833333333333333	1	-30	-7	1	1.1318359375
642.1708984375	0.00833333333333333	1	30	7	1	0.7275390625
645.0537109375	0.00833333333333333	1	30	8	2	0.9970703125
648.1875	0.00833333333333333	1	30	7	1	0.599609375
651.0791015625	0.00833333333333333	1	-30	-6	2	0.84375
653.9541015625	0.00833333333333333	1	30	8	2	2.609375
658.8876953125	0.00833333333333333	1	30	7	1	1.3154296875
662.3701171875	0.00833333333333333	1	30	8	2	0.7060546875
665.4873046875	0.00833333333333333	1	30	7	1	0.908203125
668.494140625	0.00833333333333333	1	30	8	2	0.7255859375
671.6787109375	0.00833333333333333	1	30	7	2	1.4052734375
675.4189453125	0.00833333333333333	1	30	6	2	0.9052734375
678.802734375	0.00833333333333333	1	30	5	1	0.865234375
682.1376953125	0.00833333333333333	1	30	9.91666666666667	1	0.8427734375
685.2705078125	0.00833333333333333	1	NaN	0.833333333333333	1	0.9814453125
688.50390625	0.00833333333333333	1	NaN	0.958333333333333	2	0.4921875
690.9619140625	0.00833333333333333	1	30	10.0416666666667	1	0.73046875
693.9619140625	0.00833333333333333	1	30	8.91666666666667	1	0.7939453125
697.1201171875	0.00833333333333333	1	30	9.04166666666667	1	0.6044921875
699.794921875	0.00833333333333333	1	-30	-8.41666666666667	1	0.7373046875
702.927734375	0.00833333333333333	1	-30	-8.29166666666667	1	0.708984375
705.953125	0.00833333333333333	1	-30	-8.16666666666667	1	2.02734375
710.419921875	0.00833333333333333	1	30	9.16666666666667	1	1.4248046875
713.853515625	0.00833333333333333	1	30	9.29166666666667	1	0.951171875
716.986328125	0.00833333333333333	1	-30	-7.41666666666667	2	3.4267578125
771.810546875	0.00833333333333333	1	-30	-7.54166666666667	2	3.2841796875
777.3515625	0.00833333333333333	1	NaN	0.833333333333333	2	0.759765625
780.318359375	0.00833333333333333	1	30	9.41666666666667	2	1.15234375
783.9189453125	0.00833333333333333	1	30	10.1666666666667	2	0.640625
786.568359375	0.00833333333333333	1	NaN	-0.166666666666667	1	0.5107421875
789.376953125	0.00833333333333333	1	-30	-8.04166666666667	2	0.5830078125
792.1181640625	0.00833333333333333	1	-30	-8.16666666666667	2	0.697265625
794.810546875	0.00833333333333333	1	30	10.0416666666667	2	0.8935546875
798.068359375	0.00833333333333333	1	30	9.29166666666667	2	0.69140625
800.78515625	0.00833333333333333	1	NaN	0.708333333333333	2	0.7666015625
804.0185546875	0.00833333333333333	1	30	9.91666666666667	2	0.693359375
806.7685546875	0.00833333333333333	1	NaN	-0.0416666666666667	2	0.751953125
809.71875	0.00833333333333333	1	-30	-8.29166666666667	2	0.650390625
812.8515625	0.00833333333333333	1	-30	-7.66666666666667	2	0.7490234375
816.017578125	0.00833333333333333	1	30	9.16666666666667	2	0.791015625
819.251953125	0.00833333333333333	1	30	9.04166666666667	2	0.828125
822.126953125	0.00833333333333333	1	-30	-8.41666666666667	1	0.75390625
824.91015625	0.00833333333333333	1	-30	-8.29166666666667	2	0.498046875
827.7763671875	0.00833333333333333	1	NaN	-0.166666666666667	2	1.064453125
831.29296875	0.00833333333333333	1	30	9.79166666666667	2	2.068359375
835.8017578125	0.00833333333333333	1	-30	-7.79166666666667	1	0.83984375
839.0927734375	0.00833333333333333	1	-30	-7.66666666666667	2	0.6767578125
842.1591796875	0.00833333333333333	1	30	8.91666666666667	2	0.6416015625
845.2763671875	0.00833333333333333	1	-30	-8.41666666666667	1	0.541015625
848.091796875	0.00833333333333333	1	NaN	0.583333333333333	1	1.0537109375
851.466796875	0.00833333333333333	1	-30	-8.29166666666667	1	0.8544921875
854.7001953125	0.00833333333333333	1	NaN	0.708333333333333	1	0.876953125
857.5498046875	0.00833333333333333	1	30	9.66666666666667	2	0.8994140625
860.5	0.00833333333333333	1	-30	-7.79166666666667	2	0.822265625
863.3837890625	0.00833333333333333	1	-30	-7.91666666666667	1	0.7861328125
866.484375	0.00833333333333333	1	30	8.79166666666667	1	1.09375
869.625	0.00833333333333333	1	30	9.54166666666667	2	0.6650390625
872.5166015625	0.00833333333333333	1	-30	-8.16666666666667	1	0.9091796875
875.7509765625	0.00833333333333333	1	-30	-8.04166666666667	1	0.7158203125
878.5009765625	0.00833333333333333	1	30	9.41666666666667	1	0.9970703125
881.68359375	0.00833333333333333	1	-30	-7.91666666666667	1	0.7509765625
884.55859375	0.00833333333333333	1	-30	-7.79166666666667	1	1.2197265625
888.05078125	0.00833333333333333	1	-30	-7.79166666666667	2	0.6875
891.216796875	0.00833333333333333	1	30	8.91666666666667	1	0.7939453125
894.283203125	0.00833333333333333	1	NaN	-0.291666666666667	2	2.904296875
899.6416015625	0.00833333333333333	1	NaN	0.833333333333333	1	0.697265625
902.42578125	0.00833333333333333	1	-30	-7.66666666666667	2	1.0341796875
905.4169921875	0.00833333333333333	1	30	9.54166666666667	2	0.994140625
908.525390625	0.00833333333333333	1	NaN	0.958333333333333	1	1.1259765625
911.708984375	0.00833333333333333	1	-30	-7.91666666666667	1	0.7265625
914.8330078125	0.00833333333333333	1	30	9.41666666666667	2	0.890625
917.716796875	0.00833333333333333	1	30	9.29166666666667	1	0.8310546875
920.68359375	0.00833333333333333	1	NaN	-0.416666666666667	1	0.904296875
923.9169921875	0.00833333333333333	1	-30	-7.79166666666667	2	0.5751953125
926.5751953125	0.00833333333333333	1	NaN	1.08333333333333	2	0.9013671875
929.8916015625	0.00833333333333333	1	30	9.41666666666667	2	0.7841796875
933.0419921875	0.00833333333333333	1	-30	-7.91666666666667	1	0.6982421875
936.1083984375	0.00833333333333333	1	30	9.04166666666667	2	0.7119140625
938.93359375	0.00833333333333333	1	-30	-7.79166666666667	1	1.0546875
942.31640625	0.00833333333333333	1	-30	-7.79166666666667	1	1.16015625
945.94921875	0.00833333333333333	1	NaN	-0.291666666666667	1	0.9677734375
949.3662109375	0.00833333333333333	1	-30	-7.66666666666667	2	1.0703125
952.6748046875	0.00833333333333333	1	30	8.91666666666667	1	1.3623046875
956.2158203125	0.00833333333333333	1	NaN	0.958333333333333	1	0.61328125
959.224609375	0.00833333333333333	1	30	9.29166666666667	2	0.9404296875
962.20703125	0.00833333333333333	1	NaN	1.08333333333333	1	0.7578125
965.107421875	0.00833333333333333	1	30	9.16666666666667	1	0.921875
968.357421875	0.00833333333333333	1	-30	-7.66666666666667	1	1.072265625
971.5654296875	0.00833333333333333	1	NaN	-0.166666666666667	1	0.935546875
974.849609375	0.00833333333333333	1	-30	-7.54166666666667	1	1.3720703125
978.482421875	0.00833333333333333	1	30	9.29166666666667	2	0.9873046875
981.4990234375	0.00833333333333333	1	NaN	-0.0416666666666667	2	0.9951171875
984.998046875	0.00833333333333333	1	-30	-7.79166666666667	2	1.015625
988.107421875	0.00833333333333333	1	NaN	-0.166666666666667	1	2.291015625
992.5322265625	0.00833333333333333	1	NaN	-0.0416666666666667	1	0.8662109375
995.44921875	0.00833333333333333	1	-30	-7.41666666666667	1	1.4208984375
999.015625	0.00833333333333333	1	30	9.04166666666667	2	0.791015625
1002.07421875	0.00833333333333333	1	30	9.16666666666667	1	1.1962890625
1005.70703125	0.00833333333333333	1	30	8.91666666666667	2	2.99609375
1011.1650390625	0.00833333333333333	1	30	9.29166666666667	1	1.3134765625
1014.7734375	0.00833333333333333	1	30	9.41666666666667	2	1.2490234375
1018.2900390625	0.00833333333333333	1	NaN	1.20833333333333	2	0.9091796875
1021.4736328125	0.00833333333333333	1	-30	-7.91666666666667	2	0.8212890625
1024.3740234375	0.00833333333333333	1	NaN	0.0833333333333333	1	0.9775390625
1027.6484375	0.00833333333333333	1	NaN	1.08333333333333	2	0.7666015625
1030.83203125	0.00833333333333333	1	-30	-7.29166666666667	2	0.7275390625
1033.7568359375	0.00833333333333333	1	-30	-7.41666666666667	2	0.802734375
1036.58984375	0.00833333333333333	1	NaN	0.208333333333333	2	1.4580078125
1040.4736328125	0.00833333333333333	1	-30	-7.54166666666667	2	1.181640625
1043.70703125	0.00833333333333333	1	NaN	0.0833333333333333	1	0.96484375
1046.6318359375	0.00833333333333333	1	NaN	0.208333333333333	2	0.7919921875
1049.630859375	0.00833333333333333	1	-30	-7.66666666666667	2	0.76953125
1052.505859375	0.00833333333333333	1	30	8.79166666666667	2	0.57421875
1055.5556640625	0.00833333333333333	1	-30	-8.04166666666667	1	0.6767578125
1058.439453125	0.00833333333333333	1	30	9.29166666666667	2	0.873046875
1061.3642578125	0.00833333333333333	1	30	8.66666666666667	2	0.6201171875
1064.1982421875	0.00833333333333333	1	30	9.16666666666667	2	0.578125
1066.7900390625	0.00833333333333333	1	NaN	0.0833333333333333	2	0.6103515625
1069.681640625	0.00833333333333333	1	30	8.54166666666667	1	0.8466796875
1133.8798828125	0.00833333333333333	1	NaN	-0.0416666666666667	2	0.626953125
1136.4970703125	0.00833333333333333	1	NaN	0.958333333333333	1	1.025390625
1139.5302734375	0.00833333333333333	1	30	9.04166666666667	1	0.6484375
1142.322265625	0.00833333333333333	1	NaN	1.08333333333333	2	0.873046875
1145.296875	0.00833333333333333	1	-30	-7.79166666666667	2	0.642578125
1148.287109375	0.00833333333333333	1	30	8.66666666666667	2	1.244140625
1151.763671875	0.00833333333333333	1	NaN	0.958333333333333	2	0.52734375
1154.5703125	0.00833333333333333	1	-30	-7.91666666666667	1	1.6015625
1158.6552734375	0.00833333333333333	1	NaN	-0.166666666666667	2	0.916015625
1161.763671875	0.00833333333333333	1	-30	-7.91666666666667	2	0.583984375
1164.337890625	0.00833333333333333	1	30	8.54166666666667	2	0.7705078125
1167.3623046875	0.00833333333333333	1	NaN	0.833333333333333	1	0.9853515625
1170.3623046875	0.00833333333333333	1	NaN	-0.291666666666667	2	1.017578125
1173.5048828125	0.00833333333333333	1	NaN	-0.416666666666667	2	0.7958984375
1176.3125	0.00833333333333333	1	-30	-7.79166666666667	2	0.763671875
1179.404296875	0.00833333333333333	1	-30	-8.04166666666667	2	0.8642578125
1182.4208984375	0.00833333333333333	1	-30	-7.91666666666667	2	1.4638671875
1186.0458984375	0.00833333333333333	1	NaN	0.958333333333333	2	0.5341796875
1188.720703125	0.00833333333333333	1	-30	-8.16666666666667	2	0.595703125
1191.529296875	0.00833333333333333	1	NaN	-0.541666666666667	1	0.8037109375
1194.5791015625	0.00833333333333333	1	NaN	0.833333333333333	2	0.59375
1197.4873046875	0.00833333333333333	1	-30	-8.29166666666667	1	0.7333984375
1200.4873046875	0.00833333333333333	1	30	8.41666666666667	2	0.6533203125
1203.5615234375	0.00833333333333333	1	30	8.29166666666667	2	0.8916015625
1206.7041015625	0.00833333333333333	1	30	9.16666666666667	2	0.6533203125
1209.345703125	0.00833333333333333	1	30	8.16666666666667	2	1.267578125
1212.9541015625	0.00833333333333333	1	-30	-8.04166666666667	1	0.794921875
1216.1708984375	0.00833333333333333	1	30	9.04166666666667	1	1.0341796875
1219.5458984375	0.00833333333333333	1	-30	-8.16666666666667	2	1.1875
1222.904296875	0.00833333333333333	1	NaN	0.708333333333333	2	0.59765625
1225.8955078125	0.00833333333333333	1	NaN	0.583333333333333	1	1.56640625
1229.5537109375	0.00833333333333333	1	-30	-7.91666666666667	1	0.7080078125
1232.662109375	0.00833333333333333	1	-30	-7.79166666666667	1	0.7275390625
1235.7119140625	0.00833333333333333	1	NaN	0.708333333333333	1	0.6142578125
1238.7529296875	0.00833333333333333	1	30	9.16666666666667	2	0.884765625
1241.7705078125	0.00833333333333333	1	30	8.04166666666667	1	1.02734375
1244.9541015625	0.00833333333333333	1	30	8.16666666666667	1	0.5322265625
1247.537109375	0.00833333333333333	1	NaN	0.833333333333333	1	1.044921875
1250.9287109375	0.00833333333333333	1	-30	-8.29166666666667	1	2.3095703125
1255.3623046875	0.00833333333333333	1	30	9.04166666666667	1	1.396484375
1258.9033203125	0.00833333333333333	1	NaN	-0.416666666666667	1	0.51171875
1261.736328125	0.00833333333333333	1	30	9.16666666666667	2	0.791015625
1264.6953125	0.00833333333333333	1	NaN	-0.291666666666667	1	0.591796875
1267.51171875	0.00833333333333333	1	-30	-7.66666666666667	1	0.783203125
1270.4619140625	0.00833333333333333	1	-30	-8.16666666666667	1	0.5615234375
1273.236328125	0.00833333333333333	1	-30	-7.54166666666667	1	0.6904296875
1275.9619140625	0.00833333333333333	1	NaN	0.958333333333333	2	0.6943359375
1279.01953125	0.00833333333333333	1	NaN	-0.166666666666667	1	0.595703125
1282.0615234375	0.00833333333333333	1	30	8.29166666666667	2	0.6181640625
1284.9033203125	0.00833333333333333	1	-30	-7.41666666666667	2	0.912109375
1288.1025390625	0.00833333333333333	1	NaN	0.833333333333333	2	0.880859375
1291.3447265625	0.00833333333333333	1	NaN	0.708333333333333	1	0.9833984375
1294.369140625	0.00833333333333333	1	NaN	0.833333333333333	1	1.2548828125
1297.9599609375	0.00833333333333333	1	-30	-8.04166666666667	1	1
1301.26171875	0.00833333333333333	1	-30	-7.91666666666667	2	2.5380859375
1306.1689453125	0.00833333333333333	1	NaN	0.958333333333333	2	0.7197265625
1309.318359375	0.00833333333333333	1	-30	-8.04166666666667	1	0.7861328125
1312.5439453125	0.00833333333333333	1	30	8.16666666666667	2	1.13671875
1316.02734375	0.00833333333333333	1	-30	-7.91666666666667	1	0.9091796875
1319.111328125	0.00833333333333333	1	30	8.04166666666667	2	1.041015625
1322.5029296875	0.00833333333333333	1	30	7.91666666666667	1	1.2734375
1325.77734375	0.00833333333333333	1	NaN	-0.0416666666666667	1	1.03125
1328.935546875	0.00833333333333333	1	-30	-7.54166666666667	1	0.7216796875
1331.7529296875	0.00833333333333333	1	-30	-7.41666666666667	1	0.712890625
1334.5361328125	0.00833333333333333	1	30	8.04166666666667	2	0.8017578125
1337.302734375	0.00833333333333333	1	-30	-7.29166666666667	1	0.634765625
1340.03515625	0.00833333333333333	1	30	7.91666666666667	2	0.9345703125
1343.0185546875	0.00833333333333333	1	NaN	0.833333333333333	1	0.86328125
1345.9189453125	0.00833333333333333	1	-30	-7.16666666666667	2	1.4111328125
1349.7431640625	0.00833333333333333	1	NaN	0.958333333333333	1	0.650390625
1352.8427734375	0.00833333333333333	1	-30	-7.79166666666667	2	0.767578125
1355.6689453125	0.00833333333333333	1	-30	-7.29166666666667	1	0.7890625
1358.66015625	0.00833333333333333	1	-30	-7.91666666666667	2	0.677734375
1361.3935546875	0.00833333333333333	1	NaN	1.08333333333333	1	0.5771484375
1364.3515625	0.00833333333333333	1	-30	-7.16666666666667	1	0.7861328125
1367.193359375	0.00833333333333333	1	NaN	0.0833333333333333	2	0.5927734375
1369.994140625	0.00833333333333333	1	30	7.79166666666667	2	0.7197265625
1373.009765625	0.00833333333333333	1	NaN	1.20833333333333	2	0.6884765625
1376.16796875	0.00833333333333333	1	30	7.66666666666667	2	0.5302734375
1378.935546875	0.00833333333333333	1	-30	-8.04166666666667	1	0.626953125
1381.66796875	0.00833333333333333	1	-30	-7.04166666666667	2	0.56640625
1384.3017578125	0.00833333333333333	1	30	7.54166666666667	2	0.5732421875
1386.943359375	0.00833333333333333	1	30	7.41666666666667	2	0.67578125
1390.083984375	0.00833333333333333	1	30	7.29166666666667	2	0.6630859375
1392.9345703125	0.00833333333333333	1	NaN	-0.0416666666666667	2	0.724609375
1395.7265625	0.00833333333333333	1	NaN	-0.166666666666667	1	0.724609375
1398.6015625	0.00833333333333333	1	NaN	-0.0416666666666667	2	0.4580078125
1401.076171875	0.00833333333333333	1	30	7.16666666666667	2	0.5830078125
1403.66796875	0.00833333333333333	1	NaN	-0.166666666666667	2	0.5830078125
1406.6181640625	0.00833333333333333	1	30	7.04166666666667	2	0.5048828125
1409.41015625	0.00833333333333333	1	NaN	-0.291666666666667	2	0.4814453125
1412.201171875	0.00833333333333333	1	30	6.91666666666667	2	0.72265625
1414.91796875	0.00833333333333333	1	NaN	-0.416666666666667	2	0.494140625
1417.642578125	0.00833333333333333	1	NaN	-0.541666666666667	1	0.73828125
1420.451171875	0.00833333333333333	1	30	6.79166666666667	2	0.560546875
1423.18359375	0.00833333333333333	1	NaN	-0.416666666666667	1	0.6923828125
1426.009765625	0.00833333333333333	1	30	6.66666666666667	2	0.802734375
1429.04296875	0.00833333333333333	1	30	6.54166666666667	1	0.857421875
1431.984375	0.00833333333333333	1	NaN	-0.291666666666667	1	0.9482421875
1474.7421875	0.00833333333333333	1	30	6.66666666666667	1	1.0078125
1477.9169921875	0.00833333333333333	1	30	6.79166666666667	2	0.5849609375
1480.650390625	0.00833333333333333	1	30	6.66666666666667	1	1.4677734375
1484.2578125	0.00833333333333333	1	NaN	-0.166666666666667	1	0.66796875
1486.93359375	0.00833333333333333	1	NaN	-0.0416666666666667	2	0.625
1489.5498046875	0.00833333333333333	1	NaN	-0.166666666666667	1	0.7041015625
1492.3583984375	0.00833333333333333	1	NaN	-0.0416666666666667	2	0.7119140625
1495.2919921875	0.00833333333333333	1	30	6.79166666666667	2	0.7470703125
1498.4833984375	0.00833333333333333	0	-30	-7.76666666666667	1	0.8193359375
1501.408203125	0.00833333333333333	0	-30	-7.76666666666667	2	0.54296875
1504.31640625	0.00833333333333333	0	30	8.39791666666667	2	0.73828125
1507.3330078125	0.00833333333333333	0	30	8.39791666666667	2	0.8173828125
1510.416015625	0.00833333333333333	0	30	8.39791666666667	2	0.6064453125
1513.1416015625	0.00833333333333333	0	-30	-7.76666666666667	2	1.3056640625
1516.6826171875	0.00833333333333333	0	30	8.39791666666667	1	0.8046875
1519.6240234375	0.00833333333333333	0	-30	-7.76666666666667	1	0.615234375
1522.2998046875	0.00833333333333333	0	30	8.39791666666667	2	0.603515625
1525.0166015625	0.00833333333333333	0	30	8.39791666666667	2	0.56640625
1527.8828125	0.00833333333333333	0	30	8.39791666666667	2	0.5888671875
1530.658203125	0.00833333333333333	0	-30	-7.76666666666667	2	0.90234375
1534.041015625	0.00833333333333333	0	30	8.39791666666667	1	2.57421875
1538.8486328125	0.00833333333333333	0	30	8.39791666666667	2	0.6474609375
1541.8828125	0.00833333333333333	0	-30	-7.76666666666667	2	0.5732421875
1544.7158203125	0.00833333333333333	0	30	8.39791666666667	1	0.7724609375
1547.8662109375	0.00833333333333333	0	30	8.39791666666667	1	0.7421875
1550.8076171875	0.00833333333333333	0	30	8.39791666666667	2	0.46484375
1553.357421875	0.00833333333333333	0	30	8.39791666666667	2	0.5546875
1556.2744140625	0.00833333333333333	0	-30	-7.76666666666667	2	0.91796875
1559.20703125	0.00833333333333333	0	-30	-7.76666666666667	1	0.8251953125
1562.291015625	0.00833333333333333	0	30	8.39791666666667	2	0.62109375
1564.9736328125	0.00833333333333333	0	-30	-7.76666666666667	1	1.291015625
1568.46484375	0.00833333333333333	0	-30	-7.76666666666667	1	0.7919921875
1571.5068359375	0.00833333333333333	0	-30	-7.76666666666667	2	0.5498046875
1574.3310546875	0.00833333333333333	0	-30	-7.76666666666667	1	0.6376953125
1577.048828125	0.00833333333333333	0	30	8.39791666666667	1	0.7919921875
1580.2236328125	0.00833333333333333	0	-30	-7.76666666666667	2	0.513671875
1583.1318359375	0.00833333333333333	0	30	8.39791666666667	2	0.7177734375
1586.0234375	0.00833333333333333	0	-30	-7.76666666666667	1	0.75390625
1589.1240234375	0.00833333333333333	0	30	8.39791666666667	2	0.59765625
1591.71484375	0.00833333333333333	0	-30	-7.76666666666667	1	0.6708984375
1594.3984375	0.00833333333333333	0	30	8.39791666666667	2	0.779296875
1597.5400390625	0.00833333333333333	0	-30	-7.76666666666667	2	0.685546875
1600.6064453125	0.00833333333333333	0	30	8.39791666666667	2	0.619140625
1603.6064453125	0.00833333333333333	0	30	8.39791666666667	2	0.5791015625
1606.431640625	0.00833333333333333	0	30	8.27291666666667	2	0.5302734375
1609.3896484375	0.00833333333333333	0	30	8.27291666666667	2	0.484375
1611.9150390625	0.00833333333333333	0	30	8.27291666666667	2	0.5908203125
1614.6552734375	0.00833333333333333	0	-30	-7.76666666666667	2	0.7470703125
1617.623046875	0.00833333333333333	0	-30	-7.76666666666667	1	0.5556640625
1620.6396484375	0.00833333333333333	0	-30	-7.76666666666667	2	0.4990234375
1623.15625	0.00833333333333333	0	-30	-7.76666666666667	1	0.6142578125
1625.90625	0.00833333333333333	0	30	8.27291666666667	2	0.896484375
1628.8232421875	0.00833333333333333	0	-30	-7.76666666666667	2	0.5556640625
1631.3896484375	0.00833333333333333	0	30	8.27291666666667	2	0.541015625
1634.3310546875	0.00833333333333333	0	-30	-7.76666666666667	2	0.6796875
1637.314453125	0.00833333333333333	0	30	8.14791666666667	2	0.583984375
1639.998046875	0.00833333333333333	0	30	8.14791666666667	2	0.62109375
1642.84765625	0.00833333333333333	0	-30	-7.76666666666667	2	0.923828125
1646.21484375	0.00833333333333333	0	-30	-7.76666666666667	1	0.5888671875
1648.9638671875	0.00833333333333333	0	-30	-7.76666666666667	2	1.20703125
1652.314453125	0.00833333333333333	0	30	8.14791666666667	2	0.9609375
1655.7060546875	0.00833333333333333	0	30	8.14791666666667	2	1.1611328125
1659.23828125	0.00833333333333333	0	-30	-7.76666666666667	1	0.9013671875
1662.380859375	0.00833333333333333	0	-30	-7.76666666666667	1	0.9111328125
1665.2724609375	0.00833333333333333	0	30	8.14791666666667	1	1.0751953125
1668.7890625	0.00833333333333333	0	-30	-7.76666666666667	1	0.7666015625
1671.763671875	0.00833333333333333	0	-30	-7.76666666666667	2	0.9609375
1674.763671875	0.00833333333333333	0	-30	-7.76666666666667	2	0.6005859375
1677.388671875	0.00833333333333333	0	-30	-7.76666666666667	1	0.599609375
1680.4052734375	0.00833333333333333	0	-30	-7.76666666666667	1	0.6796875
1683.4970703125	0.00833333333333333	0	-30	-7.76666666666667	1	0.7470703125
1686.296875	0.00833333333333333	0	30	8.14791666666667	1	0.6123046875
1688.962890625	0.00833333333333333	0	-30	-7.76666666666667	2	0.8818359375
1692.0888671875	0.00833333333333333	0	30	8.14791666666667	1	0.8759765625
1695.2138671875	0.00833333333333333	0	-30	-7.76666666666667	1	0.7431640625
1698.1884765625	0.00833333333333333	0	30	8.14791666666667	1	0.6240234375
1701.205078125	0.00833333333333333	0	-30	-7.76666666666667	2	0.6240234375
1703.955078125	0.00833333333333333	0	30	8.14791666666667	1	1.0419921875
1707.4140625	0.00833333333333333	0	30	8.27291666666667	1	1.046875
1710.6962890625	0.00833333333333333	0	30	8.27291666666667	2	0.96484375
1713.85546875	0.00833333333333333	0	-30	-7.76666666666667	1	0.822265625
1717.1220703125	0.00833333333333333	0	30	8.27291666666667	1	1.267578125
1720.5634765625	0.00833333333333333	0	30	8.27291666666667	1	0.5302734375
1723.205078125	0.00833333333333333	0	-30	-7.76666666666667	1	0.6728515625
1726.2880859375	0.00833333333333333	0	30	8.27291666666667	1	1.5341796875
1730.0380859375	0.00833333333333333	0	-30	-7.76666666666667	1	0.919921875
1733.412109375	0.00833333333333333	0	30	8.27291666666667	2	0.76953125
1736.3046875	0.00833333333333333	0	-30	-7.76666666666667	1	0.61328125
1792.4794921875	0.00833333333333333	0	30	8.27291666666667	2	1.2490234375
1795.9375	0.00833333333333333	0	-30	-7.76666666666667	1	0.8701171875
1799.1953125	0.00833333333333333	0	-30	-7.64166666666667	2	0.701171875
1802.0869140625	0.00833333333333333	0	-30	-7.64166666666667	2	0.5771484375
1805.00390625	0.00833333333333333	0	30	8.27291666666667	2	1.2041015625
1808.3291015625	0.00833333333333333	0	-30	-7.64166666666667	1	0.951171875
1811.3037109375	0.00833333333333333	0	30	8.27291666666667	2	1.2490234375
1814.720703125	0.00833333333333333	0	-30	-7.64166666666667	2	0.83984375
1817.6201171875	0.00833333333333333	0	-30	-7.64166666666667	1	0.6044921875
1820.5869140625	0.00833333333333333	0	-30	-7.64166666666667	1	0.734375
1823.669921875	0.00833333333333333	0	30	8.27291666666667	2	0.939453125
1826.8115234375	0.00833333333333333	0	-30	-7.64166666666667	2	0.701171875
1829.744140625	0.00833333333333333	0	-30	-7.64166666666667	1	0.6494140625
1832.38671875	0.00833333333333333	0	-30	-7.64166666666667	1	0.6943359375
1835.169921875	0.00833333333333333	0	-30	-7.64166666666667	1	1.2001953125
1838.578125	0.00833333333333333	0	30	8.14791666666667	1	0.5517578125
1841.4111328125	0.00833333333333333	0	30	8.14791666666667	2	0.7587890625
1844.578125	0.00833333333333333	0	-30	-7.64166666666667	1	0.6552734375
1847.703125	0.00833333333333333	0	-30	-7.64166666666667	1	0.8193359375
1850.802734375	0.00833333333333333	0	-30	-7.51666666666667	2	0.55078125
1853.39453125	0.00833333333333333	0	-30	-7.51666666666667	1	0.6708984375
1856.2939453125	0.00833333333333333	0	-30	-7.51666666666667	1	0.916015625
1859.603515625	0.00833333333333333	0	30	8.14791666666667	2	0.5908203125
1862.486328125	0.00833333333333333	0	30	8.14791666666667	1	0.4921875
1864.994140625	0.00833333333333333	0	-30	-7.51666666666667	1	0.552734375
1867.869140625	0.00833333333333333	0	-30	-7.51666666666667	1	0.701171875
1870.6943359375	0.00833333333333333	0	30	8.14791666666667	1	1.9404296875
1874.869140625	0.00833333333333333	0	30	8.14791666666667	1	0.525390625
1877.6025390625	0.00833333333333333	0	-30	-7.51666666666667	1	0.640625
1880.4599609375	0.00833333333333333	0	-30	-7.39166666666667	1	1.0068359375
1883.5361328125	0.00833333333333333	0	30	8.14791666666667	1	0.802734375
1886.5439453125	0.00833333333333333	0	-30	-7.39166666666667	2	0.5068359375
1889.443359375	0.00833333333333333	0	30	8.14791666666667	1	0.5673828125
1892.185546875	0.00833333333333333	0	-30	-7.39166666666667	1	0.666015625
1895.1767578125	0.00833333333333333	0	30	8.27291666666667	1	0.650390625
1898.09375	0.00833333333333333	0	-30	-7.39166666666667	1	0.78125
1900.8193359375	0.00833333333333333	0	30	8.27291666666667	2	0.6318359375
1903.7353515625	0.00833333333333333	0	30	8.27291666666667	1	0.7080078125
1906.5693359375	0.00833333333333333	0	-30	-7.39166666666667	1	0.73046875
1909.5859375	0.00833333333333333	0	-30	-7.39166666666667	1	0.9775390625
1912.53515625	0.00833333333333333	0	-30	-7.39166666666667	2	1.7646484375
1916.501953125	0.00833333333333333	0	-30	-7.39166666666667	1	0.669921875
1919.3349609375	0.00833333333333333	0	-30	-7.39166666666667	2	0.541015625
1921.8935546875	0.00833333333333333	0	-30	-7.39166666666667	2	0.974609375
1924.91796875	0.00833333333333333	0	30	8.27291666666667	2	0.822265625
1927.7685546875	0.00833333333333333	0	-30	-7.39166666666667	1	0.7080078125
1930.78515625	0.00833333333333333	0	30	8.27291666666667	2	0.9228515625
1933.8017578125	0.00833333333333333	0	-30	-7.39166666666667	1	0.8515625
1936.8349609375	0.00833333333333333	0	30	8.27291666666667	2	0.681640625
1939.9599609375	0.00833333333333333	0	-30	-7.39166666666667	1	1.2451171875
1943.2587890625	0.00833333333333333	0	30	8.27291666666667	2	0.8740234375
1946.4853515625	0.00833333333333333	0	30	8.27291666666667	2	0.6875
1949.609375	0.00833333333333333	0	-30	-7.39166666666667	2	0.66796875
1952.7421875	0.00833333333333333	0	-30	-7.39166666666667	2	0.55078125
1955.576171875	0.00833333333333333	0	30	8.14791666666667	1	0.884765625
1958.7099609375	0.00833333333333333	0	-30	-7.39166666666667	1	0.759765625
1961.6767578125	0.00833333333333333	0	30	8.14791666666667	2	0.8486328125
1964.892578125	0.00833333333333333	0	-30	-7.39166666666667	1	0.7451171875
1968.03515625	0.00833333333333333	0	-30	-7.39166666666667	2	0.6103515625
1970.9345703125	0.00833333333333333	0	30	8.14791666666667	2	0.5830078125
1973.8681640625	0.00833333333333333	0	-30	-7.39166666666667	1	0.609375
1976.8095703125	0.00833333333333333	0	-30	-7.39166666666667	2	0.6279296875
1979.8251953125	0.00833333333333333	0	-30	-7.39166666666667	1	0.62109375
1982.568359375	0.00833333333333333	0	-30	-7.39166666666667	1	0.7421875
1985.6669921875	0.00833333333333333	0	-30	-7.39166666666667	1	0.6591796875
1988.7763671875	0.00833333333333333	0	30	8.14791666666667	1	0.677734375
1991.8173828125	0.00833333333333333	0	-30	-7.39166666666667	1	1.037109375
1995.2431640625	0.00833333333333333	0	-30	-7.39166666666667	2	0.771484375
1998.484375	0.00833333333333333	0	-30	-7.39166666666667	2	1.234375
2001.892578125	0.00833333333333333	0	-30	-7.39166666666667	1	0.9619140625
2004.93359375	0.00833333333333333	0	-30	-7.39166666666667	1	1.6328125
2008.826171875	0.00833333333333333	0	-30	-7.39166666666667	2	0.6845703125
2011.8505859375	0.00833333333333333	0	-30	-7.39166666666667	1	0.572265625
2014.609375	0.00833333333333333	0	30	8.14791666666667	2	0.7099609375
2017.43359375	0.00833333333333333	0	30	8.14791666666667	2	1.2060546875
2020.701171875	0.00833333333333333	0	30	8.14791666666667	2	0.8818359375
2023.9423828125	0.00833333333333333	0	30	8.14791666666667	1	1.3134765625
2027.4501953125	0.00833333333333333	0	30	8.14791666666667	1	0.845703125
2030.55078125	0.00833333333333333	0	30	8.14791666666667	2	1.5927734375
2034.1923828125	0.00833333333333333	0	30	8.14791666666667	2	0.7275390625
2078.849609375	0.00833333333333333	0	-30	-7.39166666666667	2	0.83984375
2081.9833984375	0.00833333333333333	0	30	8.14791666666667	2	0.7138671875
2084.8994140625	0.00833333333333333	0	30	8.14791666666667	1	0.734375
2087.625	0.00833333333333333	0	30	8.14791666666667	1	0.81640625
2090.6826171875	0.00833333333333333	0	-30	-7.39166666666667	1	0.7109375
2093.490234375	0.00833333333333333	0	-30	-7.39166666666667	1	0.671875
2096.6416015625	0.00833333333333333	0	30	8.14791666666667	2	0.591796875
2099.240234375	0.00833333333333333	0	30	8.14791666666667	2	0.76953125
2102.3740234375	0.00833333333333333	0	30	8.14791666666667	2	0.603515625
2105.19140625	0.00833333333333333	0	30	8.14791666666667	1	0.490234375
2107.8916015625	0.00833333333333333	0	30	8.14791666666667	1	0.6064453125
2110.6904296875	0.00833333333333333	0	30	8.14791666666667	2	1.015625
2113.6748046875	0.00833333333333333	0	30	8.14791666666667	1	0.83203125
2116.640625	0.00833333333333333	0	30	8.14791666666667	2	0.75390625
2119.69921875	0.00833333333333333	0	-30	-7.39166666666667	2	0.591796875
2122.732421875	0.00833333333333333	0	30	8.14791666666667	2	0.654296875
2125.4150390625	0.00833333333333333	0	30	8.14791666666667	2	0.5712890625
2127.9912109375	0.00833333333333333	0	-30	-7.39166666666667	2	0.5390625
2130.5908203125	0.00833333333333333	0	30	8.14791666666667	2	1.0283203125
2133.9990234375	0.00833333333333333	0	30	8.14791666666667	1	0.6357421875
2136.798828125	0.00833333333333333	0	30	8.14791666666667	2	0.5966796875
2139.6484375	0.00833333333333333	0	30	8.14791666666667	2	0.8505859375
2142.9404296875	0.00833333333333333	0	30	8.14791666666667	1	1.03125
2146.056640625	0.00833333333333333	0	-30	-7.39166666666667	2	0.7548828125
2149.0400390625	0.00833333333333333	0	-30	-7.39166666666667	1	1.01953125
2152.482421875	0.00833333333333333	0	30	8.14791666666667	2	0.953125
2155.7158203125	0.00833333333333333	0	-30	-7.39166666666667	1	0.6796875
2158.6904296875	0.00833333333333333	0	-30	-7.39166666666667	2	0.673828125
2161.3486328125	0.00833333333333333	0	30	8.14791666666667	2	0.5595703125
2163.8984375	0.00833333333333333	0	30	8.14791666666667	2	0.5615234375
2166.431640625	0.00833333333333333	0	-30	-7.39166666666667	2	0.5732421875
2169.5068359375	0.00833333333333333	0	-30	-7.39166666666667	1	0.7294921875
2172.6318359375	0.00833333333333333	0	-30	-7.39166666666667	2	0.572265625
2175.365234375	0.00833333333333333	0	-30	-7.39166666666667	1	0.703125
2178.0732421875	0.00833333333333333	0	30	8.14791666666667	2	1.2197265625
2181.33984375	0.00833333333333333	0	30	8.14791666666667	2	0.544921875
2184.08984375	0.00833333333333333	0	30	8.02291666666667	2	0.5712890625
2186.740234375	0.00833333333333333	0	30	8.02291666666667	2	0.728515625
2189.5810546875	0.00833333333333333	0	30	8.02291666666667	2	0.5361328125
2192.3564453125	0.00833333333333333	0	30	8.02291666666667	2	0.728515625
2195.388671875	0.00833333333333333	0	-30	-7.39166666666667	2	1.224609375
2198.822265625	0.00833333333333333	0	30	8.02291666666667	2	0.6630859375
2201.5234375	0.00833333333333333	0	-30	-7.39166666666667	1	1.1142578125
2205.1064453125	0.00833333333333333	0	-30	-7.39166666666667	1	0.8037109375
2208.1806640625	0.00833333333333333	0	30	7.89791666666667	2	0.5849609375
2210.7978515625	0.00833333333333333	0	-30	-7.39166666666667	1	0.751953125
2213.9228515625	0.00833333333333333	0	-30	-7.39166666666667	2	0.70703125
2216.60546875	0.00833333333333333	0	-30	-7.39166666666667	1	0.912109375
2219.5546875	0.00833333333333333	0	-30	-7.39166666666667	1	0.603515625
2222.2890625	0.00833333333333333	0	30	7.89791666666667	1	0.96484375
2225.5224609375	0.00833333333333333	0	30	7.89791666666667	1	1.1640625
2229.123046875	0.00833333333333333	0	-30	-7.39166666666667	1	0.7548828125
2232.046875	0.00833333333333333	0	30	7.89791666666667	1	0.966796875
2235.1396484375	0.00833333333333333	0	-30	-7.39166666666667	1	0.634765625
2238.138671875	0.00833333333333333	0	-30	-7.39166666666667	1	1.083984375
2241.2890625	0.00833333333333333	0	30	7.89791666666667	2	0.7021484375
2244.322265625	0.00833333333333333	0	-30	-7.26666666666667	1	0.65234375
2247.322265625	0.00833333333333333	0	30	7.89791666666667	2	0.8125
2250.279296875	0.00833333333333333	0	30	7.89791666666667	1	1.416015625
2253.8046875	0.00833333333333333	0	-30	-7.26666666666667	1	0.8662109375
2256.7138671875	0.00833333333333333	0	30	7.89791666666667	2	0.9892578125
2259.796875	0.00833333333333333	0	30	7.89791666666667	2	0.7783203125
2262.9716796875	0.00833333333333333	0	30	7.89791666666667	1	0.7392578125
2265.7138671875	0.00833333333333333	0	-30	-7.26666666666667	1	0.708984375
2268.5390625	0.00833333333333333	0	-30	-7.26666666666667	2	0.572265625
2271.580078125	0.00833333333333333	0	30	7.89791666666667	1	0.68359375
2274.73828125	0.00833333333333333	0	-30	-7.26666666666667	1	0.6455078125
2277.6884765625	0.00833333333333333	0	-30	-7.26666666666667	2	0.630859375
2280.6806640625	0.00833333333333333	0	30	7.89791666666667	2	0.6474609375
2283.388671875	0.00833333333333333	0	30	7.89791666666667	2	0.68359375
2286.1884765625	0.00833333333333333	0	30	7.89791666666667	2	0.68359375
2289.3212890625	0.00833333333333333	0	-30	-7.26666666666667	1	0.6943359375
2292.3720703125	0.00833333333333333	0	30	7.89791666666667	1	0.8916015625
2295.296875	0.00833333333333333	0	30	7.89791666666667	1	0.9990234375
2298.470703125	0.00833333333333333	0	30	7.89791666666667	1	1.2412109375
2302.2216796875	0.00833333333333333	0	-30	-7.26666666666667	1	0.71484375
2305.2958984375	0.00833333333333333	0	30	7.89791666666667	2	0.96875
2308.421875	0.00833333333333333	0	30	7.89791666666667	1	0.6591796875
2311.171875	0.00833333333333333	0	-30	-7.26666666666667	1	0.6123046875
2314.154296875	0.00833333333333333	0	-30	-7.26666666666667	2	1.6865234375
2376.5283203125	0.00833333333333333	0	30	7.89791666666667	2	0.978515625
2379.4697265625	0.00833333333333333	0	30	7.89791666666667	1	0.5576171875
2382.169921875	0.00833333333333333	0	30	7.89791666666667	1	1.1298828125
2385.3779296875	0.00833333333333333	0	30	7.89791666666667	1	0.865234375
2388.537109375	0.00833333333333333	0	-30	-7.26666666666667	2	1.1142578125
2391.662109375	0.00833333333333333	0	-30	-7.26666666666667	2	0.541015625
2394.478515625	0.00833333333333333	0	-30	-7.26666666666667	1	1.044921875
2397.9697265625	0.00833333333333333	0	-30	-7.26666666666667	1	0.6494140625
2400.8359375	0.00833333333333333	0	30	7.89791666666667	2	0.84765625
2403.744140625	0.00833333333333333	0	30	7.89791666666667	1	1.5791015625
2407.4453125	0.00833333333333333	0	30	7.89791666666667	2	1.646484375
2411.34375	0.00833333333333333	0	30	7.89791666666667	2	0.724609375
2414.0869140625	0.00833333333333333	0	-30	-7.26666666666667	2	1.021484375
2417.26953125	0.00833333333333333	0	30	7.89791666666667	2	0.662109375
2420.2451171875	0.00833333333333333	0	30	7.89791666666667	2	0.6474609375
2423.0859375	0.00833333333333333	0	30	7.89791666666667	1	0.55078125
2425.8193359375	0.00833333333333333	0	-30	-7.26666666666667	1	0.9208984375
2429.177734375	0.00833333333333333	0	-30	-7.26666666666667	2	0.890625
2432.1533203125	0.00833333333333333	0	-30	-7.26666666666667	2	0.8994140625
2435.078125	0.00833333333333333	0	-30	-7.26666666666667	2	0.55078125
2437.685546875	0.00833333333333333	0	-30	-7.26666666666667	1	0.630859375
2440.7109375	0.00833333333333333	0	30	7.89791666666667	2	0.59765625
2443.3515625	0.00833333333333333	0	30	7.89791666666667	2	0.5576171875
2446.078125	0.00833333333333333	0	-30	-7.26666666666667	1	0.6708984375
2448.8779296875	0.00833333333333333	0	-30	-7.26666666666667	1	1.015625
2452.15234375	0.00833333333333333	0	30	7.89791666666667	1	0.7412109375
2455.1943359375	0.00833333333333333	0	30	7.89791666666667	2	0.787109375
2458.34375	0.00833333333333333	0	30	7.89791666666667	2	1.005859375
2461.3447265625	0.00833333333333333	0	30	7.89791666666667	2	0.8125
2464.5439453125	0.00833333333333333	0	30	7.89791666666667	2	0.93359375
2467.5361328125	0.00833333333333333	0	30	7.89791666666667	1	1.0859375
2470.8603515625	0.00833333333333333	0	-30	-7.26666666666667	1	0.7216796875
2473.7685546875	0.00833333333333333	0	-30	-7.26666666666667	2	0.533203125
2476.6435546875	0.00833333333333333	0	-30	-7.26666666666667	1	0.6669921875
2479.7099609375	0.00833333333333333	0	-30	-7.26666666666667	1	0.560546875
2482.5107421875	0.00833333333333333	0	30	7.89791666666667	2	0.6474609375
2485.1435546875	0.00833333333333333	0	30	7.89791666666667	2	0.6552734375
2487.8759765625	0.00833333333333333	0	30	7.89791666666667	2	0.6259765625
2490.810546875	0.00833333333333333	0	-30	-7.26666666666667	1	0.68359375
2493.4521484375	0.00833333333333333	0	-30	-7.26666666666667	1	0.5224609375
2496.068359375	0.00833333333333333	0	-30	-7.26666666666667	1	0.6259765625
2498.91015625	0.00833333333333333	0	30	7.89791666666667	1	0.689453125
2501.6181640625	0.00833333333333333	0	-30	-7.14166666666667	1	0.65234375
2504.376953125	0.00833333333333333	0	30	7.89791666666667	1	0.845703125
2507.4013671875	0.00833333333333333	0	-30	-7.14166666666667	1	1.1982421875
2510.71875	0.00833333333333333	0	30	7.89791666666667	2	0.7607421875
2513.501953125	0.00833333333333333	0	-30	-7.14166666666667	2	0.78515625
2516.642578125	0.00833333333333333	0	-30	-7.14166666666667	1	0.8125
2519.78515625	0.00833333333333333	0	-30	-7.14166666666667	1	0.5986328125
2522.3759765625	0.00833333333333333	0	30	7.89791666666667	1	0.607421875
2525.259765625	0.00833333333333333	0	30	7.89791666666667	2	0.8759765625
2528.451171875	0.00833333333333333	0	-30	-7.14166666666667	1	0.7724609375
2531.4853515625	0.00833333333333333	0	-30	-7.14166666666667	1	0.890625
2534.54296875	0.00833333333333333	0	30	7.89791666666667	2	1.216796875
2537.876953125	0.00833333333333333	0	30	7.89791666666667	1	0.779296875
2540.951171875	0.00833333333333333	0	-30	-7.14166666666667	2	0.697265625
2543.66015625	0.00833333333333333	0	30	7.89791666666667	1	0.9326171875
2546.9013671875	0.00833333333333333	0	-30	-7.14166666666667	2	0.7470703125
2549.625	0.00833333333333333	0	-30	-7.14166666666667	2	0.927734375
2552.6259765625	0.00833333333333333	0	-30	-7.14166666666667	1	0.630859375
2555.3251953125	0.00833333333333333	0	30	7.89791666666667	1	0.7158203125
2558.466796875	0.00833333333333333	0	30	7.89791666666667	2	0.7177734375
2561.451171875	0.00833333333333333	0	-30	-7.14166666666667	1	0.7177734375
2564.2763671875	0.00833333333333333	0	-30	-7.14166666666667	1	0.8759765625
2567.201171875	0.00833333333333333	0	30	7.89791666666667	1	0.9033203125
2570.384765625	0.00833333333333333	0	30	7.89791666666667	1	1.0966796875
2573.8173828125	0.00833333333333333	0	30	7.89791666666667	2	0.6875
2576.6005859375	0.00833333333333333	0	30	7.89791666666667	2	0.720703125
2579.275390625	0.00833333333333333	0	-30	-7.14166666666667	2	0.58984375
2582.1259765625	0.00833333333333333	0	30	7.89791666666667	1	1.1552734375
2585.30859375	0.00833333333333333	0	30	7.89791666666667	2	0.724609375
2588.3916015625	0.00833333333333333	0	-30	-7.14166666666667	2	0.5302734375
2591.1669921875	0.00833333333333333	0	30	7.89791666666667	2	0.7626953125
2594.2587890625	0.00833333333333333	0	-30	-7.14166666666667	1	0.6865234375
2597.30078125	0.00833333333333333	0	30	7.89791666666667	2	0.5810546875
2600.224609375	0.00833333333333333	0	30	7.89791666666667	2	0.59375
2602.8837890625	0.00833333333333333	0	-30	-7.14166666666667	1	0.71875
2605.974609375	0.00833333333333333	0	-30	-7.14166666666667	2	0.68359375
2608.833984375	0.00833333333333333	0	30	7.89791666666667	1	1.1767578125
2612.150390625	0.00833333333333333	0	-30	-7.14166666666667	2	0.8125
2680.6748046875	0.00833333333333333	0	-30	-7.14166666666667	1	1.0341796875
2683.6826171875	0.00833333333333333	0	30	7.89791666666667	1	1.0185546875
2686.923828125	0.00833333333333333	0	30	7.89791666666667	2	0.873046875
2689.90625	0.00833333333333333	0	30	7.89791666666667	2	0.9306640625
2693.115234375	0.00833333333333333	0	30	7.89791666666667	1	0.6015625
2695.732421875	0.00833333333333333	0	30	7.89791666666667	1	0.560546875
2698.232421875	0.00833333333333333	0	-30	-7.14166666666667	2	0.564453125
2701.03125	0.00833333333333333	0	30	7.89791666666667	1	1.501953125
2704.6572265625	0.00833333333333333	0	30	7.89791666666667	2	0.755859375
2707.5400390625	0.00833333333333333	0	-30	-7.14166666666667	2	0.986328125
2710.791015625	0.00833333333333333	0	30	7.89791666666667	1	0.9423828125
2713.9990234375	0.00833333333333333	0	30	7.89791666666667	2	0.90234375
2717.1484375	0.00833333333333333	0	-30	-7.14166666666667	1	0.6015625
2719.83984375	0.00833333333333333	0	-30	-7.14166666666667	1	0.6064453125
2722.5986328125	0.00833333333333333	0	-30	-7.14166666666667	1	0.615234375
2725.265625	0.00833333333333333	0	30	7.89791666666667	2	0.66015625
2728.08984375	0.00833333333333333	0	30	7.89791666666667	2	0.8447265625
2731.2568359375	0.00833333333333333	0	-30	-7.14166666666667	1	0.7978515625
2734.3818359375	0.00833333333333333	0	30	7.89791666666667	2	0.7685546875
2737.33203125	0.00833333333333333	0	30	7.89791666666667	2	0.5380859375
2740.123046875	0.00833333333333333	0	30	7.77291666666667	2	0.6435546875
2742.7822265625	0.00833333333333333	0	30	7.77291666666667	2	0.6083984375
2745.4482421875	0.00833333333333333	0	-30	-7.14166666666667	2	1.1669921875
2748.9482421875	0.00833333333333333	0	-30	-7.14166666666667	1	0.6826171875
2751.83984375	0.00833333333333333	0	-30	-7.14166666666667	1	1.3037109375
2755.5478515625	0.00833333333333333	0	-30	-7.14166666666667	1	0.7470703125
2758.6650390625	0.00833333333333333	0	-30	-7.14166666666667	1	0.7099609375
2761.490234375	0.00833333333333333	0	30	7.77291666666667	2	0.64453125
2764.2568359375	0.00833333333333333	0	30	7.77291666666667	2	0.55078125
2767.064453125	0.00833333333333333	0	30	7.77291666666667	2	0.52734375
2770.005859375	0.00833333333333333	0	-30	-7.14166666666667	1	0.689453125
2772.931640625	0.00833333333333333	0	30	7.64791666666667	2	0.5634765625
2775.6728515625	0.00833333333333333	0	-30	-7.01666666666667	1	0.654296875
2778.439453125	0.00833333333333333	0	30	7.64791666666667	2	0.6240234375
2781.22265625	0.00833333333333333	0	30	7.64791666666667	1	0.5771484375
2783.86328125	0.00833333333333333	0	-30	-7.01666666666667	1	0.8486328125
2786.96484375	0.00833333333333333	0	30	7.64791666666667	2	1.0751953125
2790.1142578125	0.00833333333333333	0	30	7.64791666666667	2	0.5654296875
2792.9716796875	0.00833333333333333	0	30	7.64791666666667	2	0.6611328125
2796.03125	0.00833333333333333	0	30	7.64791666666667	2	1.0166015625
2799.28125	0.00833333333333333	0	30	7.64791666666667	2	0.6708984375
2802.0390625	0.00833333333333333	0	-30	-7.01666666666667	1	0.7373046875
2805.10546875	0.00833333333333333	0	30	7.52291666666667	2	0.4873046875
2807.72265625	0.00833333333333333	0	-30	-7.01666666666667	1	0.7021484375
2810.572265625	0.00833333333333333	0	-30	-7.01666666666667	1	0.8447265625
2813.73046875	0.00833333333333333	0	-30	-6.89166666666667	1	0.6787109375
2816.4140625	0.00833333333333333	0	30	7.52291666666667	2	0.6826171875
2819.1640625	0.00833333333333333	0	-30	-6.89166666666667	1	0.5888671875
2822.09765625	0.00833333333333333	0	30	7.52291666666667	2	0.8154296875
2825.1708984375	0.00833333333333333	0	-30	-6.89166666666667	1	0.6787109375
2827.97265625	0.00833333333333333	0	-30	-6.89166666666667	1	0.64453125
2830.86328125	0.00833333333333333	0	30	7.52291666666667	2	0.650390625
2833.8720703125	0.00833333333333333	0	-30	-6.89166666666667	1	0.7373046875
2836.62109375	0.00833333333333333	0	30	7.52291666666667	2	0.533203125
2839.2470703125	0.00833333333333333	0	-30	-6.76666666666667	1	0.71484375
2842.4130859375	0.00833333333333333	0	30	7.39791666666667	1	0.65234375
2845.263671875	0.00833333333333333	0	-30	-6.76666666666667	1	0.6181640625
2847.9970703125	0.00833333333333333	0	-30	-6.76666666666667	1	0.7490234375
2850.9384765625	0.00833333333333333	0	-30	-6.76666666666667	1	0.83984375
2854.2138671875	0.00833333333333333	0	-30	-6.76666666666667	1	0.8681640625
2857.2138671875	0.00833333333333333	0	-30	-6.64166666666667	1	0.755859375
2859.921875	0.00833333333333333	0	30	7.39791666666667	2	0.5849609375
2862.904296875	0.00833333333333333	0	-30	-6.64166666666667	1	0.70703125
2865.7470703125	0.00833333333333333	0	-30	-6.64166666666667	1	0.7197265625
2868.5380859375	0.00833333333333333	0	30	7.39791666666667	1	0.984375
2871.646484375	0.00833333333333333	0	30	7.39791666666667	2	0.7724609375
2874.74609375	0.00833333333333333	0	-30	-6.64166666666667	1	0.96875
2877.8037109375	0.00833333333333333	0	30	7.39791666666667	1	0.775390625
2880.5966796875	0.00833333333333333	0	-30	-6.64166666666667	1	0.734375
2883.5458984375	0.00833333333333333	0	-30	-6.51666666666667	2	0.6728515625
2886.546875	0.00833333333333333	0	30	7.39791666666667	1	0.552734375
2889.5126953125	0.00833333333333333	0	30	7.39791666666667	2	0.5146484375
2892.23828125	0.00833333333333333	0	-30	-6.51666666666667	1	0.5888671875
2895.2451171875	0.00833333333333333	0	30	7.39791666666667	2	0.75
2898.3876953125	0.00833333333333333	0	30	7.39791666666667	2	0.82421875
2901.3369140625	0.00833333333333333	0	30	7.39791666666667	2	0.72265625
2904.4951171875	0.00833333333333333	0	30	7.39791666666667	1	0.8134765625
2907.5205078125	0.00833333333333333	0	30	7.39791666666667	2	0.6357421875
2910.4375	0.00833333333333333	0	-30	-6.51666666666667	1	0.7587890625
2913.2373046875	0.00833333333333333	0	-30	-6.51666666666667	1	0.654296875
2964.537109375	0.00833333333333333	0	-30	-6.51666666666667	2	0.732421875
2967.412109375	0.00833333333333333	0	30	7.39791666666667	1	0.5380859375
2969.953125	0.00833333333333333	0	30	7.39791666666667	1	0.5244140625
2972.861328125	0.00833333333333333	0	30	7.39791666666667	2	0.7841796875
2975.6953125	0.00833333333333333	0	30	7.39791666666667	1	0.951171875
2978.8779296875	0.00833333333333333	0	-30	-6.51666666666667	2	0.4638671875
2981.544921875	0.00833333333333333	0	30	7.39791666666667	1	0.533203125
2984.38671875	0.00833333333333333	0	-30	-6.51666666666667	2	0.595703125
2986.986328125	0.00833333333333333	0	-30	-6.51666666666667	1	0.65234375
2989.7939453125	0.00833333333333333	0	-30	-6.51666666666667	1	0.701171875
2992.51171875	0.00833333333333333	0	30	7.39791666666667	1	0.8388671875
2995.6943359375	0.00833333333333333	0	-30	-6.51666666666667	1	0.6484375
2998.3701171875	0.00833333333333333	0	-30	-6.51666666666667	1	0.5810546875
3001.251953125	0.00833333333333333	0	-30	-6.51666666666667	1	0.8193359375
3004.294921875	0.00833333333333333	0	-30	-6.39166666666667	2	0.6083984375
3006.9443359375	0.00833333333333333	0	-30	-6.39166666666667	2	0.6708984375
3009.8193359375	0.00833333333333333	0	30	7.39791666666667	2	0.67578125
3012.6689453125	0.00833333333333333	0	-30	-6.39166666666667	1	0.642578125
3015.6533203125	0.00833333333333333	0	30	7.39791666666667	2	0.4501953125
3018.1357421875	0.00833333333333333	0	-30	-6.39166666666667	1	0.6962890625
3021.2021484375	0.00833333333333333	0	-30	-6.39166666666667	2	0.541015625
3024.0185546875	0.00833333333333333	0	-30	-6.39166666666667	1	0.4208984375
3026.677734375	0.00833333333333333	0	-30	-6.39166666666667	1	0.650390625
3029.427734375	0.00833333333333333	0	30	7.39791666666667	2	0.6044921875
3032.09375	0.00833333333333333	0	30	7.39791666666667	2	0.5546875
3034.751953125	0.00833333333333333	0	-30	-6.39166666666667	1	0.48828125
3037.39453125	0.00833333333333333	0	-30	-6.39166666666667	1	0.59765625
3040.2607421875	0.00833333333333333	0	-30	-6.39166666666667	1	0.6669921875
3043.185546875	0.00833333333333333	0	-30	-6.26666666666667	1	0.6630859375
3046.1689453125	0.00833333333333333	0	-30	-6.26666666666667	1	0.591796875
3048.8017578125	0.00833333333333333	0	-30	-6.26666666666667	2	0.447265625
3051.3017578125	0.00833333333333333	0	-30	-6.26666666666667	1	0.6103515625
3054.21875	0.00833333333333333	0	30	7.39791666666667	2	0.6943359375
3057.0771484375	0.00833333333333333	0	30	7.27291666666667	1	0.6513671875
3059.9775390625	0.00833333333333333	0	30	7.27291666666667	2	0.51953125
3062.744140625	0.00833333333333333	0	-30	-6.26666666666667	1	0.5849609375
3065.52734375	0.00833333333333333	0	30	7.27291666666667	1	0.76953125
3068.5107421875	0.00833333333333333	0	30	7.27291666666667	2	0.666015625
3071.2841796875	0.00833333333333333	0	30	7.27291666666667	1	1.125
3074.876953125	0.00833333333333333	0	-30	-6.26666666666667	2	1.404296875
3078.4013671875	0.00833333333333333	0	30	7.27291666666667	2	0.5595703125
3081.1767578125	0.00833333333333333	0	30	7.27291666666667	2	0.5927734375
3083.7685546875	0.00833333333333333	0	30	7.27291666666667	1	0.6494140625
3086.46875	0.00833333333333333	0	30	7.27291666666667	1	0.8369140625
3089.583984375	0.00833333333333333	0	-30	-6.26666666666667	1	0.8740234375
3092.443359375	0.00833333333333333	0	30	7.27291666666667	1	0.630859375
3095.2431640625	0.00833333333333333	0	-30	-6.26666666666667	1	0.87890625
3098.484375	0.00833333333333333	0	30	7.27291666666667	2	0.654296875
3101.28515625	0.00833333333333333	0	-30	-6.26666666666667	1	0.5654296875
3103.9677734375	0.00833333333333333	0	-30	-6.26666666666667	1	0.71484375
3106.6767578125	0.00833333333333333	0	-30	-6.26666666666667	1	0.62109375
3109.4755859375	0.00833333333333333	0	30	7.27291666666667	2	0.6943359375
3112.2763671875	0.00833333333333333	0	-30	-6.14166666666667	1	0.5498046875
3114.8671875	0.00833333333333333	0	30	7.27291666666667	1	0.671875
3117.984375	0.00833333333333333	0	-30	-6.14166666666667	1	1.1787109375
3121.3427734375	0.00833333333333333	0	30	7.27291666666667	2	0.7158203125
3124.41796875	0.00833333333333333	0	-30	-6.14166666666667	1	0.5849609375
3127.134765625	0.00833333333333333	0	-30	-6.14166666666667	1	0.64453125
3129.8916015625	0.00833333333333333	0	30	7.27291666666667	2	0.623046875
3132.80078125	0.00833333333333333	0	-30	-6.14166666666667	1	1.322265625
3136.17578125	0.00833333333333333	0	-30	-6.01666666666667	1	0.859375
3139.392578125	0.00833333333333333	0	-30	-6.01666666666667	2	0.73046875
3142.3759765625	0.00833333333333333	0	30	7.27291666666667	2	0.6357421875
3145.4677734375	0.00833333333333333	0	-30	-6.01666666666667	1	0.7275390625
3148.1748046875	0.00833333333333333	0	-30	-6.01666666666667	1	0.8369140625
3151.4091796875	0.00833333333333333	0	-30	-6.01666666666667	1	0.74609375
3154.18359375	0.00833333333333333	0	30	7.27291666666667	2	0.7080078125
3156.8671875	0.00833333333333333	0	30	7.27291666666667	1	0.5927734375
3159.6923828125	0.00833333333333333	0	-30	-6.01666666666667	1	0.85546875
3162.7412109375	0.00833333333333333	0	30	7.27291666666667	1	0.7666015625
3165.80859375	0.00833333333333333	0	30	7.27291666666667	2	0.6435546875
3168.7587890625	0.00833333333333333	0	30	7.27291666666667	2	0.7099609375
3171.892578125	0.00833333333333333	0	-30	-6.01666666666667	1	1.0244140625
3175.3251953125	0.00833333333333333	0	30	7.27291666666667	1	0.8232421875
3178.533203125	0.00833333333333333	0	30	7.27291666666667	1	0.6875
3181.5087890625	0.00833333333333333	0	30	7.27291666666667	1	0.7041015625
3184.6162109375	0.00833333333333333	0	-30	-5.89166666666667	1	0.6689453125
3187.56640625	0.00833333333333333	0	30	7.27291666666667	2	0.462890625
3190.31640625	0.00833333333333333	0	-30	-5.89166666666667	1	0.560546875
3192.9248046875	0.00833333333333333	0	30	7.27291666666667	2	0.5927734375
3246.4658203125	0.00833333333333333	0	-30	-5.89166666666667	2	0.8291015625
3249.2734375	0.00833333333333333	0	-30	-5.89166666666667	2	0.6611328125
3251.9072265625	0.00833333333333333	0	30	7.27291666666667	2	0.7080078125
3254.5908203125	0.00833333333333333	0	30	7.27291666666667	1	0.560546875
3257.58203125	0.00833333333333333	0	30	7.27291666666667	1	0.6416015625
3260.2822265625	0.00833333333333333	0	-30	-5.89166666666667	1	0.7646484375
3263.33203125	0.00833333333333333	0	-30	-5.89166666666667	1	0.9873046875
3266.615234375	0.00833333333333333	0	30	7.27291666666667	2	0.568359375
3269.5068359375	0.00833333333333333	0	-30	-5.89166666666667	2	0.693359375
3272.6484375	0.00833333333333333	0	-30	-5.89166666666667	2	0.470703125
3275.4736328125	0.00833333333333333	0	-30	-5.89166666666667	1	0.7021484375
3278.33203125	0.00833333333333333	0	-30	-5.89166666666667	1	0.6201171875
3281.4150390625	0.00833333333333333	0	30	7.27291666666667	2	0.544921875
3283.9560546875	0.00833333333333333	0	-30	-5.89166666666667	1	0.572265625
3286.58203125	0.00833333333333333	0	-30	-5.89166666666667	1	0.841796875
3289.7314453125	0.00833333333333333	0	-30	-5.89166666666667	1	0.64453125
3292.5068359375	0.00833333333333333	0	30	7.27291666666667	1	0.669921875
3295.1650390625	0.00833333333333333	0	-30	-5.76666666666667	2	0.6357421875
3298.265625	0.00833333333333333	0	-30	-5.76666666666667	2	0.7666015625
3301.0146484375	0.00833333333333333	0	30	7.27291666666667	1	0.5458984375
3303.740234375	0.00833333333333333	0	-30	-5.76666666666667	2	0.572265625
3306.7314453125	0.00833333333333333	0	30	7.27291666666667	2	0.7412109375
3309.755859375	0.00833333333333333	0	30	7.27291666666667	1	0.525390625
3312.5732421875	0.00833333333333333	0	-30	-5.76666666666667	1	0.7080078125
3315.6318359375	0.00833333333333333	0	30	7.27291666666667	2	0.7451171875
3318.40625	0.00833333333333333	0	30	7.27291666666667	2	0.5947265625
3321.2236328125	0.00833333333333333	0	30	7.27291666666667	2	0.865234375
3324.08984375	0.00833333333333333	0	-30	-5.76666666666667	1	0.6796875
3327.0986328125	0.00833333333333333	0	-30	-5.76666666666667	1	0.623046875
3330.1142578125	0.00833333333333333	0	30	7.27291666666667	2	0.783203125
3333.28125	0.00833333333333333	0	30	7.27291666666667	1	0.8251953125
3336.248046875	0.00833333333333333	0	30	7.27291666666667	1	0.5458984375
3339.0478515625	0.00833333333333333	0	30	7.27291666666667	1	0.7138671875
3341.8310546875	0.00833333333333333	0	30	7.27291666666667	1	0.6669921875
3344.5478515625	0.00833333333333333	0	-30	-5.76666666666667	1	0.830078125
3347.4140625	0.00833333333333333	0	-30	-5.76666666666667	1	1.5
3351.03125	0.00833333333333333	0	-30	-5.64166666666667	1	0.5712890625
3353.9052734375	0.00833333333333333	0	-30	-5.64166666666667	1	0.6572265625
3356.9228515625	0.00833333333333333	0	30	7.27291666666667	2	1.2880859375
3360.248046875	0.00833333333333333	0	-30	-5.64166666666667	2	0.75390625
3363.4140625	0.00833333333333333	0	-30	-5.64166666666667	1	0.6923828125
3366.3056640625	0.00833333333333333	0	-30	-5.64166666666667	1	0.6650390625
3369.40625	0.00833333333333333	0	-30	-5.64166666666667	2	0.548828125
3372.2392578125	0.00833333333333333	0	-30	-5.64166666666667	1	0.68359375
3374.939453125	0.00833333333333333	0	30	7.27291666666667	2	0.8076171875
3377.8720703125	0.00833333333333333	0	-30	-5.64166666666667	1	0.642578125
3380.97265625	0.00833333333333333	0	-30	-5.64166666666667	1	0.90234375
3384.138671875	0.00833333333333333	0	30	7.27291666666667	2	0.6083984375
3386.904296875	0.00833333333333333	0	30	7.27291666666667	1	0.8505859375
3389.830078125	0.00833333333333333	0	30	7.27291666666667	1	0.677734375
3392.5966796875	0.00833333333333333	0	-30	-5.64166666666667	1	0.646484375
3395.6474609375	0.00833333333333333	0	-30	-5.64166666666667	2	0.5478515625
3398.4638671875	0.00833333333333333	0	-30	-5.64166666666667	2	0.5556640625
3401.11328125	0.00833333333333333	0	30	7.27291666666667	1	0.5302734375
3404.095703125	0.00833333333333333	0	30	7.27291666666667	1	0.900390625
3407.1220703125	0.00833333333333333	0	-30	-5.64166666666667	2	0.7060546875
3410.23828125	0.00833333333333333	0	30	7.27291666666667	2	0.6220703125
3413.1962890625	0.00833333333333333	0	30	7.27291666666667	2	0.6953125
3416.10546875	0.00833333333333333	0	-30	-5.64166666666667	2	0.5625
3418.705078125	0.00833333333333333	0	30	7.27291666666667	2	0.5869140625
3421.330078125	0.00833333333333333	0	-30	-5.64166666666667	2	0.619140625
3423.98828125	0.00833333333333333	0	30	7.27291666666667	1	0.7763671875
3427.10546875	0.00833333333333333	0	30	7.27291666666667	2	0.5791015625
3429.763671875	0.00833333333333333	0	30	7.27291666666667	2	0.609375
3432.421875	0.00833333333333333	0	-30	-5.76666666666667	1	0.7587890625
3435.587890625	0.00833333333333333	0	30	7.27291666666667	1	1.224609375
3438.955078125	0.00833333333333333	0	30	7.27291666666667	2	0.658203125
3441.87890625	0.00833333333333333	0	30	7.27291666666667	2	0.5986328125
3444.5537109375	0.00833333333333333	0	-30	-5.76666666666667	2	0.5869140625
3447.521484375	0.00833333333333333	0	-30	-5.76666666666667	1	1.2275390625
3451.212890625	0.00833333333333333	0	-30	-5.76666666666667	2	0.5283203125
3453.98828125	0.00833333333333333	0	-30	-5.76666666666667	2	0.521484375
3456.5966796875	0.00833333333333333	0	-30	-5.76666666666667	1	0.625
3459.2041015625	0.00833333333333333	0	-30	-5.76666666666667	1	0.6337890625
3462.2880859375	0.00833333333333333	0	30	7.27291666666667	1	0.525390625
3465.0126953125	0.00833333333333333	0	-30	-5.76666666666667	1	0.6806640625
3467.9541015625	0.00833333333333333	0	-30	-5.76666666666667	1	0.67578125
3470.8125	0.00833333333333333	0	30	7.27291666666667	2	0.689453125
3473.6044921875	0.00833333333333333	0	30	7.27291666666667	2	0.8974609375
3476.9296875	0.00833333333333333	0	30	7.27291666666667	2	0.6845703125
3587.927734375	0.00833333333333333	0	-30	-5.76666666666667	1	0.9462890625
3591.1689453125	0.00833333333333333	0	-30	-5.64166666666667	2	0.5693359375
3593.744140625	0.00833333333333333	0	-30	-5.64166666666667	2	0.4814453125
3596.65234375	0.00833333333333333	0	30	7.27291666666667	2	1.0859375
3599.91015625	0.00833333333333333	0	-30	-5.64166666666667	2	0.5078125
3602.41015625	0.00833333333333333	0	-30	-5.64166666666667	2	0.5361328125
3605.09375	0.00833333333333333	0	-30	-5.64166666666667	2	0.556640625
3607.8359375	0.00833333333333333	0	30	7.27291666666667	1	0.486328125
3610.318359375	0.00833333333333333	0	30	7.27291666666667	2	0.8359375
3613.15234375	0.00833333333333333	0	30	7.27291666666667	1	0.6025390625
3615.8857421875	0.00833333333333333	0	30	7.27291666666667	2	0.8212890625
3618.8857421875	0.00833333333333333	0	30	7.27291666666667	2	0.62890625
3621.65234375	0.00833333333333333	0	-30	-5.76666666666667	2	0.5908203125
3624.2099609375	0.00833333333333333	0	30	7.27291666666667	1	0.5849609375
3626.7607421875	0.00833333333333333	0	-30	-5.76666666666667	1	0.9306640625
3630.0185546875	0.00833333333333333	0	30	7.27291666666667	2	0.583984375
3632.66015625	0.00833333333333333	0	-30	-5.76666666666667	1	1.0791015625
3636.109375	0.00833333333333333	0	30	7.27291666666667	1	0.662109375
3639.21875	0.00833333333333333	0	30	7.27291666666667	1	0.544921875
3641.96875	0.00833333333333333	0	30	7.27291666666667	2	0.7314453125
3644.7099609375	0.00833333333333333	0	-30	-5.76666666666667	2	0.853515625
3647.9765625	0.00833333333333333	0	-30	-5.76666666666667	2	0.7470703125
3650.7763671875	0.00833333333333333	0	-30	-5.76666666666667	2	0.70703125
3653.4599609375	0.00833333333333333	0	30	7.27291666666667	1	0.5517578125
3656.4013671875	0.00833333333333333	0	-30	-5.76666666666667	2	0.5302734375
3659.1845703125	0.00833333333333333	0	-30	-5.76666666666667	2	0.748046875
3662.2099609375	0.00833333333333333	0	-30	-5.89166666666667	1	0.7861328125
3665.41796875	0.00833333333333333	0	-30	-5.89166666666667	2	0.5458984375
3668.3759765625	0.00833333333333333	0	30	7.27291666666667	1	0.5244140625
3671.04296875	0.00833333333333333	0	-30	-5.89166666666667	2	0.5380859375
3673.9091796875	0.00833333333333333	0	30	7.27291666666667	1	0.82421875
3676.9677734375	0.00833333333333333	0	-30	-5.89166666666667	2	0.5810546875
3679.6591796875	0.00833333333333333	0	-30	-5.89166666666667	1	0.7294921875
3682.4345703125	0.00833333333333333	0	-30	-5.89166666666667	1	0.5703125
3685.2841796875	0.00833333333333333	0	-30	-5.89166666666667	2	0.544921875
3688.1259765625	0.00833333333333333	0	30	7.27291666666667	1	0.87109375
3691.0263671875	0.00833333333333333	0	-30	-5.89166666666667	2	0.8349609375
3693.9423828125	0.00833333333333333	0	30	7.27291666666667	1	0.8232421875
3696.984375	0.00833333333333333	0	-30	-5.89166666666667	2	0.548828125
3699.8583984375	0.00833333333333333	0	-30	-5.89166666666667	2	0.5390625
3702.5341796875	0.00833333333333333	0	30	7.39791666666667	1	0.8388671875
3705.826171875	0.00833333333333333	0	-30	-5.89166666666667	2	0.546875
3708.8837890625	0.00833333333333333	0	30	7.39791666666667	1	0.5615234375
3711.708984375	0.00833333333333333	0	30	7.39791666666667	1	0.9130859375
3714.859375	0.00833333333333333	0	30	7.39791666666667	2	0.7470703125
3717.7587890625	0.00833333333333333	0	30	7.39791666666667	2	0.943359375
3720.9501953125	0.00833333333333333	0	-30	-6.01666666666667	2	0.8154296875
3723.93359375	0.00833333333333333	0	-30	-6.01666666666667	2	0.4892578125
3726.517578125	0.00833333333333333	0	-30	-6.01666666666667	1	0.7529296875
3729.3671875	0.00833333333333333	0	-30	-6.01666666666667	2	0.5595703125
3731.92578125	0.00833333333333333	0	-30	-6.01666666666667	2	0.6005859375
3734.8505859375	0.00833333333333333	0	30	7.39791666666667	1	0.763671875
3737.6923828125	0.00833333333333333	0	-30	-6.01666666666667	2	0.8740234375
3740.583984375	0.00833333333333333	0	30	7.39791666666667	1	0.8388671875
3743.7412109375	0.00833333333333333	0	-30	-6.01666666666667	2	0.6015625
3746.5	0.00833333333333333	0	30	7.39791666666667	1	1.37109375
3750.1572265625	0.00833333333333333	0	30	7.39791666666667	1	0.833984375
3753.400390625	0.00833333333333333	0	30	7.39791666666667	1	0.638671875
3756.30859375	0.00833333333333333	0	-30	-6.01666666666667	2	0.802734375
3759.0830078125	0.00833333333333333	0	30	7.52291666666667	2	0.62890625
3761.7666015625	0.00833333333333333	0	30	7.52291666666667	1	0.6083984375
3764.4658203125	0.00833333333333333	0	-30	-6.14166666666667	2	0.861328125
3767.6162109375	0.00833333333333333	0	-30	-6.14166666666667	2	0.6552734375
3770.5	0.00833333333333333	0	-30	-6.14166666666667	2	1.3955078125
3774.25	0.00833333333333333	0	30	7.52291666666667	1	0.6064453125
3776.974609375	0.00833333333333333	0	-30	-6.14166666666667	2	0.7861328125
3779.9326171875	0.00833333333333333	0	-30	-6.14166666666667	2	0.939453125
3782.9326171875	0.00833333333333333	0	30	7.52291666666667	1	0.6357421875
3785.6240234375	0.00833333333333333	0	30	7.52291666666667	1	0.599609375
3788.6416015625	0.00833333333333333	0	-30	-6.26666666666667	1	0.6787109375
3791.2822265625	0.00833333333333333	0	-30	-6.26666666666667	1	0.56640625
3794.099609375	0.00833333333333333	0	30	7.52291666666667	2	0.884765625
3797.07421875	0.00833333333333333	0	-30	-6.26666666666667	2	0.55859375
3799.8330078125	0.00833333333333333	0	30	7.52291666666667	2	1.0712890625
3803.3662109375	0.00833333333333333	0	30	7.52291666666667	2	0.5546875
3806.357421875	0.00833333333333333	0	-30	-6.26666666666667	2	0.5556640625
3809.0908203125	0.00833333333333333	0	-30	-6.26666666666667	2	0.5029296875
3812.041015625	0.00833333333333333	0	-30	-6.26666666666667	2	0.5361328125
3814.6494140625	0.00833333333333333	0	-30	-6.26666666666667	2	0.5517578125
3817.5732421875	0.00833333333333333	0	30	7.52291666666667	1	0.4677734375
3848.0234375	0.00833333333333333	0	30	7.52291666666667	1	0.794921875
3851.2490234375	0.00833333333333333	0	30	7.52291666666667	1	1.177734375
3854.58203125	0.00833333333333333	0	30	7.52291666666667	1	0.6044921875
3857.4404296875	0.00833333333333333	0	30	7.52291666666667	1	0.5380859375
3860.2060546875	0.00833333333333333	0	-30	-6.39166666666667	2	0.6123046875
3862.9404296875	0.00833333333333333	0	30	7.64791666666667	1	0.4462890625
3865.798828125	0.00833333333333333	0	-30	-6.39166666666667	2	0.4755859375
3868.71484375	0.00833333333333333	0	30	7.64791666666667	1	0.5361328125
3871.623046875	0.00833333333333333	0	30	7.64791666666667	1	0.7958984375
3874.8154296875	0.00833333333333333	0	-30	-6.39166666666667	2	0.5400390625
3877.58203125	0.00833333333333333	0	-30	-6.39166666666667	2	0.517578125
3880.1318359375	0.00833333333333333	0	-30	-6.39166666666667	1	0.7587890625
3882.990234375	0.00833333333333333	0	-30	-6.39166666666667	2	0.5888671875
3886.005859375	0.00833333333333333	0	30	7.64791666666667	1	0.509765625
3888.6318359375	0.00833333333333333	0	-30	-6.39166666666667	2	0.5791015625
3891.189453125	0.00833333333333333	0	-30	-6.39166666666667	2	0.822265625
3894.314453125	0.00833333333333333	0	-30	-6.39166666666667	2	0.529296875
3897.1220703125	0.00833333333333333	0	30	7.64791666666667	2	0.6337890625
3899.830078125	0.00833333333333333	0	30	7.64791666666667	2	0.7978515625
3903.0478515625	0.00833333333333333	0	30	7.64791666666667	1	0.5244140625
3905.814453125	0.00833333333333333	0	30	7.64791666666667	1	1.0859375
3908.97265625	0.00833333333333333	0	-30	-6.39166666666667	1	0.6396484375
3911.822265625	0.00833333333333333	0	-30	-6.39166666666667	1	0.830078125
3915.0888671875	0.00833333333333333	0	-30	-6.39166666666667	1	0.626953125
3917.939453125	0.00833333333333333	0	30	7.64791666666667	1	0.6494140625
3920.7392578125	0.00833333333333333	0	30	7.64791666666667	1	0.7216796875
3923.455078125	0.00833333333333333	0	-30	-6.39166666666667	2	0.6533203125
3926.0810546875	0.00833333333333333	0	30	7.64791666666667	1	0.923828125
3929.1220703125	0.00833333333333333	0	30	7.77291666666667	2	0.6982421875
3932.064453125	0.00833333333333333	0	-30	-6.39166666666667	2	0.5888671875
3935.10546875	0.00833333333333333	0	30	7.77291666666667	1	0.6513671875
3937.78125	0.00833333333333333	0	-30	-6.39166666666667	1	0.935546875
3940.9560546875	0.00833333333333333	0	-30	-6.39166666666667	1	0.6650390625
3944.0458984375	0.00833333333333333	0	30	7.77291666666667	2	0.671875
3946.830078125	0.00833333333333333	0	30	7.77291666666667	2	0.5830078125
3949.546875	0.00833333333333333	0	30	7.77291666666667	1	0.6025390625
3952.330078125	0.00833333333333333	0	30	7.77291666666667	2	0.595703125
3955.263671875	0.00833333333333333	0	30	7.77291666666667	1	0.6064453125
3958.1044921875	0.00833333333333333	0	-30	-6.39166666666667	1	0.525390625
3960.73828125	0.00833333333333333	0	-30	-6.39166666666667	1	0.611328125
3963.521484375	0.00833333333333333	0	30	7.77291666666667	2	0.5400390625
3966.5556640625	0.00833333333333333	0	-30	-6.39166666666667	1	0.59375
3969.48828125	0.00833333333333333	0	-30	-6.26666666666667	1	0.7177734375
3972.1630859375	0.00833333333333333	0	-30	-6.26666666666667	1	0.755859375
3975.0205078125	0.00833333333333333	0	-30	-6.26666666666667	1	0.705078125
3977.8798828125	0.00833333333333333	0	-30	-6.26666666666667	1	0.58984375
3980.671875	0.00833333333333333	0	-30	-6.26666666666667	1	1.662109375
3984.48828125	0.00833333333333333	0	-30	-6.14166666666667	2	0.5341796875
3987.1962890625	0.00833333333333333	0	30	7.77291666666667	2	0.6826171875
3990.0966796875	0.00833333333333333	0	30	7.77291666666667	2	0.5263671875
3993.0966796875	0.00833333333333333	0	30	7.77291666666667	2	0.7900390625
3996.3466796875	0.00833333333333333	0	30	7.77291666666667	2	0.5966796875
3998.9951171875	0.00833333333333333	0	-30	-6.14166666666667	2	0.572265625
4001.771484375	0.00833333333333333	0	30	7.64791666666667	2	0.6435546875
4004.4208984375	0.00833333333333333	0	-30	-6.14166666666667	1	0.5859375
4007.1376953125	0.00833333333333333	0	-30	-6.14166666666667	1	0.669921875
4009.8046875	0.00833333333333333	0	30	7.64791666666667	2	0.650390625
4012.529296875	0.00833333333333333	0	-30	-6.14166666666667	1	1.150390625
4015.837890625	0.00833333333333333	0	30	7.64791666666667	1	0.6416015625
4018.720703125	0.00833333333333333	0	-30	-6.14166666666667	1	0.630859375
4021.3369140625	0.00833333333333333	0	30	7.64791666666667	2	0.615234375
4024.1708984375	0.00833333333333333	0	30	7.64791666666667	2	0.765625
4026.9296875	0.00833333333333333	0	30	7.64791666666667	2	1.2861328125
4030.287109375	0.00833333333333333	0	30	7.64791666666667	2	0.79296875
4033.3046875	0.00833333333333333	0	-30	-6.14166666666667	1	0.87890625
4036.4873046875	0.00833333333333333	0	-30	-6.01666666666667	1	0.6572265625
4039.3623046875	0.00833333333333333	0	-30	-6.01666666666667	1	0.7578125
4042.462890625	0.00833333333333333	0	30	7.64791666666667	2	0.7294921875
4045.4697265625	0.00833333333333333	0	30	7.52291666666667	2	0.794921875
4048.5791015625	0.00833333333333333	0	-30	-6.01666666666667	1	0.4052734375
4051.3115234375	0.00833333333333333	0	30	7.52291666666667	2	0.521484375
4053.845703125	0.00833333333333333	0	30	7.52291666666667	1	0.6826171875
4056.6875	0.00833333333333333	0	-30	-6.01666666666667	1	0.9130859375
4059.9375	0.00833333333333333	0	-30	-6.01666666666667	1	0.6552734375
4062.8369140625	0.00833333333333333	0	-30	-5.89166666666667	1	0.6044921875
4065.720703125	0.00833333333333333	0	-30	-5.89166666666667	1	0.5927734375
4068.4111328125	0.00833333333333333	0	-30	-5.89166666666667	1	0.7900390625
4071.3125	0.00833333333333333	0	30	7.52291666666667	1	0.5849609375
4074.2861328125	0.00833333333333333	0	-30	-5.89166666666667	2	0.5068359375
4077.1865234375	0.00833333333333333	0	-30	-5.89166666666667	1	0.630859375
4147.2529296875	0.00833333333333333	0	30	7.52291666666667	2	3.53515625
4152.935546875	0.00833333333333333	0	30	7.52291666666667	2	1.1962890625
4156.302734375	0.00833333333333333	0	30	7.52291666666667	1	0.5732421875
4159.251953125	0.00833333333333333	0	-30	-5.89166666666667	2	1.0244140625
4162.501953125	0.00833333333333333	0	30	7.52291666666667	2	1.9501953125
4166.65234375	0.00833333333333333	0	30	7.52291666666667	2	0.591796875
4169.2607421875	0.00833333333333333	0	30	7.52291666666667	1	0.607421875
4172.1357421875	0.00833333333333333	0	30	7.52291666666667	2	0.62890625
4175.0263671875	0.00833333333333333	0	-30	-5.89166666666667	1	0.73828125
4178.0517578125	0.00833333333333333	0	-30	-5.89166666666667	2	0.6484375
4181.0517578125	0.00833333333333333	0	30	7.52291666666667	2	0.5849609375
4183.9853515625	0.00833333333333333	0	30	7.52291666666667	1	0.595703125
4186.7265625	0.00833333333333333	0	30	7.52291666666667	2	0.7421875
4189.6357421875	0.00833333333333333	0	-30	-5.89166666666667	2	0.625
4192.6767578125	0.00833333333333333	0	30	7.52291666666667	2	0.640625
4195.734375	0.00833333333333333	0	-30	-5.89166666666667	1	0.638671875
4198.560546875	0.00833333333333333	0	30	7.52291666666667	2	1.005859375
4201.9599609375	0.00833333333333333	0	-30	-5.89166666666667	2	0.60546875
4204.634765625	0.00833333333333333	0	30	7.52291666666667	1	0.4990234375
4207.16796875	0.00833333333333333	0	-30	-5.89166666666667	2	0.58203125
4209.9677734375	0.00833333333333333	0	-30	-5.89166666666667	2	0.56640625
4212.7001953125	0.00833333333333333	0	30	7.52291666666667	2	0.6259765625
4215.3515625	0.00833333333333333	0	-30	-5.89166666666667	2	1.6142578125
4219.4677734375	0.00833333333333333	0	-30	-5.89166666666667	2	0.59375
4222.5185546875	0.00833333333333333	0	30	7.52291666666667	2	0.7275390625
4225.6259765625	0.00833333333333333	0	30	7.52291666666667	2	0.64453125
4228.5927734375	0.00833333333333333	0	30	7.52291666666667	2	0.62109375
4231.392578125	0.00833333333333333	0	30	7.52291666666667	2	0.7021484375
4234.1845703125	0.00833333333333333	0	30	7.39791666666667	2	0.6865234375
4237.2841796875	0.00833333333333333	0	30	7.39791666666667	2	0.5869140625
4239.93359375	0.00833333333333333	0	30	7.39791666666667	1	0.5693359375
4242.8349609375	0.00833333333333333	0	30	7.39791666666667	2	0.771484375
4245.583984375	0.00833333333333333	0	30	7.39791666666667	2	0.7109375
4248.55078125	0.00833333333333333	0	30	7.39791666666667	1	0.583984375
4251.4677734375	0.00833333333333333	0	30	7.39791666666667	1	0.955078125
4254.5341796875	0.00833333333333333	0	30	7.39791666666667	2	1.888671875
4258.6005859375	0.00833333333333333	0	-30	-6.01666666666667	2	0.55078125
4261.18359375	0.00833333333333333	0	-30	-6.01666666666667	2	0.8076171875
4263.9833984375	0.00833333333333333	0	-30	-6.01666666666667	2	0.7841796875
4267.099609375	0.00833333333333333	0	30	7.39791666666667	1	0.748046875
4270.025390625	0.00833333333333333	0	-30	-6.01666666666667	2	0.6298828125
4272.9423828125	0.00833333333333333	0	-30	-6.01666666666667	1	0.77734375
4275.775390625	0.00833333333333333	0	-30	-6.01666666666667	1	0.6728515625
4278.4501953125	0.00833333333333333	0	-30	-6.01666666666667	1	0.7255859375
4281.5009765625	0.00833333333333333	0	30	7.39791666666667	2	0.53125
4284.2333984375	0.00833333333333333	0	-30	-6.01666666666667	1	0.5986328125
4286.8251953125	0.00833333333333333	0	30	7.39791666666667	2	1.046875
4289.849609375	0.00833333333333333	0	30	7.39791666666667	1	0.6064453125
4292.6171875	0.00833333333333333	0	30	7.39791666666667	2	0.607421875
4295.583984375	0.00833333333333333	0	-30	-6.01666666666667	1	0.5205078125
4298.400390625	0.00833333333333333	0	-30	-5.89166666666667	1	1
4301.8505859375	0.00833333333333333	0	-30	-5.89166666666667	1	0.91015625
4304.966796875	0.00833333333333333	0	30	7.39791666666667	2	0.6826171875
4307.8330078125	0.00833333333333333	0	-30	-5.89166666666667	1	0.7275390625
4310.7080078125	0.00833333333333333	0	-30	-5.89166666666667	1	0.7890625
4313.6240234375	0.00833333333333333	0	-30	-5.89166666666667	1	0.7451171875
4316.7587890625	0.00833333333333333	0	30	7.39791666666667	1	0.6904296875
4319.4580078125	0.00833333333333333	0	-30	-5.76666666666667	1	1.0068359375
4322.9248046875	0.00833333333333333	0	30	7.39791666666667	2	0.63671875
4325.7578125	0.00833333333333333	0	30	7.39791666666667	1	0.6201171875
4328.515625	0.00833333333333333	0	30	7.39791666666667	1	0.55078125
4331.140625	0.00833333333333333	0	30	7.39791666666667	1	0.541015625
4333.69140625	0.00833333333333333	0	30	7.39791666666667	1	0.646484375
4336.6328125	0.00833333333333333	0	30	7.39791666666667	2	0.8173828125
4339.7568359375	0.00833333333333333	0	-30	-5.76666666666667	2	0.60546875
4342.365234375	0.00833333333333333	0	-30	-5.76666666666667	1	0.4609375
4345.015625	0.00833333333333333	0	30	7.39791666666667	2	0.490234375
4347.8154296875	0.00833333333333333	0	30	7.39791666666667	1	1.05859375
4351.115234375	0.00833333333333333	0	30	7.39791666666667	2	0.783203125
4354.232421875	0.00833333333333333	0	30	7.39791666666667	2	0.673828125
4356.8994140625	0.00833333333333333	0	30	7.39791666666667	2	0.5986328125
4359.7822265625	0.00833333333333333	0	30	7.39791666666667	1	0.5966796875
4362.7158203125	0.00833333333333333	0	-30	-5.76666666666667	2	0.6064453125
4365.3232421875	0.00833333333333333	0	30	7.39791666666667	1	0.8232421875
4368.1396484375	0.00833333333333333	0	30	7.39791666666667	2	0.7265625
4371.166015625	0.00833333333333333	0	30	7.39791666666667	2	0.7490234375
4373.990234375	0.00833333333333333	0	-30	-5.76666666666667	1	0.533203125
4376.7314453125	0.00833333333333333	0	-30	-5.76666666666667	1	1.0634765625
4380.0830078125	0.00833333333333333	0	-30	-5.76666666666667	2	1.0478515625
4383.5986328125	0.00833333333333333	0	30	7.39791666666667	2	0.6689453125
