onset	duration	titr	surround	centre	response	rt
168.572265625	0.00833333333333333	1	NaN	15	2	0.9638671875
171.62109375	0.00833333333333333	1	30	15	2	0.947265625
175.087890625	0.00833333333333333	1	-30	15	2	0.904296875
178.4208984375	0.00833333333333333	1	30	-15	1	0.6513671875
181.5869140625	0.00833333333333333	1	NaN	14	1	0.7099609375
184.845703125	0.00833333333333333	1	-30	14	2	0.72265625
187.8046875	0.00833333333333333	1	NaN	15	2	1.205078125
191.24609375	0.00833333333333333	1	-30	13	2	0.7626953125
194.1376953125	0.00833333333333333	1	NaN	-15	1	0.7431640625
197.0869140625	0.00833333333333333	1	NaN	14	2	1.4501953125
200.7119140625	0.00833333333333333	1	30	-14	1	1.1533203125
203.9619140625	0.00833333333333333	1	30	-13	1	1.599609375
207.8203125	0.00833333333333333	1	30	-12	1	0.548828125
210.6953125	0.00833333333333333	1	NaN	13	2	0.818359375
213.8359375	0.00833333333333333	1	-30	12	2	0.6455078125
216.76953125	0.00833333333333333	1	30	-11	1	0.9921875
219.88671875	0.00833333333333333	1	NaN	-14	1	0.515625
222.7373046875	0.00833333333333333	1	30	14	2	1.1123046875
226.26171875	0.00833333333333333	1	30	-10	1	0.9892578125
229.4453125	0.00833333333333333	1	-30	11	2	0.845703125
232.7275390625	0.00833333333333333	1	NaN	-13	1	0.8828125
236.01171875	0.00833333333333333	1	NaN	-12	1	0.6142578125
238.919921875	0.00833333333333333	1	NaN	-11	1	0.6103515625
241.7109375	0.00833333333333333	1	NaN	-10	1	0.9716796875
245.0859375	0.00833333333333333	1	-30	10	2	0.6923828125
248.0283203125	0.00833333333333333	1	-30	-15	1	0.88671875
251.302734375	0.00833333333333333	1	-30	-14	1	1.0126953125
254.2939453125	0.00833333333333333	1	30	-9	1	0.861328125
257.552734375	0.00833333333333333	1	NaN	-9	1	1.2109375
261.2197265625	0.00833333333333333	1	NaN	12	2	0.6396484375
264.078125	0.00833333333333333	1	NaN	11	2	0.63671875
266.9111328125	0.00833333333333333	1	-30	9	2	0.5322265625
269.5361328125	0.00833333333333333	1	30	-8	1	0.9951171875
272.5693359375	0.00833333333333333	1	NaN	10	2	0.6826171875
275.453125	0.00833333333333333	1	-30	-13	1	0.87890625
278.578125	0.00833333333333333	1	-30	-12	1	1.0654296875
281.8935546875	0.00833333333333333	1	NaN	9	2	0.75
284.8359375	0.00833333333333333	1	NaN	8	2	0.671875
287.65234375	0.00833333333333333	1	NaN	-8	1	0.8154296875
290.9189453125	0.00833333333333333	1	-30	-11	1	1.125
294.251953125	0.00833333333333333	1	NaN	-7	1	0.671875
297.02734375	0.00833333333333333	1	NaN	-6	1	1.5927734375
300.935546875	0.00833333333333333	1	30	13	2	0.796875
304.21875	0.00833333333333333	1	30	-7	1	0.8974609375
307.185546875	0.00833333333333333	1	30	12	2	0.970703125
310.3359375	0.00833333333333333	1	NaN	7	2	0.8369140625
313.5341796875	0.00833333333333333	1	NaN	-5	1	0.7666015625
316.4189453125	0.00833333333333333	1	-30	-10	1	2.8740234375
321.3603515625	0.00833333333333333	1	NaN	6	2	1.205078125
324.693359375	0.00833333333333333	1	30	11	2	0.9677734375
327.9765625	0.00833333333333333	1	NaN	5	2	1.453125
331.7431640625	0.00833333333333333	1	NaN	-4	1	1.486328125
335.359375	0.00833333333333333	1	-30	-9	1	0.7021484375
338.568359375	0.00833333333333333	1	30	-6	1	1.109375
342.1845703125	0.00833333333333333	1	NaN	-3	1	0.009765625
344.4091796875	0.00833333333333333	1	NaN	-2	1	1.1328125
347.9091796875	0.00833333333333333	1	30	-5	1	0.8408203125
350.826171875	0.00833333333333333	1	NaN	-1	1	1.3720703125
354.4267578125	0.00833333333333333	1	-30	8	2	1.5556640625
358.41796875	0.00833333333333333	1	30	-4	1	0.7158203125
361.3837890625	0.00833333333333333	1	30	-3	1	0.6708984375
364.41015625	0.00833333333333333	1	-30	-8	1	1.251953125
368.0517578125	0.00833333333333333	1	30	10	2	2.3232421875
372.4931640625	0.00833333333333333	1	30	9	2	1.0732421875
376.0341796875	0.00833333333333333	1	-30	-7	1	1.060546875
379.4755859375	0.00833333333333333	1	30	-2	1	1.291015625
383.359375	0.00833333333333333	1	30	-1	1	1.759765625
387.3916015625	0.00833333333333333	1	NaN	4	2	0.775390625
390.42578125	0.00833333333333333	1	-30	-6	1	1.4052734375
394.1162109375	0.00833333333333333	1	-30	-5	1	0.7548828125
397.158203125	0.00833333333333333	1	NaN	0	2	1.4892578125
401.2177734375	0.00833333333333333	1	NaN	-1	2	1.333984375
404.8095703125	0.00833333333333333	1	30	8	2	0.822265625
407.724609375	0.00833333333333333	1	30	0	1	1.138671875
410.91796875	0.00833333333333333	1	30	1	1	0.7861328125
414.2255859375	0.00833333333333333	1	NaN	3	2	1.0625
417.4755859375	0.00833333333333333	1	-30	-4	2	0.9169921875
420.484375	0.00833333333333333	1	30	2	2	0.755859375
423.4921875	0.00833333333333333	1	NaN	-2	2	0.7958984375
426.7509765625	0.00833333333333333	1	-30	7	2	0.5615234375
429.6337890625	0.00833333333333333	1	30	1	1	0.814453125
432.716796875	0.00833333333333333	1	-30	-5	2	0.7158203125
435.6416015625	0.00833333333333333	1	NaN	2	1	0.4150390625
438.1337890625	0.00833333333333333	1	-30	-6	1	0.611328125
440.908203125	0.00833333333333333	1	30	2	1	0.6689453125
443.8662109375	0.00833333333333333	1	30	7	1	0.5986328125
446.548828125	0.00833333333333333	1	30	8	1	0.98828125
449.6083984375	0.00833333333333333	1	NaN	-3	1	0.640625
452.4248046875	0.00833333333333333	1	30	9	2	0.728515625
455.4248046875	0.00833333333333333	1	-30	6	2	0.80078125
458.3916015625	0.00833333333333333	1	NaN	3	2	0.609375
461.05859375	0.00833333333333333	1	NaN	-2	2	1.375
464.607421875	0.00833333333333333	1	-30	5	2	0.7939453125
467.68359375	0.00833333333333333	1	NaN	2	2	0.662109375
485.31640625	0.00833333333333333	1	NaN	1	1	32.0390625
519.4072265625	0.00833333333333333	1	30	3	1	1.2763671875
523.1904296875	0.00833333333333333	1	NaN	2	2	0.6767578125
526.2490234375	0.00833333333333333	1	-30	4	2	0.73046875
529.140625	0.00833333333333333	1	30	8	2	1.20703125
532.515625	0.00833333333333333	1	-30	3	2	0.736328125
535.365234375	0.00833333333333333	1	NaN	1	2	1.1025390625
538.90625	0.00833333333333333	1	-30	2	2	0.673828125
541.7158203125	0.00833333333333333	1	-30	1	2	0.9375
545.19921875	0.00833333333333333	1	30	7	2	0.63671875
547.9736328125	0.00833333333333333	1	30	6	1	0.798828125
551.240234375	0.00833333333333333	1	NaN	-3	1	1.4921875
555.1484375	0.00833333333333333	1	-30	-5	1	0.591796875
557.8740234375	0.00833333333333333	1	-30	-4	1	0.69921875
560.58984375	0.00833333333333333	1	30	4	1	0.7265625
563.7822265625	0.00833333333333333	1	NaN	0	2	1.1982421875
567.3154296875	0.00833333333333333	1	NaN	-1	2	0.7216796875
570.1650390625	0.00833333333333333	1	NaN	-2	2	0.8076171875
573.0810546875	0.00833333333333333	1	-30	0	2	0.931640625
576.0986328125	0.00833333333333333	1	30	7	1	0.8671875
579.365234375	0.00833333333333333	1	NaN	-3	1	1.095703125
582.83984375	0.00833333333333333	1	-30	-1	2	0.701171875
585.8984375	0.00833333333333333	1	-30	-2	2	0.794921875
588.7314453125	0.00833333333333333	1	30	8	2	0.6337890625
591.748046875	0.00833333333333333	1	NaN	-2	2	1.265625
595.4814453125	0.00833333333333333	1	30	7	2	0.62890625
598.48046875	0.00833333333333333	1	-30	-3	2	0.4853515625
601.1474609375	0.00833333333333333	1	NaN	-3	2	0.73046875
604.0224609375	0.00833333333333333	1	-30	-4	2	2.2392578125
608.697265625	0.00833333333333333	1	NaN	-4	2	0.525390625
611.380859375	0.00833333333333333	1	30	6	2	0.5537109375
614.263671875	0.00833333333333333	1	-30	-5	2	0.974609375
617.322265625	0.00833333333333333	1	NaN	-2	2	0.4208984375
619.9306640625	0.00833333333333333	1	NaN	-3	1	0.5556640625
622.8642578125	0.00833333333333333	1	NaN	-2	1	0.5029296875
625.5224609375	0.00833333333333333	1	NaN	-1	1	0.7568359375
628.7646484375	0.00833333333333333	1	NaN	0	1	0.482421875
631.380859375	0.00833333333333333	1	NaN	-5	1	0.72265625
634.6142578125	0.00833333333333333	1	NaN	-4	1	0.6728515625
637.439453125	0.00833333333333333	1	NaN	-3	1	0.3994140625
640.35546875	0.00833333333333333	1	30	5	1	0.4443359375
643.22265625	0.00833333333333333	1	-30	-3	1	0.47265625
645.8310546875	0.00833333333333333	1	30	6	2	0.8642578125
648.880859375	0.00833333333333333	1	NaN	-2	2	0.5830078125
651.7470703125	0.00833333333333333	1	NaN	1	2	0.404296875
654.322265625	0.00833333333333333	1	NaN	-3	2	0.4853515625
656.947265625	0.00833333333333333	1	30	5	2	0.8203125
660.1806640625	0.00833333333333333	1	30	4	2	0.859375
663.5126953125	0.00833333333333333	1	-30	-2	2	0.5595703125
666.23828125	0.00833333333333333	1	30	3	2	0.5859375
668.888671875	0.00833333333333333	1	30	5	1	1.0478515625
672.2470703125	0.00833333333333333	1	30	6	1	0.609375
675.1552734375	0.00833333333333333	1	-30	-6	1	0.517578125
677.73828125	0.00833333333333333	1	-30	-3	1	1.2626953125
681.080078125	0.00833333333333333	1	30	7	1	0.8408203125
684.3466796875	0.00833333333333333	1	30	8	2	0.7744140625
687.5546875	0.00833333333333333	1	NaN	-4	1	1.4140625
691.396484375	0.00833333333333333	1	30	7	1	0.46875
693.9462890625	0.00833333333333333	1	30	2	1	0.55859375
696.705078125	0.00833333333333333	1	30	8	2	0.7041015625
699.87109375	0.00833333333333333	1	-30	-5	2	0.505859375
702.8466796875	0.00833333333333333	1	-30	-2	2	0.6669921875
705.9873046875	0.00833333333333333	1	-30	-3	2	0.57421875
708.728515625	0.00833333333333333	1	30	7	2	0.6650390625
711.904296875	0.00833333333333333	1	30	6	2	0.857421875
715.12109375	0.00833333333333333	1	30	3	2	0.6728515625
718.2880859375	0.00833333333333333	1	NaN	-3	2	0.4580078125
720.7705078125	0.00833333333333333	1	-30	-6	2	0.7353515625
723.595703125	0.00833333333333333	1	30	2	2	0.998046875
726.7041015625	0.00833333333333333	1	-30	-7	2	0.513671875
729.6630859375	0.00833333333333333	1	30	1	2	0.3466796875
732.3203125	0.00833333333333333	1	-30	-4	2	0.6015625
735.146484375	0.00833333333333333	1	30	0	2	0.6962890625
737.9287109375	0.00833333333333333	1	30	5	2	0.4736328125
740.6123046875	0.00833333333333333	1	-30	-8	2	0.3740234375
743.1044921875	0.00833333333333333	1	30	4	2	0.5302734375
745.8623046875	0.00833333333333333	1	-30	-9	2	0.396484375
748.595703125	0.00833333333333333	1	-30	-5	1	0.55078125
751.4208984375	0.00833333333333333	1	-30	-4	1	0.4140625
754.0947265625	0.00833333333333333	1	30	3	1	0.5087890625
756.9541015625	0.00833333333333333	1	-30	-3	1	0.44921875
759.703125	0.00833333333333333	1	30	-1	1	0.4365234375
762.2119140625	0.00833333333333333	1	-30	-10	1	0.6396484375
765.39453125	0.00833333333333333	1	-30	-9	1	0.400390625
768.26171875	0.00833333333333333	1	30	4	1	0.3818359375
770.9375	0.00833333333333333	1	30	5	1	0.3623046875
773.4365234375	0.00833333333333333	1	NaN	-4	1	0.4873046875
776.2119140625	0.00833333333333333	1	30	6	2	0.3515625
779.00390625	0.00833333333333333	1	30	0	2	0.4638671875
781.9365234375	0.00833333333333333	1	-30	-2	1	1.115234375
810.14453125	0.00833333333333333	1	30	5	2	1.0439453125
813.4111328125	0.00833333333333333	1	-30	-1	2	0.857421875
816.7607421875	0.00833333333333333	1	30	4	1	1.060546875
820.0693359375	0.00833333333333333	1	30	5	1	0.9521484375
823.068359375	0.00833333333333333	1	30	6	1	1.3046875
826.818359375	0.00833333333333333	1	-30	-8	1	0.72265625
829.869140625	0.00833333333333333	1	-30	-2	1	0.7919921875
832.8857421875	0.00833333333333333	1	-30	-1	1	1.1435546875
836.193359375	0.00833333333333333	1	-30	0	2	0.6845703125
839.1611328125	0.00833333333333333	1	-30	-1	2	0.716796875
842.044921875	0.00833333333333333	1	-30	-2	2	0.6015625
844.9609375	0.00833333333333333	1	-30	-3	2	0.9970703125
848.1513671875	0.00833333333333333	1	-30	-7	1	1.5986328125
852.244140625	0.00833333333333333	1	30	7	2	0.818359375
855.3525390625	0.00833333333333333	1	-30	-6	2	0.6298828125
858.3095703125	0.00833333333333333	1	-30	-7	2	0.4970703125
861.2021484375	0.00833333333333333	1	30	6	2	0.5
864.1279296875	0.00833333333333333	1	30	5	2	0.814453125
867.244140625	0.00833333333333333	1	-30	-8	2	0.474609375
869.876953125	0.00833333333333333	1	-30	-9	2	0.4736328125
872.66015625	0.00833333333333333	1	-30	-4	2	0.490234375
875.41015625	0.00833333333333333	1	-30	-5	2	0.46875
878.15234375	0.00833333333333333	1	-30	-10	1	1.0947265625
881.3095703125	0.00833333333333333	1	30	4	1	0.76953125
884.2685546875	0.00833333333333333	1	-30	-9	1	1.0029296875
887.7763671875	0.00833333333333333	1	-30	-8	1	1.0947265625
891.0849609375	0.00833333333333333	1	-30	-6	1	1.1787109375
894.501953125	0.00833333333333333	1	-30	-7	1	0.7373046875
897.2939453125	0.00833333333333333	1	-30	-6	2	1.482421875
901.2099609375	0.00833333333333333	1	-30	-7	2	0.9013671875
904.6103515625	0.00833333333333333	1	-30	-8	1	1.0771484375
907.876953125	0.00833333333333333	1	-30	-7	1	0.7314453125
910.67578125	0.00833333333333333	1	-30	-6	1	1.0439453125
913.8349609375	0.00833333333333333	1	-30	-5	2	0.708984375
916.96875	0.00833333333333333	1	-30	-6	2	0.6630859375
919.8349609375	0.00833333333333333	1	-30	-7	2	0.61328125
922.79296875	0.00833333333333333	1	-30	-8	2	0.9990234375
925.9013671875	0.00833333333333333	1	-30	-9	2	0.626953125
928.7841796875	0.00833333333333333	1	-30	-10	2	0.8564453125
931.7265625	0.00833333333333333	1	-30	-11	2	0.6337890625
934.8935546875	0.00833333333333333	1	-30	-12	2	0.6669921875
937.9267578125	0.00833333333333333	1	-30	-13	1	0.841796875
940.9267578125	0.00833333333333333	1	-30	-12	1	0.482421875
943.458984375	0.00833333333333333	1	-30	-11	1	0.5830078125
946.2431640625	0.00833333333333333	1	-30	-10	1	0.7021484375
949.125	0.00833333333333333	1	-30	-9	1	1.419921875
952.8427734375	0.00833333333333333	1	-30	-8	1	1.2861328125
956.69140625	0.00833333333333333	1	-30	-7	1	1.822265625
960.9931640625	0.00833333333333333	1	-30	-6	2	2.16015625
965.701171875	0.00833333333333333	1	-30	-5.83333333333333	2	0.7646484375
969.0595703125	0.00833333333333333	1	30	4.41666666666667	1	0.87890625
972.400390625	0.00833333333333333	1	NaN	-1.5	2	1.2900390625
976.2421875	0.00833333333333333	1	NaN	-1.625	2	0.5517578125
978.984375	0.00833333333333333	1	30	4.54166666666667	2	1.265625
982.734375	0.00833333333333333	1	30	3.41666666666667	2	0.6435546875
985.7744140625	0.00833333333333333	1	-30	-5.95833333333333	2	1.099609375
988.9921875	0.00833333333333333	1	NaN	-1.75	2	1.5546875
992.8837890625	0.00833333333333333	1	-30	-4.83333333333333	2	1.0390625
996.2080078125	0.00833333333333333	1	-30	-4.95833333333333	2	0.9228515625
999.42578125	0.00833333333333333	1	-30	-6.08333333333333	2	0.6494140625
1002.1591796875	0.00833333333333333	1	30	4.41666666666667	2	0.6279296875
1005.0751953125	0.00833333333333333	1	30	4.29166666666667	2	0.3916015625
1007.9833984375	0.00833333333333333	1	NaN	-2.5	2	0.419921875
1010.7333984375	0.00833333333333333	1	30	3.29166666666667	2	0.8134765625
1013.7333984375	0.00833333333333333	1	NaN	-2.625	2	1.1337890625
1016.982421875	0.00833333333333333	1	30	3.16666666666667	2	0.892578125
1020.0830078125	0.00833333333333333	1	NaN	-2.75	2	0.4404296875
1022.6669921875	0.00833333333333333	1	30	3.04166666666667	2	0.537109375
1025.375	0.00833333333333333	1	30	4.16666666666667	2	0.4609375
1028.32421875	0.00833333333333333	1	NaN	-1.875	2	1.119140625
1031.900390625	0.00833333333333333	1	NaN	-2.875	2	0.591796875
1034.6162109375	0.00833333333333333	1	NaN	-2	2	0.5
1037.224609375	0.00833333333333333	1	NaN	-3	2	0.4111328125
1039.8076171875	0.00833333333333333	1	30	2.91666666666667	2	1.2041015625
1043.4580078125	0.00833333333333333	1	NaN	-2.125	2	0.4580078125
1046.1416015625	0.00833333333333333	1	30	4.04166666666667	2	0.3349609375
1048.6083984375	0.00833333333333333	1	30	2.79166666666667	2	0.404296875
1051.3916015625	0.00833333333333333	1	30	2.66666666666667	1	0.3330078125
1054.091796875	0.00833333333333333	1	-30	-5.08333333333333	1	0.6171875
1056.9912109375	0.00833333333333333	1	-30	-6.20833333333333	1	0.7734375
1059.8408203125	0.00833333333333333	1	-30	-6.08333333333333	1	0.66015625
1062.7080078125	0.00833333333333333	1	-30	-4.95833333333333	1	0.5048828125
1065.3408203125	0.00833333333333333	1	NaN	-2.25	1	0.7841796875
1068.44140625	0.00833333333333333	1	NaN	-3.125	1	0.939453125
1071.666015625	0.00833333333333333	1	NaN	-3	1	0.8671875
1074.982421875	0.00833333333333333	1	-30	-4.83333333333333	1	1.302734375
1078.5400390625	0.00833333333333333	1	30	2.79166666666667	2	1.10546875
1081.8984375	0.00833333333333333	1	30	3.91666666666667	2	0.7470703125
1084.7998046875	0.00833333333333333	1	30	2.66666666666667	2	0.4541015625
1087.57421875	0.00833333333333333	1	-30	-4.70833333333333	2	0.6796875
1090.4072265625	0.00833333333333333	1	-30	-4.83333333333333	2	0.5986328125
1093.2568359375	0.00833333333333333	1	30	2.54166666666667	2	0.7724609375
1096.2080078125	0.00833333333333333	1	30	3.79166666666667	1	0.845703125
1099.482421875	0.00833333333333333	1	30	3.91666666666667	1	0.603515625
1102.3662109375	0.00833333333333333	1	-30	-5.95833333333333	1	1.400390625
1106.0908203125	0.00833333333333333	1	30	4.04166666666667	2	0.8916015625
1109.2734375	0.00833333333333333	1	NaN	-2.875	2	0.7734375
1153.873046875	0.00833333333333333	1	NaN	-3	1	0.8544921875
1157.0478515625	0.00833333333333333	1	30	3.91666666666667	2	1.087890625
1160.240234375	0.00833333333333333	1	-30	-4.95833333333333	2	0.6640625
1163.40625	0.00833333333333333	1	-30	-5.83333333333333	1	0.7138671875
1166.22265625	0.00833333333333333	1	NaN	-2.875	1	0.9453125
1169.2392578125	0.00833333333333333	1	NaN	-2.125	1	0.6650390625
1172.10546875	0.00833333333333333	1	NaN	-2	1	0.55859375
1174.83984375	0.00833333333333333	1	30	2.41666666666667	2	0.6728515625
1177.8564453125	0.00833333333333333	1	NaN	-1.875	1	0.5205078125
1180.47265625	0.00833333333333333	1	-30	-5.70833333333333	1	0.751953125
1183.6142578125	0.00833333333333333	1	-30	-5.08333333333333	1	0.818359375
1186.814453125	0.00833333333333333	1	30	2.29166666666667	2	0.9384765625
1189.7548828125	0.00833333333333333	1	30	2.16666666666667	2	0.5576171875
1192.7314453125	0.00833333333333333	1	-30	-5.58333333333333	1	0.6455078125
1195.623046875	0.00833333333333333	1	NaN	-1.75	2	0.5224609375
1198.5556640625	0.00833333333333333	1	30	2.04166666666667	2	1.26953125
1201.84765625	0.00833333333333333	1	-30	-5.45833333333333	2	0.9541015625
1204.8896484375	0.00833333333333333	1	30	3.79166666666667	2	0.6484375
1207.7724609375	0.00833333333333333	1	NaN	-2.75	1	0.9326171875
1210.9892578125	0.00833333333333333	1	-30	-5.58333333333333	1	0.892578125
1214.2880859375	0.00833333333333333	1	30	3.66666666666667	2	0.75390625
1217.1376953125	0.00833333333333333	1	30	3.54166666666667	2	0.9599609375
1220.4638671875	0.00833333333333333	1	NaN	-2.625	1	0.5703125
1223.5634765625	0.00833333333333333	1	-30	-4.95833333333333	1	0.6787109375
1226.72265625	0.00833333333333333	1	NaN	-1.875	1	0.6953125
1229.9140625	0.00833333333333333	1	30	3.41666666666667	1	0.6162109375
1232.9716796875	0.00833333333333333	1	NaN	-1.75	1	0.646484375
1235.7802734375	0.00833333333333333	1	30	3.54166666666667	1	1.2861328125
1239.1806640625	0.00833333333333333	1	NaN	-2.5	1	0.6220703125
1242.154296875	0.00833333333333333	1	NaN	-2.375	1	0.6728515625
1245.0556640625	0.00833333333333333	1	30	3.66666666666667	2	1.0029296875
1248.3134765625	0.00833333333333333	1	30	1.91666666666667	2	0.59375
1251.36328125	0.00833333333333333	1	-30	-4.83333333333333	1	0.4072265625
1254.1806640625	0.00833333333333333	1	30	3.54166666666667	2	1.23046875
1257.8623046875	0.00833333333333333	1	30	1.79166666666667	1	1.2373046875
1261.1552734375	0.00833333333333333	1	30	3.41666666666667	1	1.240234375
1264.7294921875	0.00833333333333333	1	30	1.91666666666667	2	0.75390625
1267.8623046875	0.00833333333333333	1	NaN	-2.25	2	0.8134765625
1270.837890625	0.00833333333333333	1	-30	-5.45833333333333	1	0.62109375
1273.705078125	0.00833333333333333	1	-30	-4.70833333333333	2	0.634765625
1276.462890625	0.00833333333333333	1	NaN	-2.375	1	0.62890625
1279.4130859375	0.00833333333333333	1	30	3.54166666666667	1	0.623046875
1282.3134765625	0.00833333333333333	1	30	3.66666666666667	1	0.642578125
1285.455078125	0.00833333333333333	1	-30	-4.83333333333333	1	0.5166015625
1288.3466796875	0.00833333333333333	1	NaN	-1.625	1	0.537109375
1291.087890625	0.00833333333333333	1	-30	-5.33333333333333	1	0.548828125
1294.029296875	0.00833333333333333	1	-30	-5.20833333333333	1	0.50390625
1296.9794921875	0.00833333333333333	1	30	3.79166666666667	1	0.4970703125
1299.87109375	0.00833333333333333	1	-30	-4.70833333333333	1	0.6611328125
1302.9794921875	0.00833333333333333	1	30	3.91666666666667	1	0.76953125
1306.12890625	0.00833333333333333	1	30	4.04166666666667	1	0.8203125
1309.0458984375	0.00833333333333333	1	-30	-5.08333333333333	2	0.6708984375
1311.87109375	0.00833333333333333	1	NaN	-1.5	2	0.60546875
1314.912109375	0.00833333333333333	1	30	1.79166666666667	2	0.541015625
1317.8291015625	0.00833333333333333	1	30	1.66666666666667	2	0.34375
1320.5712890625	0.00833333333333333	1	-30	-5.20833333333333	2	0.345703125
1323.1875	0.00833333333333333	1	NaN	-1.625	1	0.42578125
1325.720703125	0.00833333333333333	1	-30	-4.58333333333333	1	0.3642578125
1328.12890625	0.00833333333333333	1	NaN	-1.5	2	0.412109375
1330.9873046875	0.00833333333333333	1	NaN	-1.625	2	0.4345703125
1333.470703125	0.00833333333333333	1	-30	-5.33333333333333	2	0.3984375
1336.2958984375	0.00833333333333333	1	30	4.16666666666667	2	0.3818359375
1339.1787109375	0.00833333333333333	1	-30	-5.45833333333333	2	0.4189453125
1341.9453125	0.00833333333333333	1	NaN	-1.75	2	0.4287109375
1344.8623046875	0.00833333333333333	1	NaN	-2.25	2	0.359375
1347.2958984375	0.00833333333333333	1	30	4.04166666666667	2	0.4140625
1349.9873046875	0.00833333333333333	1	NaN	-1.875	2	0.4267578125
1352.63671875	0.00833333333333333	1	-30	-5.58333333333333	2	0.2890625
1355.0537109375	0.00833333333333333	1	-30	-5.70833333333333	2	0.5283203125
1357.7197265625	0.00833333333333333	1	NaN	-2	2	0.3583984375
1360.419921875	0.00833333333333333	1	NaN	-2.125	2	0.37890625
1362.8447265625	0.00833333333333333	1	-30	-5.83333333333333	2	0.3935546875
1365.3447265625	0.00833333333333333	1	-30	-4.45833333333333	1	0.3583984375
1368.1279296875	0.00833333333333333	1	-30	-4.33333333333333	2	0.431640625
1370.6455078125	0.00833333333333333	1	-30	-4.45833333333333	2	0.8974609375
1373.9189453125	0.00833333333333333	1	-30	-4.58333333333333	1	0.576171875
1376.50390625	0.00833333333333333	1	NaN	-2.375	1	0.9111328125
1379.6279296875	0.00833333333333333	1	NaN	-2.25	1	0.35546875
1382.2529296875	0.00833333333333333	1	-30	-5.95833333333333	1	0.314453125
1384.8203125	0.00833333333333333	1	-30	-5.83333333333333	1	0.947265625
1388.0869140625	0.00833333333333333	1	NaN	-2.125	1	0.4482421875
1390.7783203125	0.00833333333333333	1	NaN	-2.25	2	0.3330078125
1393.353515625	0.00833333333333333	1	-30	-4.45833333333333	2	0.837890625
1396.26171875	0.00833333333333333	1	NaN	-2	2	0.43359375
1398.9267578125	0.00833333333333333	1	-30	-5.70833333333333	2	0.4248046875
1401.5859375	0.00833333333333333	1	NaN	-2.125	2	1.662109375
1405.38671875	0.00833333333333333	1	30	3.91666666666667	2	0.4208984375
1408.052734375	0.00833333333333333	1	30	3.79166666666667	2	0.3876953125
1410.7861328125	0.00833333333333333	1	30	3.66666666666667	2	0.8701171875
1414.0947265625	0.00833333333333333	1	NaN	-2.375	1	1.3056640625
1417.5771484375	0.00833333333333333	1	NaN	-2.25	1	0.958984375
1420.9775390625	0.00833333333333333	1	-30	-4.58333333333333	2	1.1025390625
1424.2109375	0.00833333333333333	1	-30	-4.70833333333333	2	0.6220703125
1427.0439453125	0.00833333333333333	1	30	1.54166666666667	2	0.4365234375
1429.501953125	0.00833333333333333	1	-30	-5.83333333333333	2	0.70703125
1432.486328125	0.00833333333333333	1	30	1.41666666666667	2	0.40234375
1435.369140625	0.00833333333333333	1	-30	-4.83333333333333	1	0.7919921875
1438.302734375	0.00833333333333333	1	NaN	-2.25	1	0.337890625
1440.7939453125	0.00833333333333333	1	-30	-4.70833333333333	1	0.8154296875
1443.810546875	0.00833333333333333	1	NaN	-2.125	1	0.5986328125
1446.7861328125	0.00833333333333333	1	30	3.54166666666667	1	0.607421875
1449.66015625	0.00833333333333333	1	-30	-4.58333333333333	1	0.533203125
1452.66015625	0.00833333333333333	1	30	3.66666666666667	1	0.4208984375
1475.9765625	0.00833333333333333	1	-30	-4.45833333333333	1	1.177734375
1479.626953125	0.00833333333333333	1	30	3.79166666666667	2	1.1591796875
1482.8271484375	0.00833333333333333	1	30	1.29166666666667	1	0.7998046875
1485.6513671875	0.00833333333333333	1	-30	-4.33333333333333	1	1.0068359375
1488.8671875	0.00833333333333333	1	30	1.41666666666667	1	0.7431640625
1491.634765625	0.00833333333333333	1	-30	-5.95833333333333	1	0.671875
1494.4521484375	0.00833333333333333	1	NaN	-2	1	0.6787109375
1497.509765625	0.00833333333333333	1	30	1.54166666666667	2	1.0615234375
1500.6103515625	0.00833333333333333	1	NaN	-1.875	2	1.1923828125
1504.03515625	0.00833333333333333	1	30	3.66666666666667	2	0.576171875
1507.05859375	0.00833333333333333	1	NaN	-2	2	0.705078125
1509.9599609375	0.00833333333333333	1	NaN	-2.125	2	0.5390625
1512.9267578125	0.00833333333333333	1	-30	-4.20833333333333	2	0.4521484375
1515.826171875	0.00833333333333333	1	-30	-5.83333333333333	2	0.841796875
1519.1845703125	0.00833333333333333	1	30	1.41666666666667	2	0.6435546875
1522.2841796875	0.00833333333333333	1	NaN	-2.125	2	0.4716796875
1525.2509765625	0.00833333333333333	1	-30	-5.95833333333333	1	0.896484375
1528.4013671875	0.00833333333333333	1	-30	-4.33333333333333	1	0.7705078125
1531.2841796875	0.00833333333333333	1	NaN	-2.25	1	0.50390625
1534.2001953125	0.00833333333333333	1	NaN	-2.125	1	0.66015625
1537.1513671875	0.00833333333333333	1	-30	-5.83333333333333	1	0.6923828125
1540.2763671875	0.00833333333333333	1	30	3.54166666666667	1	0.3681640625
1542.8505859375	0.00833333333333333	1	-30	-5.70833333333333	1	0.505859375
1545.650390625	0.00833333333333333	1	30	1.29166666666667	1	0.3857421875
1548.4921875	0.00833333333333333	1	NaN	-2	1	0.384765625
1551.234375	0.00833333333333333	1	-30	-5.58333333333333	1	0.5703125
1554.30859375	0.00833333333333333	1	30	3.66666666666667	2	0.6328125
1557.017578125	0.00833333333333333	1	-30	-4.20833333333333	1	0.8994140625
1560.0927734375	0.00833333333333333	1	30	3.54166666666667	2	0.6484375
1563.1171875	0.00833333333333333	1	30	3.41666666666667	2	0.591796875
1565.859375	0.00833333333333333	1	-30	-4.08333333333333	1	0.8818359375
1569.1591796875	0.00833333333333333	1	-30	-3.95833333333333	2	0.5576171875
1571.7412109375	0.00833333333333333	1	-30	-5.45833333333333	1	0.912109375
1575.0751953125	0.00833333333333333	1	NaN	-1.875	1	1.322265625
1578.6328125	0.00833333333333333	1	30	1.41666666666667	2	1.29296875
1582.275390625	0.00833333333333333	1	-30	-5.33333333333333	1	0.6826171875
1584.9501953125	0.00833333333333333	1	NaN	-2.25	1	0.9599609375
1588.091796875	0.00833333333333333	1	NaN	-2.125	2	0.6337890625
1590.833984375	0.00833333333333333	1	NaN	-2.25	2	0.68359375
1593.9169921875	0.00833333333333333	1	30	1.29166666666667	2	0.7373046875
1596.783203125	0.00833333333333333	1	-30	-5.20833333333333	1	0.798828125
1600.07421875	0.00833333333333333	1	-30	-5.08333333333333	2	0.7001953125
1602.9501953125	0.00833333333333333	1	NaN	-1.75	1	0.576171875
1605.890625	0.00833333333333333	1	30	3.29166666666667	2	0.36328125
1608.5986328125	0.00833333333333333	1	30	1.16666666666667	1	0.3681640625
1611.0830078125	0.00833333333333333	1	30	1.29166666666667	2	0.955078125
1614.099609375	0.00833333333333333	1	-30	-4.08333333333333	2	1.1708984375
1617.4990234375	0.00833333333333333	1	NaN	-1.625	2	0.8837890625
1620.3984375	0.00833333333333333	1	NaN	-2.375	2	3.15234375
1626.0166015625	0.00833333333333333	1	-30	-4.20833333333333	2	0.6220703125
1629.0244140625	0.00833333333333333	1	30	3.16666666666667	2	0.798828125
1632.2080078125	0.00833333333333333	1	-30	-5.20833333333333	1	1.3271484375
1635.75	0.00833333333333333	1	-30	-5.08333333333333	1	0.7373046875
1638.44921875	0.00833333333333333	1	NaN	-1.75	1	1.390625
1641.8330078125	0.00833333333333333	1	-30	-4.95833333333333	1	0.7265625
1644.8662109375	0.00833333333333333	1	NaN	-1.625	2	0.5810546875
1647.7998046875	0.00833333333333333	1	NaN	-1.75	2	0.5361328125
1650.5908203125	0.00833333333333333	1	NaN	-1.875	1	0.609375
1653.3740234375	0.00833333333333333	1	30	1.16666666666667	2	0.3701171875
1655.8076171875	0.00833333333333333	1	-30	-4.83333333333333	1	0.9443359375
1658.96484375	0.00833333333333333	1	-30	-4.70833333333333	2	0.9794921875
1662.2568359375	0.00833333333333333	1	NaN	-2.5	2	0.783203125
1665.0322265625	0.00833333333333333	1	30	1.04166666666667	1	0.8876953125
1667.9482421875	0.00833333333333333	1	NaN	-2.625	2	0.4521484375
1670.8408203125	0.00833333333333333	1	30	3.04166666666667	2	0.6552734375
1673.681640625	0.00833333333333333	1	NaN	-2.75	2	0.55078125
1676.2744140625	0.00833333333333333	1	-30	-4.33333333333333	2	1.55859375
1680.0654296875	0.00833333333333333	1	-30	-4.83333333333333	1	0.8076171875
1683.19921875	0.00833333333333333	1	-30	-4.45833333333333	1	0.8896484375
1686.232421875	0.00833333333333333	1	-30	-4.70833333333333	1	1.0009765625
1689.2822265625	0.00833333333333333	1	30	1.16666666666667	2	0.6142578125
1692.0234375	0.00833333333333333	1	-30	-4.58333333333333	2	0.6416015625
1694.6904296875	0.00833333333333333	1	30	2.91666666666667	2	0.654296875
1697.3642578125	0.00833333333333333	1	30	2.79166666666667	2	0.5810546875
1700.357421875	0.00833333333333333	1	-30	-4.70833333333333	2	0.5634765625
1702.9404296875	0.00833333333333333	1	30	2.66666666666667	2	0.373046875
1705.7490234375	0.00833333333333333	1	-30	-4.33333333333333	2	0.5244140625
1708.72265625	0.00833333333333333	1	30	2.54166666666667	2	0.4072265625
1711.15625	0.00833333333333333	1	NaN	-2.875	2	0.509765625
1713.9482421875	0.00833333333333333	1	30	2.41666666666667	1	1.109375
1717.2236328125	0.00833333333333333	1	30	2.54166666666667	1	0.8818359375
1720.4072265625	0.00833333333333333	1	NaN	-3	2	0.38671875
1723.21484375	0.00833333333333333	1	30	2.66666666666667	2	1.115234375
1726.45703125	0.00833333333333333	1	30	2.54166666666667	2	1.8017578125
1730.33984375	0.00833333333333333	1	NaN	-3.125	1	0.734375
1733.53125	0.00833333333333333	1	30	2.41666666666667	2	0.9033203125
1736.740234375	0.00833333333333333	1	-30	-4.45833333333333	2	0.56640625
1739.78125	0.00833333333333333	1	30	1.04166666666667	1	0.8369140625
1742.7900390625	0.00833333333333333	1	-30	-4.58333333333333	2	0.3408203125
1745.439453125	0.00833333333333333	1	-30	-4.70833333333333	2	0.3876953125
1748.15625	0.00833333333333333	1	-30	-4.83333333333333	2	0.5029296875
1750.71484375	0.00833333333333333	1	NaN	-3	2	0.34375
1753.5146484375	0.00833333333333333	1	30	1.16666666666667	2	0.4404296875
1756.2392578125	0.00833333333333333	1	-30	-4.95833333333333	2	0.4443359375
1758.7978515625	0.00833333333333333	1	NaN	-3.125	2	0.365234375
1761.314453125	0.00833333333333333	1	30	2.29166666666667	2	0.44140625
1764.0390625	0.00833333333333333	1	NaN	-3.25	2	0.4599609375
1766.53125	0.00833333333333333	1	30	1.04166666666667	1	0.744140625
1769.5966796875	0.00833333333333333	1	-30	-5.08333333333333	2	0.5751953125
1772.6474609375	0.00833333333333333	1	30	2.16666666666667	1	0.740234375
1775.4638671875	0.00833333333333333	1	NaN	-3.375	1	0.8037109375
1808.7548828125	0.00833333333333333	1	-30	-4.83333333333333	1	1.0341796875
1811.888671875	0.00833333333333333	1	-30	-5.20833333333333	2	1.00390625
1815.2802734375	0.00833333333333333	1	30	2.29166666666667	1	0.724609375
1818.35546875	0.00833333333333333	1	-30	-5.33333333333333	2	0.689453125
1821.046875	0.00833333333333333	1	-30	-5.45833333333333	1	1.078125
1824.396484375	0.00833333333333333	1	30	2.41666666666667	1	0.6650390625
1827.513671875	0.00833333333333333	1	30	2.54166666666667	1	0.771484375
1830.638671875	0.00833333333333333	1	30	2.66666666666667	1	0.55859375
1833.447265625	0.00833333333333333	1	30	2.79166666666667	1	0.470703125
1835.9970703125	0.00833333333333333	1	30	2.91666666666667	1	0.568359375
1839.021484375	0.00833333333333333	1	30	3.04166666666667	1	0.736328125
1841.7802734375	0.00833333333333333	1	30	3.16666666666667	1	0.857421875
1845.12109375	0.00833333333333333	1	30	3.29166666666667	1	1.1494140625
1848.3876953125	0.00833333333333333	1	30	3.41666666666667	2	0.826171875
1851.580078125	0.00833333333333333	0	30	2.24791666666667	1	0.6904296875
1854.3955078125	0.00833333333333333	0	-30	-4.88333333333333	2	0.890625
1857.2626953125	0.00833333333333333	0	-30	-4.88333333333333	2	0.6953125
1860.4296875	0.00833333333333333	0	-30	-4.88333333333333	2	0.568359375
1863.462890625	0.00833333333333333	0	30	2.24791666666667	2	0.50390625
1866.044921875	0.00833333333333333	0	30	2.24791666666667	2	0.4736328125
1868.5546875	0.00833333333333333	0	30	2.24791666666667	2	0.5166015625
1871.3291015625	0.00833333333333333	0	30	2.24791666666667	1	0.61328125
1874.212890625	0.00833333333333333	0	-30	-4.88333333333333	2	0.650390625
1876.8623046875	0.00833333333333333	0	-30	-4.88333333333333	2	0.625
1879.5458984375	0.00833333333333333	0	30	2.24791666666667	2	0.4208984375
1882.3876953125	0.00833333333333333	0	30	2.24791666666667	2	0.4990234375
1885.3544921875	0.00833333333333333	0	-30	-5.00833333333333	2	0.5009765625
1888.2041015625	0.00833333333333333	0	-30	-5.00833333333333	2	0.4677734375
1891.1796875	0.00833333333333333	0	-30	-5.00833333333333	2	0.3798828125
1893.5712890625	0.00833333333333333	0	30	2.24791666666667	2	0.4921875
1896.12890625	0.00833333333333333	0	-30	-5.00833333333333	2	0.53515625
1898.8623046875	0.00833333333333333	0	-30	-5.00833333333333	2	0.3935546875
1901.2626953125	0.00833333333333333	0	30	2.24791666666667	1	0.44140625
1904.1787109375	0.00833333333333333	0	-30	-5.13333333333333	2	0.525390625
1907.00390625	0.00833333333333333	0	30	2.24791666666667	2	0.8681640625
1910.25390625	0.00833333333333333	0	-30	-5.13333333333333	2	0.498046875
1913.25390625	0.00833333333333333	0	30	2.24791666666667	2	0.890625
1916.37890625	0.00833333333333333	0	-30	-5.13333333333333	2	0.62109375
1919.2451171875	0.00833333333333333	0	30	2.24791666666667	2	0.5712890625
1921.8701171875	0.00833333333333333	0	30	2.24791666666667	1	0.75390625
1924.6865234375	0.00833333333333333	0	-30	-5.13333333333333	2	0.7626953125
1927.90234375	0.00833333333333333	0	-30	-5.13333333333333	2	0.5859375
1930.603515625	0.00833333333333333	0	-30	-5.25833333333333	2	0.5810546875
1933.64453125	0.00833333333333333	0	30	2.24791666666667	2	0.5244140625
1936.2041015625	0.00833333333333333	0	30	2.24791666666667	2	0.7646484375
1939.169921875	0.00833333333333333	0	-30	-5.25833333333333	2	0.3037109375
1941.6689453125	0.00833333333333333	0	30	2.24791666666667	2	0.5322265625
1944.4873046875	0.00833333333333333	0	-30	-5.25833333333333	2	0.482421875
1947.236328125	0.00833333333333333	0	30	2.24791666666667	2	0.4130859375
1949.7109375	0.00833333333333333	0	30	2.24791666666667	2	0.40234375
1952.5283203125	0.00833333333333333	0	-30	-5.25833333333333	2	0.353515625
1955.39453125	0.00833333333333333	0	30	2.12291666666667	2	0.439453125
1957.9111328125	0.00833333333333333	0	30	2.12291666666667	2	0.330078125
1960.5703125	0.00833333333333333	0	-30	-5.25833333333333	2	0.408203125
1963.2119140625	0.00833333333333333	0	30	2.12291666666667	2	0.4140625
1966.060546875	0.00833333333333333	0	-30	-5.38333333333333	2	0.517578125
1968.6865234375	0.00833333333333333	0	-30	-5.38333333333333	2	0.458984375
1971.419921875	0.00833333333333333	0	30	2.12291666666667	2	0.3583984375
1973.794921875	0.00833333333333333	0	-30	-5.38333333333333	2	0.623046875
1976.611328125	0.00833333333333333	0	30	2.12291666666667	2	0.4072265625
1979.4775390625	0.00833333333333333	0	30	1.99791666666667	2	0.60546875
1982.16015625	0.00833333333333333	0	-30	-5.38333333333333	2	0.7939453125
1985.3359375	0.00833333333333333	0	-30	-5.38333333333333	2	0.73828125
1988.4111328125	0.00833333333333333	0	30	1.99791666666667	2	0.439453125
1991.1767578125	0.00833333333333333	0	-30	-5.50833333333333	1	0.8662109375
1994.2197265625	0.00833333333333333	0	-30	-5.50833333333333	2	0.966796875
1997.2275390625	0.00833333333333333	0	-30	-5.50833333333333	1	0.9599609375
2000.65234375	0.00833333333333333	0	30	1.99791666666667	1	0.6787109375
2003.46875	0.00833333333333333	0	-30	-5.50833333333333	2	1.638671875
2007.1357421875	0.00833333333333333	0	-30	-5.50833333333333	1	1.34765625
2010.9189453125	0.00833333333333333	0	30	1.99791666666667	1	1.1484375
2014.3193359375	0.00833333333333333	0	-30	-5.50833333333333	1	1.091796875
2017.6357421875	0.00833333333333333	0	30	1.99791666666667	1	2.5595703125
2022.3935546875	0.00833333333333333	0	-30	-5.50833333333333	1	0.642578125
2025.0595703125	0.00833333333333333	0	30	1.99791666666667	1	0.552734375
2027.8603515625	0.00833333333333333	0	30	1.99791666666667	1	0.5673828125
2030.8681640625	0.00833333333333333	0	-30	-5.50833333333333	1	0.5439453125
2033.77734375	0.00833333333333333	0	30	2.12291666666667	1	0.619140625
2036.8359375	0.00833333333333333	0	30	2.12291666666667	1	0.7197265625
2040.001953125	0.00833333333333333	0	30	2.12291666666667	1	1.40234375
2043.5595703125	0.00833333333333333	0	30	2.12291666666667	1	0.6533203125
2046.310546875	0.00833333333333333	0	-30	-5.50833333333333	1	0.6220703125
2048.9521484375	0.00833333333333333	0	-30	-5.38333333333333	1	2.3408203125
2053.435546875	0.00833333333333333	0	30	2.12291666666667	2	1.2255859375
2057.017578125	0.00833333333333333	0	-30	-5.38333333333333	1	1.02734375
2060.185546875	0.00833333333333333	0	-30	-5.38333333333333	1	0.69140625
2063.1181640625	0.00833333333333333	0	30	2.12291666666667	1	0.4306640625
2065.9013671875	0.00833333333333333	0	-30	-5.38333333333333	1	0.5595703125
2068.5009765625	0.00833333333333333	0	-30	-5.38333333333333	1	0.51171875
2071.3017578125	0.00833333333333333	0	-30	-5.25833333333333	2	0.423828125
2073.9921875	0.00833333333333333	0	30	2.12291666666667	1	0.3896484375
2076.7099609375	0.00833333333333333	0	-30	-5.25833333333333	1	0.7275390625
2079.4677734375	0.00833333333333333	0	-30	-5.25833333333333	2	0.4658203125
2082.3515625	0.00833333333333333	0	30	2.12291666666667	2	0.837890625
2153.5	0.00833333333333333	0	30	2.12291666666667	1	1.32421875
2157.17578125	0.00833333333333333	0	-30	-5.25833333333333	2	0.888671875
2160.033203125	0.00833333333333333	0	-30	-5.25833333333333	2	0.7587890625
2163.015625	0.00833333333333333	0	-30	-5.25833333333333	2	1.6005859375
2167	0.00833333333333333	0	30	2.12291666666667	1	0.81640625
2169.9921875	0.00833333333333333	0	-30	-5.25833333333333	2	1.072265625
2173.55859375	0.00833333333333333	0	30	2.12291666666667	1	0.8740234375
2176.625	0.00833333333333333	0	30	2.12291666666667	1	1.0478515625
2179.775390625	0.00833333333333333	0	30	2.12291666666667	1	0.78515625
2182.7412109375	0.00833333333333333	0	-30	-5.38333333333333	1	0.8271484375
2185.8330078125	0.00833333333333333	0	30	2.24791666666667	1	0.6884765625
2188.5830078125	0.00833333333333333	0	-30	-5.38333333333333	1	1.1064453125
2191.8251953125	0.00833333333333333	0	-30	-5.38333333333333	1	1.18359375
2195.1494140625	0.00833333333333333	0	-30	-5.38333333333333	1	0.67578125
2198.291015625	0.00833333333333333	0	-30	-5.38333333333333	2	1.8388671875
2202.556640625	0.00833333333333333	0	-30	-5.38333333333333	2	0.7724609375
2205.5732421875	0.00833333333333333	0	30	2.24791666666667	1	0.7880859375
2208.4072265625	0.00833333333333333	0	-30	-5.38333333333333	1	0.5380859375
2210.9326171875	0.00833333333333333	0	-30	-5.38333333333333	2	0.685546875
2213.791015625	0.00833333333333333	0	-30	-5.38333333333333	2	0.4501953125
2216.298828125	0.00833333333333333	0	30	2.24791666666667	2	0.7587890625
2219.5498046875	0.00833333333333333	0	-30	-5.38333333333333	2	0.484375
2222.1650390625	0.00833333333333333	0	-30	-5.38333333333333	2	0.4287109375
2224.849609375	0.00833333333333333	0	-30	-5.38333333333333	2	0.4560546875
2227.748046875	0.00833333333333333	0	30	2.24791666666667	2	0.3662109375
2230.224609375	0.00833333333333333	0	-30	-5.50833333333333	2	0.59375
2233.0244140625	0.00833333333333333	0	-30	-5.50833333333333	2	0.4580078125
2235.7900390625	0.00833333333333333	0	-30	-5.50833333333333	2	0.5166015625
2238.390625	0.00833333333333333	0	30	2.24791666666667	2	0.3564453125
2241.015625	0.00833333333333333	0	30	2.24791666666667	1	0.859375
2244.20703125	0.00833333333333333	0	30	2.24791666666667	1	1.828125
2248.3740234375	0.00833333333333333	0	30	2.24791666666667	1	0.8369140625
2251.7314453125	0.00833333333333333	0	-30	-5.50833333333333	2	0.6474609375
2254.8154296875	0.00833333333333333	0	-30	-5.50833333333333	2	0.580078125
2257.6484375	0.00833333333333333	0	30	2.24791666666667	1	0.8271484375
2260.623046875	0.00833333333333333	0	-30	-5.63333333333333	2	0.748046875
2263.423828125	0.00833333333333333	0	30	2.24791666666667	1	0.66015625
2266.2822265625	0.00833333333333333	0	-30	-5.63333333333333	2	0.7451171875
2269.3740234375	0.00833333333333333	0	-30	-5.63333333333333	2	0.7099609375
2272.2314453125	0.00833333333333333	0	-30	-5.63333333333333	2	0.4443359375
2274.90625	0.00833333333333333	0	-30	-5.63333333333333	2	0.6259765625
2277.765625	0.00833333333333333	0	30	2.37291666666667	2	0.3505859375
2280.2314453125	0.00833333333333333	0	-30	-5.75833333333333	2	0.6767578125
2282.9736328125	0.00833333333333333	0	-30	-5.75833333333333	2	0.8388671875
2285.873046875	0.00833333333333333	0	30	2.37291666666667	1	1.04296875
2288.96484375	0.00833333333333333	0	30	2.37291666666667	1	0.6396484375
2292.115234375	0.00833333333333333	0	-30	-5.75833333333333	1	0.5693359375
2295.03125	0.00833333333333333	0	-30	-5.75833333333333	2	0.3896484375
2297.8232421875	0.00833333333333333	0	30	2.37291666666667	2	0.4697265625
2300.7236328125	0.00833333333333333	0	-30	-5.75833333333333	2	0.552734375
2303.615234375	0.00833333333333333	0	30	2.37291666666667	2	0.341796875
2306.439453125	0.00833333333333333	0	-30	-5.75833333333333	2	0.349609375
2309.0400390625	0.00833333333333333	0	30	2.37291666666667	2	0.30859375
2311.689453125	0.00833333333333333	0	30	2.37291666666667	1	0.7080078125
2314.5302734375	0.00833333333333333	0	30	2.37291666666667	1	0.7314453125
2317.306640625	0.00833333333333333	0	-30	-5.75833333333333	1	0.5625
2320.0068359375	0.00833333333333333	0	-30	-5.75833333333333	2	0.7900390625
2322.8232421875	0.00833333333333333	0	-30	-5.75833333333333	2	0.814453125
2325.7724609375	0.00833333333333333	0	30	2.37291666666667	1	0.7451171875
2328.97265625	0.00833333333333333	0	-30	-5.75833333333333	1	1.3212890625
2332.6884765625	0.00833333333333333	0	30	2.37291666666667	1	0.7568359375
2335.8310546875	0.00833333333333333	0	-30	-5.75833333333333	2	0.703125
2338.7724609375	0.00833333333333333	0	-30	-5.75833333333333	2	0.6171875
2341.630859375	0.00833333333333333	0	-30	-5.75833333333333	2	0.5185546875
2344.2802734375	0.00833333333333333	0	-30	-5.75833333333333	2	1.1337890625
2347.6796875	0.00833333333333333	0	-30	-5.75833333333333	2	0.5341796875
2350.34765625	0.00833333333333333	0	-30	-5.88333333333333	2	0.4189453125
2352.85546875	0.00833333333333333	0	30	2.37291666666667	2	0.5185546875
2355.6552734375	0.00833333333333333	0	30	2.37291666666667	1	0.9033203125
2358.822265625	0.00833333333333333	0	30	2.37291666666667	1	0.5361328125
2361.7802734375	0.00833333333333333	0	30	2.37291666666667	1	0.498046875
2364.5712890625	0.00833333333333333	0	-30	-5.88333333333333	1	0.4833984375
2367.572265625	0.00833333333333333	0	-30	-5.88333333333333	1	0.4423828125
2370.388671875	0.00833333333333333	0	30	2.37291666666667	1	0.5859375
2373.3125	0.00833333333333333	0	30	2.37291666666667	1	0.55859375
2376.10546875	0.00833333333333333	0	-30	-5.88333333333333	1	0.341796875
2378.580078125	0.00833333333333333	0	30	2.49791666666667	1	0.6025390625
2381.638671875	0.00833333333333333	0	30	2.49791666666667	1	0.408203125
2384.2724609375	0.00833333333333333	0	30	2.49791666666667	1	0.447265625
2386.8134765625	0.00833333333333333	0	30	2.49791666666667	1	0.6494140625
2413.638671875	0.00833333333333333	0	-30	-5.88333333333333	1	1.0419921875
2417.1455078125	0.00833333333333333	0	30	2.49791666666667	1	0.8466796875
2420.3046875	0.00833333333333333	0	30	2.62291666666667	1	0.576171875
2422.9052734375	0.00833333333333333	0	30	2.62291666666667	1	0.8876953125
2425.7958984375	0.00833333333333333	0	30	2.62291666666667	1	0.7724609375
2428.6376953125	0.00833333333333333	0	-30	-5.88333333333333	1	0.802734375
2431.8212890625	0.00833333333333333	0	30	2.62291666666667	1	0.5966796875
2434.51171875	0.00833333333333333	0	30	2.62291666666667	1	0.609375
2437.3291015625	0.00833333333333333	0	-30	-5.75833333333333	1	0.5361328125
2440.12890625	0.00833333333333333	0	-30	-5.75833333333333	1	0.7607421875
2443.220703125	0.00833333333333333	0	-30	-5.75833333333333	2	0.98828125
2446.220703125	0.00833333333333333	0	30	2.74791666666667	1	0.708984375
2449.228515625	0.00833333333333333	0	30	2.74791666666667	1	0.4609375
2452.154296875	0.00833333333333333	0	30	2.74791666666667	1	0.5908203125
2455.01953125	0.00833333333333333	0	30	2.74791666666667	1	0.56640625
2457.99609375	0.00833333333333333	0	-30	-5.75833333333333	1	0.486328125
2460.603515625	0.00833333333333333	0	30	2.74791666666667	1	0.3984375
2463.3623046875	0.00833333333333333	0	-30	-5.75833333333333	1	0.3671875
2465.8212890625	0.00833333333333333	0	30	2.87291666666667	1	0.564453125
2468.861328125	0.00833333333333333	0	30	2.87291666666667	1	0.4521484375
2471.345703125	0.00833333333333333	0	-30	-5.75833333333333	1	0.47265625
2473.99609375	0.00833333333333333	0	30	2.87291666666667	1	0.6220703125
2476.904296875	0.00833333333333333	0	30	2.87291666666667	1	0.458984375
2479.654296875	0.00833333333333333	0	-30	-5.75833333333333	1	0.4521484375
2482.1865234375	0.00833333333333333	0	-30	-5.75833333333333	1	0.48828125
2484.978515625	0.00833333333333333	0	30	2.87291666666667	2	0.51953125
2487.8203125	0.00833333333333333	0	30	2.87291666666667	2	0.486328125
2490.5361328125	0.00833333333333333	0	-30	-5.63333333333333	2	0.73046875
2493.50390625	0.00833333333333333	0	30	2.87291666666667	2	0.451171875
2496.244140625	0.00833333333333333	0	-30	-5.63333333333333	2	0.470703125
2499.0537109375	0.00833333333333333	0	-30	-5.63333333333333	2	0.4130859375
2501.8203125	0.00833333333333333	0	-30	-5.63333333333333	2	0.390625
2504.470703125	0.00833333333333333	0	-30	-5.63333333333333	2	0.5888671875
2507.3623046875	0.00833333333333333	0	30	2.87291666666667	2	0.8330078125
2510.51171875	0.00833333333333333	0	-30	-5.75833333333333	2	0.587890625
2513.361328125	0.00833333333333333	0	30	2.87291666666667	2	0.505859375
2515.8701171875	0.00833333333333333	0	30	2.74791666666667	2	0.548828125
2518.478515625	0.00833333333333333	0	-30	-5.75833333333333	2	0.4697265625
2521.0283203125	0.00833333333333333	0	-30	-5.75833333333333	2	0.599609375
2523.8701171875	0.00833333333333333	0	30	2.74791666666667	2	0.5654296875
2526.486328125	0.00833333333333333	0	30	2.74791666666667	1	0.5810546875
2529.294921875	0.00833333333333333	0	-30	-5.75833333333333	2	0.525390625
2531.88671875	0.00833333333333333	0	-30	-5.75833333333333	2	0.4775390625
2534.4033203125	0.00833333333333333	0	30	2.74791666666667	2	0.46484375
2537.1533203125	0.00833333333333333	0	30	2.74791666666667	2	0.4189453125
2539.611328125	0.00833333333333333	0	-30	-5.88333333333333	2	0.529296875
2542.177734375	0.00833333333333333	0	30	2.74791666666667	2	0.466796875
2544.669921875	0.00833333333333333	0	30	2.74791666666667	2	0.4462890625
2547.169921875	0.00833333333333333	0	-30	-5.88333333333333	2	0.5869140625
2549.9033203125	0.00833333333333333	0	30	2.74791666666667	2	0.4931640625
2552.40234375	0.00833333333333333	0	-30	-5.88333333333333	1	0.4501953125
2554.927734375	0.00833333333333333	0	30	2.62291666666667	1	0.63671875
2557.7861328125	0.00833333333333333	0	-30	-5.88333333333333	2	1.06640625
2561.15234375	0.00833333333333333	0	-30	-5.88333333333333	1	0.97265625
2564.294921875	0.00833333333333333	0	-30	-5.88333333333333	2	1.0458984375
2567.6357421875	0.00833333333333333	0	30	2.62291666666667	1	0.7138671875
2570.40234375	0.00833333333333333	0	30	2.62291666666667	1	0.6904296875
2573.4111328125	0.00833333333333333	0	-30	-5.88333333333333	2	0.8984375
2576.4853515625	0.00833333333333333	0	-30	-5.88333333333333	2	0.728515625
2579.1767578125	0.00833333333333333	0	-30	-5.88333333333333	2	0.4208984375
2581.927734375	0.00833333333333333	0	-30	-5.88333333333333	1	0.654296875
2584.6435546875	0.00833333333333333	0	-30	-5.88333333333333	2	0.7705078125
2587.7685546875	0.00833333333333333	0	30	2.62291666666667	2	0.708984375
2590.8193359375	0.00833333333333333	0	30	2.62291666666667	2	0.546875
2593.4267578125	0.00833333333333333	0	-30	-5.88333333333333	2	1.0107421875
2596.560546875	0.00833333333333333	0	-30	-5.88333333333333	2	0.685546875
2599.2509765625	0.00833333333333333	0	30	2.62291666666667	2	1.1875
2602.7099609375	0.00833333333333333	0	30	2.62291666666667	1	0.896484375
2605.7021484375	0.00833333333333333	0	-30	-5.88333333333333	2	0.4560546875
2608.6259765625	0.00833333333333333	0	30	2.62291666666667	2	0.5888671875
2611.2353515625	0.00833333333333333	0	30	2.62291666666667	1	0.794921875
2614.2431640625	0.00833333333333333	0	30	2.62291666666667	1	1.611328125
2617.9521484375	0.00833333333333333	0	30	2.62291666666667	2	0.87109375
2620.8095703125	0.00833333333333333	0	30	2.62291666666667	1	0.78125
2623.8017578125	0.00833333333333333	0	30	2.62291666666667	1	0.6689453125
2626.7177734375	0.00833333333333333	0	-30	-5.88333333333333	1	0.6650390625
2629.818359375	0.00833333333333333	0	-30	-5.88333333333333	2	1.0048828125
2633.2265625	0.00833333333333333	0	30	2.62291666666667	1	0.96484375
2636.46875	0.00833333333333333	0	30	2.62291666666667	2	0.626953125
2639.5517578125	0.00833333333333333	0	-30	-5.88333333333333	2	0.8955078125
2676.3427734375	0.00833333333333333	0	30	2.62291666666667	2	1.0498046875
2679.767578125	0.00833333333333333	0	-30	-5.88333333333333	1	0.826171875
2682.9833984375	0.00833333333333333	0	30	2.62291666666667	1	0.826171875
2685.9091796875	0.00833333333333333	0	-30	-5.88333333333333	2	1.2275390625
2689.517578125	0.00833333333333333	0	-30	-5.88333333333333	1	0.8115234375
2692.734375	0.00833333333333333	0	30	2.62291666666667	1	0.7392578125
2695.474609375	0.00833333333333333	0	-30	-5.88333333333333	1	0.654296875
2698.42578125	0.00833333333333333	0	30	2.62291666666667	1	0.4873046875
2701.0341796875	0.00833333333333333	0	-30	-5.88333333333333	2	0.7587890625
2703.92578125	0.00833333333333333	0	30	2.62291666666667	1	0.7236328125
2706.6669921875	0.00833333333333333	0	-30	-5.88333333333333	2	1.0224609375
2709.80859375	0.00833333333333333	0	30	2.62291666666667	1	0.705078125
2712.6923828125	0.00833333333333333	0	-30	-5.88333333333333	2	0.59765625
2715.6337890625	0.00833333333333333	0	-30	-5.88333333333333	1	0.744140625
2718.466796875	0.00833333333333333	0	30	2.74791666666667	1	0.623046875
2721.5078125	0.00833333333333333	0	30	2.74791666666667	1	0.57421875
2724.2841796875	0.00833333333333333	0	30	2.74791666666667	1	0.6298828125
2727.0751953125	0.00833333333333333	0	30	2.74791666666667	1	0.615234375
2730	0.00833333333333333	0	-30	-5.88333333333333	2	0.810546875
2733.2587890625	0.00833333333333333	0	30	2.74791666666667	1	0.7431640625
2736.3671875	0.00833333333333333	0	30	2.87291666666667	1	0.619140625
2739.2919921875	0.00833333333333333	0	30	2.87291666666667	1	0.6865234375
2742.3916015625	0.00833333333333333	0	-30	-5.88333333333333	1	0.515625
2745.033203125	0.00833333333333333	0	-30	-5.88333333333333	1	0.5693359375
2747.6748046875	0.00833333333333333	0	30	2.87291666666667	1	0.671875
2750.541015625	0.00833333333333333	0	-30	-5.88333333333333	1	0.734375
2753.5654296875	0.00833333333333333	0	-30	-5.88333333333333	1	0.60546875
2756.5244140625	0.00833333333333333	0	-30	-5.88333333333333	1	1.126953125
2759.7744140625	0.00833333333333333	0	-30	-5.75833333333333	1	0.6767578125
2762.7578125	0.00833333333333333	0	-30	-5.75833333333333	1	0.9013671875
2766.0322265625	0.00833333333333333	0	-30	-5.75833333333333	1	0.771484375
2769.283203125	0.00833333333333333	0	30	2.87291666666667	2	0.9609375
2772.8740234375	0.00833333333333333	0	-30	-5.75833333333333	1	0.8095703125
2775.82421875	0.00833333333333333	0	-30	-5.75833333333333	1	0.740234375
2778.9326171875	0.00833333333333333	0	30	2.87291666666667	1	0.6796875
2781.783203125	0.00833333333333333	0	-30	-5.63333333333333	1	0.5888671875
2784.4990234375	0.00833333333333333	0	30	2.87291666666667	1	0.697265625
2787.166015625	0.00833333333333333	0	-30	-5.63333333333333	1	0.470703125
2789.8994140625	0.00833333333333333	0	-30	-5.63333333333333	1	0.728515625
2792.857421875	0.00833333333333333	0	-30	-5.63333333333333	1	0.70703125
2795.599609375	0.00833333333333333	0	30	2.87291666666667	1	0.7890625
2798.673828125	0.00833333333333333	0	30	2.87291666666667	2	0.5947265625
2801.6572265625	0.00833333333333333	0	30	2.87291666666667	2	0.4912109375
2804.2822265625	0.00833333333333333	0	30	2.87291666666667	2	0.4423828125
2806.7412109375	0.00833333333333333	0	30	2.87291666666667	2	0.416015625
2809.6494140625	0.00833333333333333	0	-30	-5.63333333333333	2	0.5712890625
2812.3994140625	0.00833333333333333	0	-30	-5.63333333333333	2	0.4853515625
2815.3818359375	0.00833333333333333	0	30	2.87291666666667	2	0.447265625
2818.1240234375	0.00833333333333333	0	30	2.74791666666667	2	0.5048828125
2820.857421875	0.00833333333333333	0	30	2.74791666666667	2	0.5400390625
2823.5078125	0.00833333333333333	0	-30	-5.63333333333333	2	0.490234375
2826.2734375	0.00833333333333333	0	-30	-5.63333333333333	1	0.8759765625
2829.3486328125	0.00833333333333333	0	-30	-5.63333333333333	2	0.45703125
2832.0322265625	0.00833333333333333	0	-30	-5.63333333333333	2	0.9970703125
2835.306640625	0.00833333333333333	0	-30	-5.63333333333333	2	0.6435546875
2838.140625	0.00833333333333333	0	-30	-5.63333333333333	2	0.47265625
2840.7236328125	0.00833333333333333	0	30	2.74791666666667	2	0.6181640625
2843.564453125	0.00833333333333333	0	-30	-5.63333333333333	2	0.4736328125
2846.3564453125	0.00833333333333333	0	-30	-5.75833333333333	2	0.4892578125
2848.873046875	0.00833333333333333	0	-30	-5.75833333333333	2	0.5810546875
2851.9072265625	0.00833333333333333	0	-30	-5.75833333333333	2	0.53125
2854.6484375	0.00833333333333333	0	30	2.74791666666667	2	0.5263671875
2857.6484375	0.00833333333333333	0	30	2.74791666666667	1	0.4140625
2860.240234375	0.00833333333333333	0	30	2.74791666666667	2	0.6552734375
2863.0146484375	0.00833333333333333	0	30	2.74791666666667	2	0.591796875
2865.7646484375	0.00833333333333333	0	-30	-5.75833333333333	2	0.578125
2868.4228515625	0.00833333333333333	0	-30	-5.75833333333333	1	0.5439453125
2871.3310546875	0.00833333333333333	0	30	2.74791666666667	2	0.66015625
2874.2900390625	0.00833333333333333	0	-30	-5.75833333333333	2	0.64453125
2877.21484375	0.00833333333333333	0	30	2.74791666666667	2	0.5361328125
2879.9814453125	0.00833333333333333	0	30	2.74791666666667	2	0.4580078125
2882.8896484375	0.00833333333333333	0	30	2.62291666666667	1	0.7900390625
2885.8974609375	0.00833333333333333	0	30	2.62291666666667	1	0.92578125
2889.03125	0.00833333333333333	0	30	2.62291666666667	1	0.51171875
2891.78125	0.00833333333333333	0	30	2.62291666666667	1	0.505859375
2894.373046875	0.00833333333333333	0	-30	-5.75833333333333	1	0.482421875
2897.2392578125	0.00833333333333333	0	-30	-5.75833333333333	1	0.5927734375
2900.2392578125	0.00833333333333333	0	-30	-5.75833333333333	2	0.6728515625
2903.130859375	0.00833333333333333	0	-30	-5.75833333333333	2	0.97265625
2906.455078125	0.00833333333333333	0	30	2.62291666666667	1	0.6884765625
2934.1806640625	0.00833333333333333	0	-30	-5.75833333333333	1	1.33984375
2937.8974609375	0.00833333333333333	0	-30	-5.75833333333333	2	0.8955078125
2940.8056640625	0.00833333333333333	0	30	2.74791666666667	1	0.84375
2943.830078125	0.00833333333333333	0	30	2.74791666666667	1	0.7158203125
2946.955078125	0.00833333333333333	0	30	2.74791666666667	1	0.806640625
2950.1552734375	0.00833333333333333	0	-30	-5.75833333333333	1	0.7666015625
2953.205078125	0.00833333333333333	0	30	2.74791666666667	1	0.564453125
2956.0390625	0.00833333333333333	0	-30	-5.75833333333333	1	0.634765625
2958.6806640625	0.00833333333333333	0	-30	-5.75833333333333	1	0.6171875
2961.4306640625	0.00833333333333333	0	-30	-5.75833333333333	2	0.8828125
2964.7373046875	0.00833333333333333	0	30	2.74791666666667	1	0.7685546875
2967.9462890625	0.00833333333333333	0	30	2.87291666666667	1	0.599609375
2970.8134765625	0.00833333333333333	0	-30	-5.75833333333333	2	0.96484375
2974.23828125	0.00833333333333333	0	30	2.87291666666667	1	0.595703125
2977.1044921875	0.00833333333333333	0	-30	-5.75833333333333	1	0.5859375
2980.0712890625	0.00833333333333333	0	-30	-5.75833333333333	2	0.634765625
2983.12890625	0.00833333333333333	0	-30	-5.75833333333333	2	0.697265625
2986.2294921875	0.00833333333333333	0	30	2.87291666666667	1	0.62109375
2989.1884765625	0.00833333333333333	0	-30	-5.75833333333333	2	0.7021484375
2991.9716796875	0.00833333333333333	0	-30	-5.75833333333333	2	0.783203125
2995.1044921875	0.00833333333333333	0	-30	-5.75833333333333	2	0.6103515625
2998.029296875	0.00833333333333333	0	30	2.87291666666667	2	0.58984375
3001.029296875	0.00833333333333333	0	30	2.87291666666667	1	0.7900390625
3004.24609375	0.00833333333333333	0	-30	-5.88333333333333	2	0.701171875
3007.3046875	0.00833333333333333	0	-30	-5.88333333333333	2	0.74609375
3010.4873046875	0.00833333333333333	0	30	2.87291666666667	1	0.6201171875
3013.220703125	0.00833333333333333	0	30	2.87291666666667	1	0.654296875
3016.0791015625	0.00833333333333333	0	-30	-5.88333333333333	2	0.6923828125
3019.00390625	0.00833333333333333	0	30	2.87291666666667	1	0.6396484375
3021.8447265625	0.00833333333333333	0	-30	-5.88333333333333	2	0.7431640625
3025.037109375	0.00833333333333333	0	-30	-5.88333333333333	2	0.6943359375
3028.1044921875	0.00833333333333333	0	30	2.87291666666667	1	0.8115234375
3031.37109375	0.00833333333333333	0	-30	-6.00833333333333	1	0.865234375
3034.4287109375	0.00833333333333333	0	-30	-6.00833333333333	2	1.0234375
3037.6708984375	0.00833333333333333	0	30	2.99791666666667	1	0.6455078125
3040.4873046875	0.00833333333333333	0	-30	-6.00833333333333	2	1.1572265625
3043.779296875	0.00833333333333333	0	-30	-6.00833333333333	2	1.11328125
3047.2705078125	0.00833333333333333	0	30	2.99791666666667	1	0.990234375
3050.6123046875	0.00833333333333333	0	30	2.99791666666667	1	0.904296875
3053.6787109375	0.00833333333333333	0	-30	-6.00833333333333	2	0.7900390625
3056.87890625	0.00833333333333333	0	30	2.99791666666667	2	0.685546875
3059.8623046875	0.00833333333333333	0	-30	-6.00833333333333	1	0.7587890625
3062.728515625	0.00833333333333333	0	30	2.99791666666667	1	0.64453125
3065.470703125	0.00833333333333333	0	-30	-6.00833333333333	1	0.9580078125
3068.677734375	0.00833333333333333	0	30	2.99791666666667	1	0.5830078125
3071.6875	0.00833333333333333	0	30	2.99791666666667	2	0.4853515625
3074.228515625	0.00833333333333333	0	30	2.99791666666667	1	0.5771484375
3077.1865234375	0.00833333333333333	0	-30	-6.00833333333333	2	0.7705078125
3080.294921875	0.00833333333333333	0	30	2.99791666666667	1	0.9267578125
3083.38671875	0.00833333333333333	0	30	2.99791666666667	2	1.0185546875
3086.8369140625	0.00833333333333333	0	30	2.99791666666667	2	0.697265625
3089.861328125	0.00833333333333333	0	-30	-6.00833333333333	2	0.6162109375
3092.4951171875	0.00833333333333333	0	30	2.99791666666667	1	0.8544921875
3095.7197265625	0.00833333333333333	0	30	2.99791666666667	2	0.7900390625
3098.662109375	0.00833333333333333	0	-30	-6.00833333333333	2	0.6083984375
3101.353515625	0.00833333333333333	0	30	2.99791666666667	2	0.7490234375
3104.3193359375	0.00833333333333333	0	-30	-6.00833333333333	1	0.8466796875
3107.626953125	0.00833333333333333	0	30	2.99791666666667	1	0.7958984375
3110.427734375	0.00833333333333333	0	-30	-6.00833333333333	1	0.794921875
3113.3603515625	0.00833333333333333	0	30	2.99791666666667	1	1.6943359375
3117.203125	0.00833333333333333	0	30	2.99791666666667	1	0.7314453125
3120.15234375	0.00833333333333333	0	30	2.99791666666667	1	1.0703125
3123.66015625	0.00833333333333333	0	30	2.99791666666667	1	0.8671875
3126.7197265625	0.00833333333333333	0	-30	-6.00833333333333	1	0.8232421875
3129.7109375	0.00833333333333333	0	-30	-6.00833333333333	1	0.6240234375
3132.8525390625	0.00833333333333333	0	-30	-6.00833333333333	1	0.826171875
3136.1689453125	0.00833333333333333	0	-30	-5.88333333333333	1	0.4306640625
3139.052734375	0.00833333333333333	0	30	3.12291666666667	1	0.490234375
3142.02734375	0.00833333333333333	0	-30	-5.88333333333333	1	0.732421875
3144.810546875	0.00833333333333333	0	30	3.12291666666667	2	0.853515625
3147.9853515625	0.00833333333333333	0	30	3.12291666666667	1	0.830078125
3151.185546875	0.00833333333333333	0	30	3.12291666666667	2	0.7421875
3154.126953125	0.00833333333333333	0	30	3.12291666666667	2	0.9931640625
3157.1943359375	0.00833333333333333	0	-30	-5.88333333333333	2	0.75
3160.2109375	0.00833333333333333	0	-30	-5.88333333333333	2	0.7734375
3163.060546875	0.00833333333333333	0	-30	-5.88333333333333	1	0.779296875
3166.0859375	0.00833333333333333	0	-30	-5.88333333333333	2	0.546875
3168.7109375	0.00833333333333333	0	30	3.12291666666667	1	0.833984375
3172.02734375	0.00833333333333333	0	30	3.12291666666667	1	0.7255859375
3174.9853515625	0.00833333333333333	0	-30	-5.88333333333333	1	0.767578125
3218.3681640625	0.00833333333333333	0	-30	-5.88333333333333	1	1.0419921875
3221.759765625	0.00833333333333333	0	-30	-5.88333333333333	2	0.8662109375
3224.7841796875	0.00833333333333333	0	30	3.12291666666667	1	0.7548828125
3227.7431640625	0.00833333333333333	0	30	3.12291666666667	1	0.70703125
3230.6171875	0.00833333333333333	0	-30	-5.88333333333333	1	0.6572265625
3233.7099609375	0.00833333333333333	0	-30	-5.88333333333333	1	0.5966796875
3236.4501953125	0.00833333333333333	0	-30	-5.88333333333333	1	0.7919921875
3239.4677734375	0.00833333333333333	0	-30	-5.88333333333333	1	0.7509765625
3242.609375	0.00833333333333333	0	30	3.12291666666667	1	0.6015625
3245.5009765625	0.00833333333333333	0	30	3.24791666666667	1	0.654296875
3248.484375	0.00833333333333333	0	-30	-5.88333333333333	1	0.55859375
3251.341796875	0.00833333333333333	0	-30	-5.75833333333333	1	0.421875
3254.0673828125	0.00833333333333333	0	-30	-5.75833333333333	1	0.7431640625
3256.91796875	0.00833333333333333	0	30	3.24791666666667	1	0.7734375
3259.8095703125	0.00833333333333333	0	-30	-5.75833333333333	1	0.76171875
3263.0673828125	0.00833333333333333	0	-30	-5.75833333333333	1	0.599609375
3265.9169921875	0.00833333333333333	0	-30	-5.75833333333333	2	0.6943359375
3268.900390625	0.00833333333333333	0	-30	-5.75833333333333	2	0.615234375
3271.8251953125	0.00833333333333333	0	30	3.24791666666667	2	0.71484375
3274.9501953125	0.00833333333333333	0	-30	-5.75833333333333	2	0.669921875
3277.8671875	0.00833333333333333	0	-30	-5.75833333333333	2	0.5283203125
3280.6171875	0.00833333333333333	0	-30	-5.75833333333333	2	0.4990234375
3283.158203125	0.00833333333333333	0	-30	-5.88333333333333	2	0.509765625
3286.17578125	0.00833333333333333	0	-30	-5.88333333333333	2	0.46875
3289.0087890625	0.00833333333333333	0	-30	-5.88333333333333	2	0.5478515625
3291.7744140625	0.00833333333333333	0	30	3.24791666666667	2	0.494140625
3294.7333984375	0.00833333333333333	0	-30	-5.88333333333333	2	0.5029296875
3297.3251953125	0.00833333333333333	0	30	3.24791666666667	2	0.5517578125
3300.1337890625	0.00833333333333333	0	-30	-5.88333333333333	2	0.54296875
3302.900390625	0.00833333333333333	0	30	3.24791666666667	2	0.4482421875
3305.4501953125	0.00833333333333333	0	30	3.24791666666667	2	0.6748046875
3308.6005859375	0.00833333333333333	0	30	3.12291666666667	2	0.4921875
3311.283203125	0.00833333333333333	0	-30	-6.00833333333333	2	0.4892578125
3314.0986328125	0.00833333333333333	0	30	3.12291666666667	1	0.826171875
3317.3330078125	0.00833333333333333	0	-30	-6.00833333333333	2	0.6962890625
3320.3662109375	0.00833333333333333	0	30	3.12291666666667	1	0.7353515625
3323.2080078125	0.00833333333333333	0	30	3.12291666666667	1	0.685546875
3326.1328125	0.00833333333333333	0	-30	-6.00833333333333	1	0.728515625
3329.0244140625	0.00833333333333333	0	-30	-6.00833333333333	1	0.6767578125
3332	0.00833333333333333	0	30	3.12291666666667	1	0.4375
3334.8583984375	0.00833333333333333	0	-30	-6.00833333333333	1	0.5234375
3337.875	0.00833333333333333	0	30	3.12291666666667	1	0.69921875
3340.8583984375	0.00833333333333333	0	-30	-6.00833333333333	1	0.587890625
3343.6748046875	0.00833333333333333	0	30	3.24791666666667	2	0.6748046875
3346.791015625	0.00833333333333333	0	30	3.24791666666667	1	0.6953125
3349.8076171875	0.00833333333333333	0	-30	-6.00833333333333	1	0.5830078125
3352.607421875	0.00833333333333333	0	30	3.24791666666667	1	0.455078125
3355.533203125	0.00833333333333333	0	-30	-5.88333333333333	1	0.689453125
3358.5498046875	0.00833333333333333	0	-30	-5.88333333333333	1	0.896484375
3361.8740234375	0.00833333333333333	0	-30	-5.88333333333333	1	0.8603515625
3365.232421875	0.00833333333333333	0	30	3.24791666666667	1	0.669921875
3368.3408203125	0.00833333333333333	0	30	3.24791666666667	1	0.5537109375
3371.0078125	0.00833333333333333	0	30	3.24791666666667	1	1.0947265625
3374.423828125	0.00833333333333333	0	-30	-5.88333333333333	1	0.951171875
3377.70703125	0.00833333333333333	0	30	3.37291666666667	2	0.8203125
3380.69921875	0.00833333333333333	0	30	3.37291666666667	2	0.6279296875
3383.58984375	0.00833333333333333	0	30	3.37291666666667	2	0.697265625
3386.5986328125	0.00833333333333333	0	-30	-5.88333333333333	2	0.384765625
3389.2236328125	0.00833333333333333	0	-30	-5.88333333333333	2	0.4638671875
3392.0986328125	0.00833333333333333	0	30	3.37291666666667	1	0.701171875
3395.140625	0.00833333333333333	0	-30	-5.88333333333333	2	0.7626953125
3397.990234375	0.00833333333333333	0	-30	-5.88333333333333	2	0.8017578125
3401.056640625	0.00833333333333333	0	-30	-5.88333333333333	2	0.54296875
3403.8408203125	0.00833333333333333	0	-30	-6.00833333333333	2	0.6708984375
3406.6982421875	0.00833333333333333	0	30	3.37291666666667	2	0.5576171875
3409.482421875	0.00833333333333333	0	30	3.37291666666667	2	0.6220703125
3412.4150390625	0.00833333333333333	0	30	3.37291666666667	2	0.5126953125
3414.931640625	0.00833333333333333	0	30	3.37291666666667	2	0.724609375
3417.95703125	0.00833333333333333	0	-30	-6.00833333333333	2	0.7236328125
3420.9990234375	0.00833333333333333	0	30	3.37291666666667	1	0.689453125
3423.7314453125	0.00833333333333333	0	-30	-6.00833333333333	2	0.63671875
3426.4736328125	0.00833333333333333	0	30	3.37291666666667	1	0.7109375
3429.33203125	0.00833333333333333	0	30	3.37291666666667	1	0.94921875
3432.4892578125	0.00833333333333333	0	30	3.37291666666667	2	0.447265625
3435.33203125	0.00833333333333333	0	-30	-6.00833333333333	2	0.5732421875
3437.9482421875	0.00833333333333333	0	-30	-6.00833333333333	2	0.380859375
3440.7314453125	0.00833333333333333	0	-30	-6.13333333333333	1	1.029296875
3443.921875	0.00833333333333333	0	30	3.37291666666667	1	0.8310546875
3446.9560546875	0.00833333333333333	0	-30	-6.13333333333333	2	0.7890625
3450.22265625	0.00833333333333333	0	-30	-6.13333333333333	1	0.810546875
3482.130859375	0.00833333333333333	0	-30	-6.13333333333333	1	0.8310546875
3485.0556640625	0.00833333333333333	0	-30	-6.13333333333333	1	1.0185546875
3488.171875	0.00833333333333333	0	-30	-6.13333333333333	1	0.7744140625
3491.0556640625	0.00833333333333333	0	-30	-6.13333333333333	1	0.70703125
3494.2138671875	0.00833333333333333	0	30	3.37291666666667	1	0.6845703125
3497.1630859375	0.00833333333333333	0	30	3.37291666666667	1	0.759765625
3499.9560546875	0.00833333333333333	0	-30	-6.00833333333333	2	0.5029296875
3502.4892578125	0.00833333333333333	0	30	3.37291666666667	2	0.5869140625
3505.205078125	0.00833333333333333	0	30	3.37291666666667	2	0.7421875
3508.0888671875	0.00833333333333333	0	-30	-6.00833333333333	2	0.5546875
3510.9208984375	0.00833333333333333	0	30	3.37291666666667	2	0.6982421875
3513.9052734375	0.00833333333333333	0	30	3.37291666666667	2	0.7705078125
3517.11328125	0.00833333333333333	0	30	3.37291666666667	2	0.6259765625
3520.0048828125	0.00833333333333333	0	30	3.24791666666667	2	0.6708984375
3523.0556640625	0.00833333333333333	0	-30	-6.00833333333333	2	0.66796875
3525.9296875	0.00833333333333333	0	-30	-6.00833333333333	2	0.6904296875
3528.8134765625	0.00833333333333333	0	-30	-6.00833333333333	2	0.5908203125
3531.6376953125	0.00833333333333333	0	-30	-6.13333333333333	2	0.5341796875
3534.6298828125	0.00833333333333333	0	30	3.24791666666667	2	0.56640625
3537.48828125	0.00833333333333333	0	30	3.24791666666667	2	0.5556640625
3540.0966796875	0.00833333333333333	0	30	3.24791666666667	1	0.779296875
3542.9130859375	0.00833333333333333	0	30	3.24791666666667	1	0.5791015625
3545.521484375	0.00833333333333333	0	-30	-6.13333333333333	2	0.802734375
3548.6796875	0.00833333333333333	0	30	3.24791666666667	2	0.6923828125
3551.5546875	0.00833333333333333	0	30	3.24791666666667	1	0.7939453125
3554.4462890625	0.00833333333333333	0	-30	-6.13333333333333	2	0.5341796875
3557.4130859375	0.00833333333333333	0	30	3.24791666666667	1	0.5673828125
3560.087890625	0.00833333333333333	0	30	3.24791666666667	1	0.7333984375
3563.1962890625	0.00833333333333333	0	-30	-6.13333333333333	1	0.640625
3566.1875	0.00833333333333333	0	30	3.24791666666667	1	0.513671875
3568.8544921875	0.00833333333333333	0	30	3.24791666666667	1	0.5029296875
3571.4130859375	0.00833333333333333	0	30	3.37291666666667	1	0.48046875
3574.2548828125	0.00833333333333333	0	-30	-6.13333333333333	1	0.4306640625
3577.0712890625	0.00833333333333333	0	-30	-6.13333333333333	1	0.654296875
3579.728515625	0.00833333333333333	0	30	3.37291666666667	1	1.2451171875
3582.9873046875	0.00833333333333333	0	-30	-6.13333333333333	1	0.7626953125
3585.9375	0.00833333333333333	0	30	3.37291666666667	1	0.900390625
3588.9365234375	0.00833333333333333	0	30	3.37291666666667	1	0.5888671875
3591.6123046875	0.00833333333333333	0	-30	-6.13333333333333	1	0.5693359375
3594.1630859375	0.00833333333333333	0	-30	-6.00833333333333	2	0.3388671875
3596.5703125	0.00833333333333333	0	-30	-6.00833333333333	2	0.5
3599.3046875	0.00833333333333333	0	30	3.37291666666667	2	0.677734375
3601.99609375	0.00833333333333333	0	30	3.37291666666667	2	0.59375
3604.970703125	0.00833333333333333	0	30	3.37291666666667	1	0.6513671875
3607.6376953125	0.00833333333333333	0	30	3.37291666666667	1	0.48828125
3610.2041015625	0.00833333333333333	0	-30	-6.00833333333333	1	0.41015625
3612.6953125	0.00833333333333333	0	30	3.37291666666667	2	0.375
3615.3701171875	0.00833333333333333	0	30	3.37291666666667	2	0.5888671875
3618.0615234375	0.00833333333333333	0	30	3.37291666666667	2	0.4970703125
3620.828125	0.00833333333333333	0	30	3.37291666666667	2	0.5625
3623.5537109375	0.00833333333333333	0	30	3.37291666666667	2	0.4697265625
3626.4453125	0.00833333333333333	0	30	3.24791666666667	1	0.44140625
3629.38671875	0.00833333333333333	0	-30	-6.00833333333333	2	0.251953125
3631.720703125	0.00833333333333333	0	-30	-6.00833333333333	1	0.326171875
3634.4873046875	0.00833333333333333	0	-30	-6.00833333333333	2	0.3115234375
3637.1865234375	0.00833333333333333	0	-30	-6.00833333333333	2	0.3251953125
3639.6201171875	0.00833333333333333	0	-30	-6.00833333333333	2	0.4755859375
3642.1865234375	0.00833333333333333	0	30	3.24791666666667	2	0.5087890625
3644.8779296875	0.00833333333333333	0	30	3.24791666666667	2	0.4501953125
3647.5439453125	0.00833333333333333	0	30	3.24791666666667	2	0.3125
3649.986328125	0.00833333333333333	0	30	3.24791666666667	2	0.541015625
3652.8779296875	0.00833333333333333	0	30	3.24791666666667	2	0.8896484375
3655.8447265625	0.00833333333333333	0	30	3.12291666666667	1	0.5712890625
3658.603515625	0.00833333333333333	0	30	3.12291666666667	1	0.62109375
3661.310546875	0.00833333333333333	0	30	3.12291666666667	1	0.513671875
3663.986328125	0.00833333333333333	0	30	3.12291666666667	1	0.3974609375
3666.6953125	0.00833333333333333	0	30	3.12291666666667	1	0.4169921875
3669.26953125	0.00833333333333333	0	-30	-6.00833333333333	1	0.322265625
3671.5703125	0.00833333333333333	0	-30	-6.00833333333333	2	0.5576171875
3674.5361328125	0.00833333333333333	0	30	3.24791666666667	2	0.4326171875
3677.14453125	0.00833333333333333	0	30	3.24791666666667	1	0.6328125
3679.9609375	0.00833333333333333	0	-30	-6.00833333333333	2	0.728515625
3682.869140625	0.00833333333333333	0	30	3.24791666666667	1	0.68359375
3686.01953125	0.00833333333333333	0	30	3.24791666666667	1	0.4853515625
3688.5615234375	0.00833333333333333	0	-30	-6.00833333333333	2	0.7353515625
3691.544921875	0.00833333333333333	0	30	3.24791666666667	1	0.671875
3694.619140625	0.00833333333333333	0	30	3.24791666666667	1	0.58984375
3697.4775390625	0.00833333333333333	0	-30	-6.00833333333333	1	0.36328125
3700.134765625	0.00833333333333333	0	30	3.37291666666667	1	0.9228515625
3703.2607421875	0.00833333333333333	0	-30	-6.00833333333333	1	0.62890625
3728.9853515625	0.00833333333333333	0	-30	-6.00833333333333	1	0.888671875
3731.9853515625	0.00833333333333333	0	-30	-6.00833333333333	1	0.78515625
3735.1025390625	0.00833333333333333	0	-30	-6.00833333333333	1	0.7802734375
3738.193359375	0.00833333333333333	0	30	3.37291666666667	1	0.689453125
3741.0517578125	0.00833333333333333	0	-30	-5.88333333333333	1	0.9833984375
3744.3603515625	0.00833333333333333	0	-30	-5.88333333333333	1	0.5625
3747.0771484375	0.00833333333333333	0	30	3.37291666666667	1	0.7333984375
3750.16015625	0.00833333333333333	0	-30	-5.88333333333333	2	0.4345703125
3752.9599609375	0.00833333333333333	0	30	3.37291666666667	2	0.515625
3755.71875	0.00833333333333333	0	-30	-5.88333333333333	2	0.4921875
3758.3935546875	0.00833333333333333	0	-30	-5.88333333333333	2	0.3544921875
3761.0517578125	0.00833333333333333	0	30	3.37291666666667	2	0.615234375
3764.193359375	0.00833333333333333	0	30	3.37291666666667	2	0.4501953125
3766.943359375	0.00833333333333333	0	30	3.37291666666667	2	0.7958984375
3770.0517578125	0.00833333333333333	0	30	3.37291666666667	2	0.591796875
3772.8349609375	0.00833333333333333	0	30	3.24791666666667	2	0.712890625
3775.66796875	0.00833333333333333	0	-30	-5.88333333333333	2	0.775390625
3778.8681640625	0.00833333333333333	0	-30	-5.88333333333333	2	0.3759765625
3781.41015625	0.00833333333333333	0	-30	-6.00833333333333	2	0.6259765625
3784.443359375	0.00833333333333333	0	30	3.24791666666667	2	0.5849609375
3787.41796875	0.00833333333333333	0	30	3.24791666666667	2	0.7939453125
3790.6923828125	0.00833333333333333	0	30	3.24791666666667	2	0.568359375
3793.4013671875	0.00833333333333333	0	-30	-6.00833333333333	2	0.3310546875
3795.9091796875	0.00833333333333333	0	30	3.24791666666667	2	0.599609375
3798.8681640625	0.00833333333333333	0	30	3.12291666666667	2	0.5283203125
3801.66796875	0.00833333333333333	0	30	3.12291666666667	2	0.896484375
3804.8173828125	0.00833333333333333	0	-30	-6.00833333333333	2	0.37890625
3807.4091796875	0.00833333333333333	0	-30	-6.00833333333333	2	0.603515625
3810.1181640625	0.00833333333333333	0	30	3.12291666666667	2	0.615234375
3812.8681640625	0.00833333333333333	0	30	3.12291666666667	2	0.6083984375
3815.8173828125	0.00833333333333333	0	-30	-6.00833333333333	1	0.8359375
3819.1005859375	0.00833333333333333	0	-30	-6.00833333333333	2	0.904296875
3822.267578125	0.00833333333333333	0	30	3.12291666666667	1	0.7939453125
3825.576171875	0.00833333333333333	0	30	3.12291666666667	1	0.8291015625
3828.767578125	0.00833333333333333	0	30	3.12291666666667	1	0.837890625
3831.734375	0.00833333333333333	0	-30	-6.00833333333333	1	0.783203125
3834.8759765625	0.00833333333333333	0	-30	-6.00833333333333	1	0.6181640625
3837.7587890625	0.00833333333333333	0	-30	-6.00833333333333	2	0.6787109375
3840.6005859375	0.00833333333333333	0	30	3.12291666666667	2	0.6376953125
3843.5087890625	0.00833333333333333	0	30	3.12291666666667	2	0.78515625
3846.5009765625	0.00833333333333333	0	30	3.12291666666667	2	0.609375
3849.125	0.00833333333333333	0	30	3.12291666666667	2	0.5126953125
3851.6923828125	0.00833333333333333	0	-30	-6.00833333333333	2	0.498046875
3854.466796875	0.00833333333333333	0	-30	-6.00833333333333	2	0.427734375
3857.341796875	0.00833333333333333	0	-30	-6.00833333333333	2	0.82421875
3860.67578125	0.00833333333333333	0	-30	-6.00833333333333	2	0.5625
3863.30078125	0.00833333333333333	0	30	3.12291666666667	2	0.74609375
3866.3505859375	0.00833333333333333	0	-30	-6.13333333333333	2	0.736328125
3869.5087890625	0.00833333333333333	0	-30	-6.13333333333333	1	0.7216796875
3872.625	0.00833333333333333	0	30	2.99791666666667	1	0.71875
3875.650390625	0.00833333333333333	0	-30	-6.13333333333333	2	0.740234375
3878.7744140625	0.00833333333333333	0	30	2.99791666666667	1	0.8408203125
3882.025390625	0.00833333333333333	0	-30	-6.13333333333333	2	0.59765625
3884.783203125	0.00833333333333333	0	30	2.99791666666667	1	0.6240234375
3887.400390625	0.00833333333333333	0	30	2.99791666666667	1	0.8232421875
3890.55859375	0.00833333333333333	0	30	2.99791666666667	2	0.6328125
3893.533203125	0.00833333333333333	0	30	2.99791666666667	1	0.73828125
3896.3583984375	0.00833333333333333	0	30	2.99791666666667	1	0.7373046875
3899.4326171875	0.00833333333333333	0	-30	-6.13333333333333	1	0.6474609375
3902.56640625	0.00833333333333333	0	30	2.99791666666667	1	0.537109375
3905.44921875	0.00833333333333333	0	30	2.99791666666667	1	0.55859375
3908.44921875	0.00833333333333333	0	30	2.99791666666667	1	0.455078125
3910.94140625	0.00833333333333333	0	-30	-6.13333333333333	1	0.642578125
3913.732421875	0.00833333333333333	0	-30	-6.13333333333333	1	0.3955078125
3916.4326171875	0.00833333333333333	0	-30	-6.13333333333333	1	0.3115234375
3918.83984375	0.00833333333333333	0	30	3.12291666666667	1	0.5205078125
3921.416015625	0.00833333333333333	0	30	3.12291666666667	1	0.576171875
3924.015625	0.00833333333333333	0	-30	-6.13333333333333	2	0.80859375
3927.1240234375	0.00833333333333333	0	-30	-6.13333333333333	2	0.6044921875
3930.19140625	0.00833333333333333	0	-30	-6.13333333333333	1	0.849609375
3933.0244140625	0.00833333333333333	0	30	3.12291666666667	1	0.6328125
3935.9072265625	0.00833333333333333	0	-30	-6.13333333333333	1	0.7412109375
3938.8828125	0.00833333333333333	0	30	3.12291666666667	2	0.6220703125
3941.8662109375	0.00833333333333333	0	-30	-6.13333333333333	2	0.470703125
3944.5244140625	0.00833333333333333	0	30	3.12291666666667	2	0.4052734375
3947.19921875	0.00833333333333333	0	-30	-6.13333333333333	2	0.6904296875
3950.0576171875	0.00833333333333333	0	-30	-6.13333333333333	1	0.9677734375
3953.291015625	0.00833333333333333	0	-30	-6.13333333333333	1	1.3662109375
3956.857421875	0.00833333333333333	0	30	3.12291666666667	2	1.0478515625
3960.20703125	0.00833333333333333	0	-30	-6.13333333333333	1	0.73828125
3982.21484375	0.00833333333333333	0	30	3.12291666666667	2	1.2197265625
3985.8232421875	0.00833333333333333	0	30	3.12291666666667	2	0.8515625
3988.8154296875	0.00833333333333333	0	30	2.99791666666667	2	0.70703125
3991.990234375	0.00833333333333333	0	-30	-6.13333333333333	2	0.7080078125
3994.7314453125	0.00833333333333333	0	30	2.99791666666667	1	0.6630859375
3997.623046875	0.00833333333333333	0	-30	-6.13333333333333	1	0.7236328125
4000.4404296875	0.00833333333333333	0	30	2.99791666666667	1	0.962890625
4003.873046875	0.00833333333333333	0	30	2.99791666666667	1	0.5537109375
4006.431640625	0.00833333333333333	0	30	2.99791666666667	1	0.8037109375
4009.3642578125	0.00833333333333333	0	-30	-6.13333333333333	1	0.703125
4012.1728515625	0.00833333333333333	0	30	2.99791666666667	1	0.6220703125
4014.8310546875	0.00833333333333333	0	-30	-6.13333333333333	1	0.7724609375
4017.9892578125	0.00833333333333333	0	-30	-6.13333333333333	1	0.6953125
4020.8896484375	0.00833333333333333	0	-30	-6.13333333333333	1	1.2421875
4024.681640625	0.00833333333333333	0	-30	-6.00833333333333	1	0.6416015625
4027.6474609375	0.00833333333333333	0	-30	-6.00833333333333	2	0.98828125
4030.8564453125	0.00833333333333333	0	30	3.12291666666667	2	0.4677734375
4033.564453125	0.00833333333333333	0	30	3.12291666666667	2	0.34375
4035.9560546875	0.00833333333333333	0	-30	-6.00833333333333	2	0.5361328125
4038.6474609375	0.00833333333333333	0	30	3.12291666666667	2	0.3486328125
4041.0390625	0.00833333333333333	0	-30	-6.00833333333333	2	0.5009765625
4043.880859375	0.00833333333333333	0	-30	-6.00833333333333	2	0.8759765625
4047.189453125	0.00833333333333333	0	-30	-6.00833333333333	2	0.4150390625
4049.8310546875	0.00833333333333333	0	-30	-6.13333333333333	2	0.4697265625
4052.638671875	0.00833333333333333	0	-30	-6.13333333333333	2	0.6298828125
4055.5810546875	0.00833333333333333	0	-30	-6.13333333333333	2	0.85546875
4058.7060546875	0.00833333333333333	0	30	3.12291666666667	2	0.5791015625
4061.4892578125	0.00833333333333333	0	-30	-6.13333333333333	1	0.9560546875
4064.564453125	0.00833333333333333	0	30	3.12291666666667	1	0.6728515625
4067.47265625	0.00833333333333333	0	30	3.12291666666667	1	0.7001953125
4070.3642578125	0.00833333333333333	0	30	3.12291666666667	1	0.640625
4073.48046875	0.00833333333333333	0	-30	-6.13333333333333	1	1.95703125
4077.4140625	0.00833333333333333	0	30	3.12291666666667	1	0.6708984375
4080.138671875	0.00833333333333333	0	-30	-6.13333333333333	1	0.8427734375
4083.0556640625	0.00833333333333333	0	-30	-6.13333333333333	1	0.6943359375
4086.2802734375	0.00833333333333333	0	30	3.12291666666667	1	0.8134765625
4089.513671875	0.00833333333333333	0	30	3.24791666666667	1	1.01171875
4092.6220703125	0.00833333333333333	0	-30	-6.13333333333333	1	0.83203125
4095.8798828125	0.00833333333333333	0	30	3.24791666666667	1	0.509765625
4098.5556640625	0.00833333333333333	0	30	3.24791666666667	1	0.634765625
4101.4462890625	0.00833333333333333	0	-30	-6.00833333333333	1	0.5283203125
4104.1884765625	0.00833333333333333	0	-30	-6.00833333333333	2	0.8173828125
4107.138671875	0.00833333333333333	0	-30	-6.00833333333333	2	0.8115234375
4110.1552734375	0.00833333333333333	0	-30	-6.00833333333333	2	0.70703125
4113.046875	0.00833333333333333	0	30	3.24791666666667	1	0.8154296875
4116.3544921875	0.00833333333333333	0	30	3.24791666666667	1	0.6279296875
4119.4384765625	0.00833333333333333	0	-30	-6.00833333333333	2	0.6884765625
4122.2548828125	0.00833333333333333	0	-30	-6.00833333333333	1	0.82421875
4125.296875	0.00833333333333333	0	30	3.37291666666667	1	0.830078125
4128.6044921875	0.00833333333333333	0	30	3.37291666666667	1	0.634765625
4131.5048828125	0.00833333333333333	0	30	3.37291666666667	1	0.6220703125
4134.337890625	0.00833333333333333	0	-30	-6.00833333333333	1	0.7978515625
4137.2958984375	0.00833333333333333	0	-30	-6.00833333333333	1	0.615234375
4140.24609375	0.00833333333333333	0	30	3.37291666666667	1	0.6015625
4143.021484375	0.00833333333333333	0	30	3.37291666666667	1	0.826171875
4146.212890625	0.00833333333333333	0	30	3.49791666666667	1	0.787109375
4149.49609375	0.00833333333333333	0	-30	-6.00833333333333	1	0.7119140625
4152.5869140625	0.00833333333333333	0	30	3.49791666666667	2	0.708984375
4155.7373046875	0.00833333333333333	0	30	3.49791666666667	2	0.7021484375
4158.8125	0.00833333333333333	0	30	3.49791666666667	1	0.4921875
4161.845703125	0.00833333333333333	0	-30	-6.00833333333333	1	0.642578125
4164.6962890625	0.00833333333333333	0	-30	-5.88333333333333	1	0.912109375
4168.029296875	0.00833333333333333	0	-30	-5.88333333333333	2	0.9228515625
4171.0126953125	0.00833333333333333	0	-30	-5.88333333333333	2	0.740234375
4173.904296875	0.00833333333333333	0	30	3.49791666666667	1	0.6162109375
4176.99609375	0.00833333333333333	0	30	3.49791666666667	1	0.5888671875
4180.103515625	0.00833333333333333	0	-30	-5.88333333333333	1	0.529296875
4182.677734375	0.00833333333333333	0	-30	-5.88333333333333	1	0.642578125
4185.779296875	0.00833333333333333	0	-30	-5.88333333333333	1	0.60546875
4188.5703125	0.00833333333333333	0	30	3.49791666666667	1	0.7109375
4191.5703125	0.00833333333333333	0	30	3.49791666666667	1	0.7265625
4194.412109375	0.00833333333333333	0	30	3.62291666666667	1	0.556640625
4197.4541015625	0.00833333333333333	0	30	3.62291666666667	1	0.70703125
4200.2373046875	0.00833333333333333	0	30	3.62291666666667	1	0.64453125
4203.1201171875	0.00833333333333333	0	-30	-5.88333333333333	2	0.3935546875
4205.6201171875	0.00833333333333333	0	-30	-5.88333333333333	2	0.4375
4208.1455078125	0.00833333333333333	0	30	3.62291666666667	2	0.4716796875
4211.0537109375	0.00833333333333333	0	30	3.62291666666667	1	0.5078125
4214.0107421875	0.00833333333333333	0	-30	-5.88333333333333	2	0.4072265625
4216.603515625	0.00833333333333333	0	30	3.62291666666667	1	0.40625
4241.9951171875	0.00833333333333333	0	-30	-5.88333333333333	1	1.0078125
4245.26953125	0.00833333333333333	0	30	3.62291666666667	1	0.7568359375
4248.2451171875	0.00833333333333333	0	30	3.62291666666667	1	0.60546875
4251.0029296875	0.00833333333333333	0	-30	-5.88333333333333	2	0.408203125
4253.4111328125	0.00833333333333333	0	-30	-5.88333333333333	2	0.591796875
4256.0693359375	0.00833333333333333	0	-30	-5.88333333333333	2	0.58984375
4258.6689453125	0.00833333333333333	0	-30	-5.88333333333333	2	0.56640625
4261.486328125	0.00833333333333333	0	-30	-5.88333333333333	2	0.4453125
4263.994140625	0.00833333333333333	0	30	3.62291666666667	2	2.185546875
4268.3271484375	0.00833333333333333	0	-30	-6.00833333333333	2	0.6044921875
4271.2099609375	0.00833333333333333	0	-30	-6.00833333333333	2	0.505859375
4274.1611328125	0.00833333333333333	0	-30	-6.00833333333333	2	0.498046875
4277.0439453125	0.00833333333333333	0	30	3.62291666666667	1	0.6396484375
4279.927734375	0.00833333333333333	0	30	3.62291666666667	1	0.556640625
4282.619140625	0.00833333333333333	0	-30	-6.00833333333333	1	0.6083984375
4285.7109375	0.00833333333333333	0	30	3.62291666666667	1	0.541015625
4288.6943359375	0.00833333333333333	0	-30	-6.00833333333333	2	0.7978515625
4291.5849609375	0.00833333333333333	0	30	3.62291666666667	2	0.546875
4294.2275390625	0.00833333333333333	0	30	3.62291666666667	1	0.6650390625
4297.251953125	0.00833333333333333	0	-30	-6.00833333333333	2	0.728515625
4300.244140625	0.00833333333333333	0	30	3.62291666666667	1	0.7919921875
4303.4189453125	0.00833333333333333	0	30	3.62291666666667	2	0.6337890625
4306.41015625	0.00833333333333333	0	30	3.62291666666667	1	0.6103515625
4309.5107421875	0.00833333333333333	0	-30	-6.00833333333333	1	0.6376953125
4312.65234375	0.00833333333333333	0	30	3.62291666666667	1	0.6005859375
4315.7431640625	0.00833333333333333	0	30	3.62291666666667	1	0.5341796875
4318.4599609375	0.00833333333333333	0	-30	-6.00833333333333	1	0.4970703125
4321.0517578125	0.00833333333333333	0	30	3.62291666666667	1	0.4970703125
4323.685546875	0.00833333333333333	0	-30	-6.00833333333333	1	0.416015625
4326.259765625	0.00833333333333333	0	30	3.62291666666667	1	0.5380859375
4328.9013671875	0.00833333333333333	0	30	3.74791666666667	1	0.65625
4331.951171875	0.00833333333333333	0	-30	-6.00833333333333	1	0.88671875
4335.16015625	0.00833333333333333	0	30	3.74791666666667	1	0.7578125
4338.009765625	0.00833333333333333	0	-30	-6.00833333333333	2	0.7158203125
4341.1015625	0.00833333333333333	0	-30	-6.00833333333333	1	0.7841796875
4344.2685546875	0.00833333333333333	0	-30	-6.00833333333333	1	0.7529296875
4347.1015625	0.00833333333333333	0	30	3.74791666666667	1	0.5283203125
4349.951171875	0.00833333333333333	0	-30	-6.00833333333333	1	0.775390625
4352.943359375	0.00833333333333333	0	30	3.74791666666667	2	0.462890625
4355.5849609375	0.00833333333333333	0	30	3.74791666666667	1	0.5888671875
4358.5341796875	0.00833333333333333	0	30	3.74791666666667	1	0.576171875
4361.2509765625	0.00833333333333333	0	30	3.74791666666667	1	1.1396484375
4364.4345703125	0.00833333333333333	0	-30	-6.00833333333333	1	0.7080078125
4367.4765625	0.00833333333333333	0	30	3.74791666666667	1	0.6181640625
4370.333984375	0.00833333333333333	0	30	3.74791666666667	1	0.5205078125
4373.234375	0.00833333333333333	0	-30	-6.00833333333333	1	0.5966796875
4376.0419921875	0.00833333333333333	0	-30	-5.88333333333333	2	0.5732421875
4378.8173828125	0.00833333333333333	0	-30	-5.88333333333333	2	0.6533203125
4381.8095703125	0.00833333333333333	0	-30	-5.88333333333333	2	0.349609375
4384.359375	0.00833333333333333	0	30	3.87291666666667	2	0.328125
4386.7255859375	0.00833333333333333	0	30	3.87291666666667	2	0.42578125
4389.275390625	0.00833333333333333	0	30	3.87291666666667	2	0.236328125
4391.9921875	0.00833333333333333	0	-30	-5.88333333333333	2	0.3271484375
4394.5009765625	0.00833333333333333	0	30	3.87291666666667	2	0.5869140625
4397.1171875	0.00833333333333333	0	30	3.87291666666667	1	0.5302734375
4399.7255859375	0.00833333333333333	0	-30	-5.88333333333333	1	0.650390625
4402.8837890625	0.00833333333333333	0	30	3.87291666666667	1	0.2919921875
4405.474609375	0.00833333333333333	0	30	3.87291666666667	1	0.3740234375
4407.892578125	0.00833333333333333	0	-30	-5.88333333333333	1	0.35546875
4410.333984375	0.00833333333333333	0	30	3.87291666666667	2	0.3857421875
4413.19140625	0.00833333333333333	0	-30	-5.88333333333333	2	0.4970703125
4415.6923828125	0.00833333333333333	0	-30	-5.88333333333333	1	0.4521484375
4418.1923828125	0.00833333333333333	0	30	3.87291666666667	2	0.3203125
4420.517578125	0.00833333333333333	0	30	3.87291666666667	1	0.5869140625
4423.375	0.00833333333333333	0	-30	-5.88333333333333	2	0.7939453125
4426.208984375	0.00833333333333333	0	30	3.87291666666667	2	0.576171875
4428.974609375	0.00833333333333333	0	-30	-5.88333333333333	1	0.41015625
4431.732421875	0.00833333333333333	0	30	3.87291666666667	2	0.412109375
4434.625	0.00833333333333333	0	-30	-5.88333333333333	2	0.263671875
4436.9755859375	0.00833333333333333	0	30	3.87291666666667	2	0.4169921875
4439.5751953125	0.00833333333333333	0	-30	-5.88333333333333	2	0.3935546875
4442.2666015625	0.00833333333333333	0	-30	-5.88333333333333	2	0.4384765625
4444.9580078125	0.00833333333333333	0	30	3.87291666666667	2	0.37890625
4447.4921875	0.00833333333333333	0	-30	-5.88333333333333	1	0.3173828125
4450.1240234375	0.00833333333333333	0	-30	-5.88333333333333	2	0.765625
4453.2080078125	0.00833333333333333	0	30	3.87291666666667	2	0.537109375
4455.9169921875	0.00833333333333333	0	-30	-5.88333333333333	2	0.388671875
4458.408203125	0.00833333333333333	0	30	3.74791666666667	2	0.361328125
4460.93359375	0.00833333333333333	0	-30	-5.88333333333333	2	0.3798828125
4463.70703125	0.00833333333333333	0	30	3.74791666666667	2	0.55859375
