onset	duration	titr	surround	centre	response	rt
10.9560546875	0.00833333333333333	1	NaN	-15	1	2.013671875
15.4638671875	0.00833333333333333	1	-30	-15	1	0.9775390625
18.8974609375	0.00833333333333333	1	NaN	-14	1	1.6005859375
22.830078125	0.00833333333333333	1	30	15	2	0.755859375
26.005859375	0.00833333333333333	1	NaN	15	2	0.6279296875
28.86328125	0.00833333333333333	1	30	14	2	0.9150390625
32.4794921875	0.00833333333333333	1	-30	-14	1	3.72265625
38.6376953125	0.00833333333333333	1	-30	15	2	0.7724609375
41.9052734375	0.00833333333333333	1	NaN	14	2	0.4970703125
44.646484375	0.00833333333333333	1	-30	-13	1	1.396484375
48.2958984375	0.00833333333333333	1	-30	14	2	0.619140625
51.029296875	0.00833333333333333	1	-30	13	2	0.5576171875
53.845703125	0.00833333333333333	1	-30	12	2	0.4208984375
56.7958984375	0.00833333333333333	1	-30	-12	1	1.134765625
60.0458984375	0.00833333333333333	1	30	-15	1	0.8212890625
63.00390625	0.00833333333333333	1	30	13	2	0.6396484375
66.12890625	0.00833333333333333	1	30	12	1	0.8505859375
69.4462890625	0.00833333333333333	1	NaN	13	2	0.61328125
72.6376953125	0.00833333333333333	1	30	-14	1	0.662109375
75.529296875	0.00833333333333333	1	30	-13	1	0.5634765625
78.2373046875	0.00833333333333333	1	30	13	2	0.998046875
81.62890625	0.00833333333333333	1	NaN	-13	1	0.6640625
84.76171875	0.00833333333333333	1	30	-12	1	0.6982421875
87.7626953125	0.00833333333333333	1	-30	11	2	0.59375
90.4697265625	0.00833333333333333	1	30	12	1	0.7900390625
93.478515625	0.00833333333333333	1	NaN	-12	1	0.60546875
96.3115234375	0.00833333333333333	1	30	13	2	0.708984375
99.4453125	0.00833333333333333	1	NaN	12	2	0.55859375
102.1875	0.00833333333333333	1	-30	-11	2	0.8251953125
105.3955078125	0.00833333333333333	1	30	-11	1	0.4970703125
108.345703125	0.00833333333333333	1	-30	10	2	0.4267578125
111.2529296875	0.00833333333333333	1	30	12	2	0.6953125
114.2373046875	0.00833333333333333	1	-30	-12	2	0.8076171875
117.37890625	0.00833333333333333	1	NaN	-11	1	0.5390625
120.203125	0.00833333333333333	1	NaN	11	2	0.4736328125
123.0205078125	0.00833333333333333	1	NaN	10	2	0.4169921875
125.603515625	0.00833333333333333	1	NaN	9	2	0.4736328125
128.5361328125	0.00833333333333333	1	NaN	-10	1	0.4453125
131.287109375	0.00833333333333333	1	NaN	-9	1	0.662109375
134.1611328125	0.00833333333333333	1	NaN	-8	1	0.5400390625
137.01953125	0.00833333333333333	1	NaN	-7	1	0.5146484375
139.794921875	0.00833333333333333	1	-30	9	2	0.4912109375
142.7197265625	0.00833333333333333	1	30	-10	1	0.494140625
145.4951171875	0.00833333333333333	1	NaN	-6	1	0.4951171875
148.4951171875	0.00833333333333333	1	NaN	8	2	0.4873046875
151.2861328125	0.00833333333333333	1	NaN	7	2	0.552734375
154.177734375	0.00833333333333333	1	-30	8	2	0.5810546875
157.177734375	0.00833333333333333	1	30	11	2	0.908203125
160.369140625	0.00833333333333333	1	30	-9	1	0.46875
162.9853515625	0.00833333333333333	1	30	-8	1	0.62890625
165.794921875	0.00833333333333333	1	30	10	2	0.6435546875
168.90234375	0.00833333333333333	1	30	-7	1	0.5205078125
171.7275390625	0.00833333333333333	1	-30	-13	1	0.6318359375
174.5517578125	0.00833333333333333	1	-30	-12	1	0.615234375
177.5771484375	0.00833333333333333	1	NaN	6	2	0.421875
180.21875	0.00833333333333333	1	-30	7	2	0.6201171875
183.09375	0.00833333333333333	1	30	9	2	0.75390625
186.1943359375	0.00833333333333333	1	30	8	2	0.62890625
189.3193359375	0.00833333333333333	1	30	7	1	0.880859375
192.7109375	0.00833333333333333	1	30	-6	1	0.5283203125
195.5771484375	0.00833333333333333	1	NaN	5	2	0.4619140625
198.2275390625	0.00833333333333333	1	NaN	-5	1	0.5009765625
201.017578125	0.00833333333333333	1	NaN	4	2	0.4541015625
203.8525390625	0.00833333333333333	1	NaN	3	2	0.4189453125
206.5859375	0.00833333333333333	1	30	8	2	0.5576171875
209.369140625	0.00833333333333333	1	NaN	-4	1	0.6630859375
212.4345703125	0.00833333333333333	1	NaN	2	2	0.501953125
215.27734375	0.00833333333333333	1	NaN	-3	1	0.5146484375
218.2353515625	0.00833333333333333	1	NaN	-2	1	0.564453125
220.935546875	0.00833333333333333	1	-30	6	2	0.45703125
223.90234375	0.00833333333333333	1	30	-5	1	0.505859375
226.66015625	0.00833333333333333	1	30	-4	1	0.46875
229.509765625	0.00833333333333333	1	NaN	-1	1	0.7548828125
232.6435546875	0.00833333333333333	1	-30	5	2	0.4130859375
235.41796875	0.00833333333333333	1	NaN	1	1	0.6630859375
238.1845703125	0.00833333333333333	1	NaN	2	2	0.50390625
240.818359375	0.00833333333333333	1	-30	4	2	0.478515625
243.8349609375	0.00833333333333333	1	30	7	2	0.6376953125
246.943359375	0.00833333333333333	1	-30	3	2	0.482421875
249.826171875	0.00833333333333333	1	NaN	0	1	0.6552734375
252.9267578125	0.00833333333333333	1	-30	-11	2	0.7861328125
256.0009765625	0.00833333333333333	1	-30	2	2	0.5048828125
258.876953125	0.00833333333333333	1	NaN	1	1	0.572265625
261.5263671875	0.00833333333333333	1	-30	1	2	0.4033203125
264.05859375	0.00833333333333333	1	30	-3	1	0.5595703125
267.0517578125	0.00833333333333333	1	-30	-12	1	0.7900390625
270.134765625	0.00833333333333333	1	-30	0	2	0.435546875
272.9091796875	0.00833333333333333	1	30	-2	1	0.5810546875
275.884765625	0.00833333333333333	1	-30	-11	2	0.3251953125
278.6083984375	0.00833333333333333	1	-30	-12	1	0.74609375
281.4765625	0.00833333333333333	1	-30	-11	1	0.8056640625
284.7587890625	0.00833333333333333	1	30	-1	1	0.611328125
287.7255859375	0.00833333333333333	1	NaN	1	1	1.1884765625
291.3173828125	0.00833333333333333	1	30	6	1	0.8046875
294.466796875	0.00833333333333333	1	-30	-10	1	0.6484375
297.158203125	0.00833333333333333	1	30	7	1	1.3564453125
300.583984375	0.00833333333333333	1	30	8	2	0.7470703125
303.6669921875	0.00833333333333333	1	-30	-9	1	0.6962890625
306.451171875	0.00833333333333333	1	-30	-1	2	0.78515625
309.767578125	0.00833333333333333	1	30	0	1	0.7080078125
328.5078125	0.00833333333333333	1	NaN	2	2	0.8798828125
331.7333984375	0.00833333333333333	1	30	7	2	1.3271484375
335.3662109375	0.00833333333333333	1	30	1	1	0.59765625
338.18359375	0.00833333333333333	1	30	2	1	1.205078125
341.68359375	0.00833333333333333	1	30	3	1	0.80078125
344.7666015625	0.00833333333333333	1	NaN	1	1	0.990234375
347.7919921875	0.00833333333333333	1	-30	-2	2	0.4765625
350.69921875	0.00833333333333333	1	NaN	2	2	1.1533203125
353.9921875	0.00833333333333333	1	-30	-8	2	1.29296875
357.408203125	0.00833333333333333	1	-30	-3	2	0.900390625
360.6494140625	0.00833333333333333	1	30	4	1	0.8681640625
363.974609375	0.00833333333333333	1	-30	-9	2	1.1025390625
367.6240234375	0.00833333333333333	1	-30	-10	1	0.701171875
370.666015625	0.00833333333333333	1	NaN	1	1	1.515625
374.6826171875	0.00833333333333333	1	-30	-9	1	0.8984375
377.7333984375	0.00833333333333333	1	30	6	2	385.8447265625
782.78515625	0.00833333333333333	1	30	5	2	1.7060546875
787.0771484375	0.00833333333333333	1	NaN	2	2	0.92578125
790.3515625	0.00833333333333333	1	-30	-4	2	0.740234375
793.5263671875	0.00833333333333333	1	30	5	2	1.060546875
796.826171875	0.00833333333333333	1	-30	-8	1	0.6337890625
799.5849609375	0.00833333333333333	1	-30	-7	2	1.322265625
803.134765625	0.00833333333333333	1	-30	-5	2	0.6044921875
805.9599609375	0.00833333333333333	1	NaN	1	2	0.68359375
808.767578125	0.00833333333333333	1	-30	-6	1	0.916015625
811.759765625	0.00833333333333333	1	NaN	0	1	1.0439453125
815.076171875	0.00833333333333333	1	NaN	2	2	0.5673828125
817.826171875	0.00833333333333333	1	-30	-5	2	0.6025390625
820.4931640625	0.00833333333333333	1	-30	-8	2	0.5185546875
823.0341796875	0.00833333333333333	1	NaN	1	2	0.6181640625
825.8837890625	0.00833333333333333	1	-30	-6	2	12.13671875
840.517578125	0.00833333333333333	1	30	4	2	1.1435546875
843.7841796875	0.00833333333333333	1	30	4	1	0.8125
846.8095703125	0.00833333333333333	1	NaN	0	2	0.8603515625
850.0673828125	0.00833333333333333	1	30	3	1	0.8896484375
853.0595703125	0.00833333333333333	1	-30	-7	2	1.0341796875
856.5673828125	0.00833333333333333	1	NaN	-1	1	1.6455078125
860.67578125	0.00833333333333333	1	-30	-8	2	1.7373046875
864.833984375	0.00833333333333333	1	30	4	1	1.3876953125
868.92578125	0.00833333333333333	1	NaN	0	2	0.8876953125
872.1669921875	0.00833333333333333	1	-30	-9	1	1.5908203125
876.283203125	0.00833333333333333	1	NaN	-1	1	0.787109375
879.3505859375	0.00833333333333333	1	30	5	1	1.51953125
882.9990234375	0.00833333333333333	1	30	6	2	2.0146484375
887.400390625	0.00833333333333333	1	30	5	2	1.1181640625
890.625	0.00833333333333333	1	30	4	1	1.0615234375
893.9169921875	0.00833333333333333	1	NaN	1	1	2.041015625
898.4501953125	0.00833333333333333	1	30	5	1	1.97265625
902.6328125	0.00833333333333333	1	30	6	2	1.1982421875
905.9912109375	0.00833333333333333	1	NaN	0	1	0.9033203125
909.283203125	0.00833333333333333	1	30	5	1	1.2763671875
912.7578125	0.00833333333333333	1	NaN	1	1	1.6494140625
916.81640625	0.00833333333333333	1	NaN	2	2	1.22265625
920.5068359375	0.00833333333333333	1	-30	-9	2	1.205078125
924.1826171875	0.00833333333333333	1	NaN	2	2	1.48046875
928.1826171875	0.00833333333333333	1	NaN	1	2	0.697265625
931.32421875	0.00833333333333333	1	NaN	1	2	1.1396484375
934.982421875	0.00833333333333333	1	30	6	2	1.048828125
938.44921875	0.00833333333333333	1	NaN	0	1	0.791015625
941.7158203125	0.00833333333333333	1	30	5	2	0.96484375
945.2578125	0.00833333333333333	1	30	4	1	1.3505859375
948.7578125	0.00833333333333333	1	NaN	1	2	1.1865234375
952.482421875	0.00833333333333333	1	NaN	0	1	1.0458984375
956.0908203125	0.00833333333333333	1	30	5	2	1.0458984375
959.6904296875	0.00833333333333333	1	NaN	0	1	0.814453125
963.048828125	0.00833333333333333	1	30	4	1	0.8720703125
966.240234375	0.00833333333333333	1	NaN	1	1	0.6806640625
969.19921875	0.00833333333333333	1	-30	-10	1	0.681640625
971.95703125	0.00833333333333333	1	NaN	2	2	0.6044921875
974.9326171875	0.00833333333333333	1	-30	-9	1	0.63671875
978.056640625	0.00833333333333333	1	-30	-8	2	1.537109375
981.890625	0.00833333333333333	1	-30	-9	1	0.85546875
984.9482421875	0.00833333333333333	1	-30	-8	1	0.853515625
988.0322265625	0.00833333333333333	1	-30	-7	1	0.8974609375
991.08203125	0.00833333333333333	1	-30	-6	1	0.6796875
994.0654296875	0.00833333333333333	1	-30	-5	1	0.6484375
997.123046875	0.00833333333333333	1	-30	-4	1	0.630859375
999.998046875	0.00833333333333333	1	-30	-3	1	0.6279296875
1002.8818359375	0.00833333333333333	1	-30	-2	1	0.6884765625
1005.70703125	0.00833333333333333	1	-30	-1	2	0.783203125
1008.78125	0.00833333333333333	1	-30	-2	2	0.61328125
1011.814453125	0.00833333333333333	1	-30	-3	1	1.083984375
1015.40625	0.00833333333333333	1	-30	-2	2	0.9560546875
1018.7060546875	0.00833333333333333	1	-30	-3	2	0.736328125
1021.84765625	0.00833333333333333	1	-30	-4	2	0.634765625
1024.814453125	0.00833333333333333	1	-30	-5	2	0.4765625
1027.373046875	0.00833333333333333	1	-30	-6	2	0.7021484375
1030.373046875	0.00833333333333333	1	-30	-7	1	0.662109375
1033.47265625	0.00833333333333333	1	-30	-6	1	0.642578125
1036.2060546875	0.00833333333333333	1	-30	-5	1	0.796875
1039.47265625	0.00833333333333333	1	-30	-4	1	0.955078125
1042.681640625	0.00833333333333333	1	-30	-3	2	1.08984375
1046.22265625	0.00833333333333333	1	-30	-7.33333333333333	1	1.125
1049.6728515625	0.00833333333333333	1	30	6.16666666666667	1	0.73046875
1052.4892578125	0.00833333333333333	1	NaN	0.25	1	1.146484375
1055.78125	0.00833333333333333	1	30	6.29166666666667	2	1.1181640625
1059.2568359375	0.00833333333333333	1	NaN	1.25	2	0.7314453125
1062.47265625	0.00833333333333333	1	30	6.16666666666667	2	1.4677734375
1066.0888671875	0.00833333333333333	1	-30	-7.20833333333333	1	0.7080078125
1069.046875	0.00833333333333333	1	30	5.16666666666667	1	0.6943359375
1072.0048828125	0.00833333333333333	1	-30	-6.33333333333333	1	0.51953125
1074.97265625	0.00833333333333333	1	NaN	0.375	1	0.5517578125
1077.6884765625	0.00833333333333333	1	30	6.04166666666667	2	0.84375
1080.947265625	0.00833333333333333	1	30	5.91666666666667	2	0.8896484375
1120.0966796875	0.00833333333333333	1	30	5.29166666666667	2	0.9892578125
1123.2294921875	0.00833333333333333	1	-30	-6.20833333333333	2	0.9921875
1126.4794921875	0.00833333333333333	1	-30	-6.33333333333333	2	0.998046875
1129.5712890625	0.00833333333333333	1	30	5.16666666666667	2	0.9462890625
1132.646484375	0.00833333333333333	1	30	5.04166666666667	2	0.7197265625
1135.521484375	0.00833333333333333	1	-30	-7.08333333333333	2	0.8525390625
1138.470703125	0.00833333333333333	1	-30	-7.20833333333333	1	0.7431640625
1141.5458984375	0.00833333333333333	1	30	4.91666666666667	2	0.716796875
1144.5966796875	0.00833333333333333	1	30	4.79166666666667	2	0.7861328125
1147.595703125	0.00833333333333333	1	30	5.79166666666667	2	0.7548828125
1150.654296875	0.00833333333333333	1	-30	-6.45833333333333	1	1.12890625
1154.2626953125	0.00833333333333333	1	30	4.66666666666667	2	0.6484375
1157.396484375	0.00833333333333333	1	30	4.54166666666667	2	0.5947265625
1160.228515625	0.00833333333333333	1	-30	-6.33333333333333	1	0.947265625
1163.279296875	0.00833333333333333	1	-30	-6.20833333333333	2	0.607421875
1166.3046875	0.00833333333333333	1	30	4.41666666666667	2	0.7666015625
1169.4794921875	0.00833333333333333	1	NaN	1.125	2	1.3681640625
1173.029296875	0.00833333333333333	1	NaN	1	2	0.8818359375
1176.25390625	0.00833333333333333	1	30	5.66666666666667	2	0.841796875
1179.5205078125	0.00833333333333333	1	-30	-6.33333333333333	1	0.759765625
1182.5205078125	0.00833333333333333	1	30	5.54166666666667	2	1.52734375
1186.4208984375	0.00833333333333333	1	30	4.29166666666667	2	1.3232421875
1190.279296875	0.00833333333333333	1	30	4.16666666666667	2	0.9130859375
1193.720703125	0.00833333333333333	1	NaN	0.875	2	0.85546875
1197.0458984375	0.00833333333333333	1	NaN	0.75	2	0.9619140625
1200.1201171875	0.00833333333333333	1	NaN	0.5	2	0.728515625
1203.01171875	0.00833333333333333	1	NaN	0.625	1	0.892578125
1206.4287109375	0.00833333333333333	1	30	5.41666666666667	2	0.8203125
1209.62890625	0.00833333333333333	1	-30	-7.08333333333333	1	0.9873046875
1213.037109375	0.00833333333333333	1	NaN	0.75	2	0.6591796875
1215.8203125	0.00833333333333333	1	-30	-6.20833333333333	1	0.9970703125
1219.0205078125	0.00833333333333333	1	NaN	0.625	1	1.548828125
1223.0947265625	0.00833333333333333	1	-30	-6.08333333333333	1	0.8349609375
1226.3447265625	0.00833333333333333	1	-30	-5.95833333333333	1	0.9453125
1229.3115234375	0.00833333333333333	1	-30	-6.95833333333333	1	0.7216796875
1232.2529296875	0.00833333333333333	1	-30	-5.83333333333333	1	0.8056640625
1235.5703125	0.00833333333333333	1	-30	-6.83333333333333	1	0.599609375
1238.544921875	0.00833333333333333	1	30	4.04166666666667	1	0.6484375
1241.7119140625	0.00833333333333333	1	30	5.29166666666667	2	0.8017578125
1244.927734375	0.00833333333333333	1	NaN	0.75	2	0.7783203125
1247.8359375	0.00833333333333333	1	NaN	0.375	2	1.005859375
1251.3193359375	0.00833333333333333	1	30	5.16666666666667	2	0.7705078125
1254.4033203125	0.00833333333333333	1	30	4.16666666666667	2	0.85546875
1257.7783203125	0.00833333333333333	1	30	5.04166666666667	2	0.7685546875
1260.6533203125	0.00833333333333333	1	-30	-5.70833333333333	2	1.27734375
1264.0947265625	0.00833333333333333	1	30	4.91666666666667	2	0.7958984375
1267.060546875	0.00833333333333333	1	NaN	0.25	2	0.7021484375
1270.236328125	0.00833333333333333	1	30	4.79166666666667	2	0.806640625
1273.203125	0.00833333333333333	1	NaN	0.125	2	0.927734375
1276.4697265625	0.00833333333333333	1	-30	-6.70833333333333	1	1.3251953125
1280.41796875	0.00833333333333333	1	30	4.66666666666667	2	1.849609375
1284.5107421875	0.00833333333333333	1	NaN	0.625	1	1.2451171875
1287.7861328125	0.00833333333333333	1	-30	-5.83333333333333	1	0.888671875
1290.8603515625	0.00833333333333333	1	-30	-5.70833333333333	1	0.7666015625
1293.96875	0.00833333333333333	1	-30	-6.58333333333333	1	0.6748046875
1297.0361328125	0.00833333333333333	1	-30	-5.58333333333333	1	1.263671875
1300.5595703125	0.00833333333333333	1	30	4.54166666666667	1	0.7802734375
1303.560546875	0.00833333333333333	1	30	4.04166666666667	2	1.03515625
1306.78515625	0.00833333333333333	1	-30	-6.45833333333333	1	0.970703125
1309.9775390625	0.00833333333333333	1	-30	-5.45833333333333	2	1.0263671875
1313.119140625	0.00833333333333333	1	30	4.66666666666667	1	0.6533203125
1315.8359375	0.00833333333333333	1	30	3.91666666666667	1	0.6484375
1318.751953125	0.00833333333333333	1	NaN	0	1	0.755859375
1321.693359375	0.00833333333333333	1	30	4.79166666666667	1	0.966796875
1325.1015625	0.00833333333333333	1	-30	-6.33333333333333	1	0.814453125
1327.9765625	0.00833333333333333	1	NaN	0.75	2	0.7001953125
1330.876953125	0.00833333333333333	1	30	4.91666666666667	1	1.4716796875
1334.5849609375	0.00833333333333333	1	30	5.04166666666667	1	1.3876953125
1338.0263671875	0.00833333333333333	1	-30	-5.58333333333333	1	0.7314453125
1341.001953125	0.00833333333333333	1	NaN	0.625	1	0.8037109375
1343.9931640625	0.00833333333333333	1	NaN	0.75	1	0.7001953125
1347.134765625	0.00833333333333333	1	30	5.16666666666667	1	0.703125
1350.1435546875	0.00833333333333333	1	-30	-5.45833333333333	2	1.078125
1353.53515625	0.00833333333333333	1	-30	-5.58333333333333	1	0.7177734375
1356.6767578125	0.00833333333333333	1	-30	-5.45833333333333	1	0.609375
1359.451171875	0.00833333333333333	1	30	5.29166666666667	2	0.74609375
1362.259765625	0.00833333333333333	1	30	5.16666666666667	2	0.9619140625
1365.5517578125	0.00833333333333333	1	-30	-6.20833333333333	1	0.638671875
1368.359375	0.00833333333333333	1	30	4.04166666666667	1	0.6953125
1371.341796875	0.00833333333333333	1	30	5.04166666666667	1	0.640625
1374.384765625	0.00833333333333333	1	NaN	0.875	1	0.6376953125
1377.4931640625	0.00833333333333333	1	30	5.16666666666667	1	0.7294921875
1380.4169921875	0.00833333333333333	1	NaN	1	1	0.6298828125
1383.1591796875	0.00833333333333333	1	NaN	0.125	1	0.6474609375
1386.1337890625	0.00833333333333333	1	NaN	0.25	1	0.7451171875
1389.017578125	0.00833333333333333	1	NaN	0.375	1	0.6611328125
1392.0341796875	0.00833333333333333	1	-30	-5.33333333333333	1	0.64453125
1395.0087890625	0.00833333333333333	1	30	4.16666666666667	1	0.6455078125
1397.92578125	0.00833333333333333	1	30	4.29166666666667	1	0.609375
1400.8671875	0.00833333333333333	1	NaN	1.125	2	0.603515625
1403.625	0.00833333333333333	1	NaN	1	1	0.7265625
1406.6337890625	0.00833333333333333	1	NaN	0.5	1	0.7255859375
1409.6591796875	0.00833333333333333	1	-30	-6.08333333333333	1	1.076171875
1413.0927734375	0.00833333333333333	1	NaN	1.125	2	0.8828125
1416.216796875	0.00833333333333333	1	30	5.29166666666667	1	0.5986328125
1419.1171875	0.00833333333333333	1	30	5.41666666666667	1	0.7939453125
1481.9248046875	0.00833333333333333	1	30	4.41666666666667	2	1.9736328125
1486.4580078125	0.00833333333333333	1	NaN	1	1	1.224609375
1490.2080078125	0.00833333333333333	1	NaN	1.125	1	0.658203125
1493.1240234375	0.00833333333333333	1	-30	-5.95833333333333	1	0.7666015625
1495.9248046875	0.00833333333333333	1	-30	-5.20833333333333	1	0.6611328125
1498.6318359375	0.00833333333333333	1	NaN	1.25	1	0.5791015625
1501.6162109375	0.00833333333333333	1	NaN	1.375	1	0.673828125
1504.4404296875	0.00833333333333333	1	30	5.54166666666667	2	0.6181640625
1507.5078125	0.00833333333333333	1	-30	-5.08333333333333	1	0.638671875
1510.3154296875	0.00833333333333333	1	30	4.29166666666667	2	0.86328125
1513.2822265625	0.00833333333333333	1	-30	-4.95833333333333	2	0.888671875
1516.265625	0.00833333333333333	1	30	4.16666666666667	1	1.033203125
1519.6240234375	0.00833333333333333	1	NaN	1.5	2	0.73828125
1522.8994140625	0.00833333333333333	1	30	5.41666666666667	2	0.703125
1525.865234375	0.00833333333333333	1	30	4.29166666666667	2	1.0498046875
1529.1826171875	0.00833333333333333	1	NaN	0.625	1	0.5966796875
1532.048828125	0.00833333333333333	1	-30	-5.08333333333333	2	0.6748046875
1534.9404296875	0.00833333333333333	1	-30	-5.20833333333333	1	0.615234375
1537.82421875	0.00833333333333333	1	NaN	0.75	2	0.53125
1540.4658203125	0.00833333333333333	1	30	5.29166666666667	2	0.826171875
1543.58203125	0.00833333333333333	1	NaN	0.625	2	0.8935546875
1546.6240234375	0.00833333333333333	1	NaN	0.5	2	0.603515625
1549.5908203125	0.00833333333333333	1	30	4.16666666666667	2	0.6533203125
1552.7822265625	0.00833333333333333	1	30	5.16666666666667	2	0.7021484375
1555.5732421875	0.00833333333333333	1	NaN	1.375	2	0.646484375
1558.640625	0.00833333333333333	1	30	4.04166666666667	1	0.9072265625
1561.990234375	0.00833333333333333	1	NaN	0.375	2	0.509765625
1564.9482421875	0.00833333333333333	1	NaN	1.25	2	0.5283203125
1567.5234375	0.00833333333333333	1	30	4.16666666666667	2	0.7373046875
1570.7890625	0.00833333333333333	1	NaN	1.125	2	0.52734375
1573.5654296875	0.00833333333333333	1	30	5.04166666666667	2	0.607421875
1576.3154296875	0.00833333333333333	1	-30	-5.08333333333333	1	0.818359375
1579.4404296875	0.00833333333333333	1	30	4.04166666666667	1	0.8125
1582.46484375	0.00833333333333333	1	-30	-5.83333333333333	1	0.7080078125
1585.1484375	0.00833333333333333	1	30	4.16666666666667	2	0.6240234375
1588.0634765625	0.00833333333333333	1	30	4.91666666666667	1	1.1181640625
1591.513671875	0.00833333333333333	1	NaN	1	1	0.6669921875
1594.2900390625	0.00833333333333333	1	-30	-5.70833333333333	1	0.603515625
1597.0234375	0.00833333333333333	1	30	5.04166666666667	1	0.59765625
1599.6728515625	0.00833333333333333	1	-30	-5.58333333333333	1	0.869140625
1602.6396484375	0.00833333333333333	1	-30	-5.45833333333333	1	0.58203125
1605.5478515625	0.00833333333333333	1	30	5.16666666666667	1	0.6181640625
1608.623046875	0.00833333333333333	1	NaN	1.125	2	0.646484375
1611.7978515625	0.00833333333333333	1	NaN	0.25	1	0.5771484375
1614.7724609375	0.00833333333333333	1	30	4.04166666666667	2	0.7939453125
1617.6396484375	0.00833333333333333	1	NaN	0.375	2	0.6142578125
1620.7314453125	0.00833333333333333	1	NaN	0.25	1	0.578125
1623.4560546875	0.00833333333333333	1	-30	-5.33333333333333	2	0.6376953125
1626.3642578125	0.00833333333333333	1	-30	-4.95833333333333	1	0.8017578125
1629.5556640625	0.00833333333333333	1	-30	-4.83333333333333	1	0.7158203125
1632.73828125	0.00833333333333333	1	-30	-5.45833333333333	1	0.94921875
1636.1298828125	0.00833333333333333	1	30	5.29166666666667	2	0.63671875
1639.0302734375	0.00833333333333333	1	NaN	1	2	0.8408203125
1641.955078125	0.00833333333333333	1	-30	-5.33333333333333	1	0.66796875
1644.8056640625	0.00833333333333333	1	30	5.16666666666667	2	0.705078125
1647.6630859375	0.00833333333333333	1	-30	-5.20833333333333	2	0.6640625
1650.60546875	0.00833333333333333	1	-30	-4.70833333333333	1	0.6259765625
1653.630859375	0.00833333333333333	1	30	3.91666666666667	2	0.6884765625
1656.4052734375	0.00833333333333333	1	NaN	0.875	2	0.5302734375
1659.3134765625	0.00833333333333333	1	-30	-4.58333333333333	1	0.9501953125
1662.421875	0.00833333333333333	1	-30	-5.33333333333333	2	1.001953125
1665.6640625	0.00833333333333333	1	NaN	0.75	2	0.5517578125
1668.671875	0.00833333333333333	1	NaN	0.375	2	0.5517578125
1671.23046875	0.00833333333333333	1	NaN	0.25	2	0.4970703125
1674.12890625	0.00833333333333333	1	-30	-4.45833333333333	2	0.7353515625
1676.9462890625	0.00833333333333333	1	-30	-4.58333333333333	1	0.59765625
1679.9541015625	0.00833333333333333	1	NaN	0.125	2	0.6142578125
1682.6884765625	0.00833333333333333	1	30	3.79166666666667	1	0.8720703125
1685.6875	0.00833333333333333	1	NaN	0.625	2	0.712890625
1688.5048828125	0.00833333333333333	1	NaN	0.5	2	0.6708984375
1691.404296875	0.00833333333333333	1	-30	-4.45833333333333	2	0.4521484375
1694.12109375	0.00833333333333333	1	30	3.91666666666667	1	0.84765625
1697.154296875	0.00833333333333333	1	30	4.04166666666667	1	0.6943359375
1700.11328125	0.00833333333333333	1	NaN	0	2	0.6474609375
1702.98828125	0.00833333333333333	1	30	5.04166666666667	1	0.8603515625
1706.37109375	0.00833333333333333	1	NaN	0.375	1	0.7021484375
1709.5712890625	0.00833333333333333	1	30	5.16666666666667	2	0.693359375
1712.4130859375	0.00833333333333333	1	30	4.16666666666667	2	0.7802734375
1715.6298828125	0.00833333333333333	1	30	5.04166666666667	1	0.626953125
1718.396484375	0.00833333333333333	1	30	4.04166666666667	2	1.044921875
1721.98828125	0.00833333333333333	1	30	5.16666666666667	1	0.63671875
1725.029296875	0.00833333333333333	1	-30	-5.45833333333333	1	1.00390625
1728.078125	0.00833333333333333	1	-30	-5.33333333333333	1	0.755859375
1731.228515625	0.00833333333333333	1	NaN	-0.125	1	0.7490234375
1734.4453125	0.00833333333333333	1	30	5.29166666666667	1	0.63671875
1737.37890625	0.00833333333333333	1	-30	-5.20833333333333	1	0.7275390625
1740.212890625	0.00833333333333333	1	30	3.91666666666667	2	1.5810546875
1744.3876953125	0.00833333333333333	1	30	3.79166666666667	1	0.7666015625
1747.62109375	0.00833333333333333	1	30	3.91666666666667	1	0.7255859375
1750.7294921875	0.00833333333333333	1	NaN	0	2	0.6171875
1753.779296875	0.00833333333333333	1	30	5.41666666666667	1	0.599609375
1756.9033203125	0.00833333333333333	1	30	4.04166666666667	1	0.5556640625
1759.904296875	0.00833333333333333	1	-30	-5.08333333333333	1	0.7060546875
1762.6865234375	0.00833333333333333	1	NaN	-0.125	1	0.5400390625
1765.62890625	0.00833333333333333	1	30	5.54166666666667	1	0.685546875
1768.419921875	0.00833333333333333	1	30	4.16666666666667	1	0.56640625
1771.0703125	0.00833333333333333	1	30	4.29166666666667	1	0.484375
1773.7705078125	0.00833333333333333	1	NaN	0	1	0.6162109375
1776.5283203125	0.00833333333333333	1	30	4.41666666666667	1	0.6748046875
1779.3203125	0.00833333333333333	1	-30	-4.95833333333333	1	0.619140625
1817.953125	0.00833333333333333	1	30	5.66666666666667	2	1.587890625
1821.9951171875	0.00833333333333333	1	30	4.54166666666667	1	0.9697265625
1825.09375	0.00833333333333333	1	30	5.54166666666667	1	0.7431640625
1828.0615234375	0.00833333333333333	1	30	4.66666666666667	1	1.015625
1831.2861328125	0.00833333333333333	1	30	5.66666666666667	2	1.0068359375
1834.5107421875	0.00833333333333333	1	NaN	0.125	2	0.646484375
1837.552734375	0.00833333333333333	1	30	4.79166666666667	2	0.892578125
1840.5615234375	0.00833333333333333	1	30	5.54166666666667	2	1.0205078125
1843.8115234375	0.00833333333333333	1	30	5.41666666666667	2	0.994140625
1847.119140625	0.00833333333333333	1	-30	-4.83333333333333	2	0.7509765625
1850.1357421875	0.00833333333333333	1	NaN	0	2	0.806640625
1853.09375	0.00833333333333333	1	NaN	-0.125	2	1.0322265625
1856.27734375	0.00833333333333333	1	-30	-4.95833333333333	2	0.744140625
1859.2275390625	0.00833333333333333	1	30	5.29166666666667	2	0.73046875
1862.4443359375	0.00833333333333333	1	30	5.16666666666667	2	0.7138671875
1865.3681640625	0.00833333333333333	1	NaN	-0.25	1	0.7421875
1868.2275390625	0.00833333333333333	1	-30	-5.08333333333333	1	1.03515625
1871.5439453125	0.00833333333333333	1	30	5.04166666666667	1	0.71875
1874.4775390625	0.00833333333333333	1	30	5.16666666666667	1	0.6494140625
1877.435546875	0.00833333333333333	1	NaN	-0.125	1	0.6103515625
1880.28515625	0.00833333333333333	1	NaN	0	1	0.5615234375
1883.185546875	0.00833333333333333	1	NaN	0.125	1	0.6533203125
1886.16015625	0.00833333333333333	1	30	5.29166666666667	1	0.5830078125
1889.1767578125	0.00833333333333333	1	NaN	0.25	1	0.5341796875
1892.03515625	0.00833333333333333	1	-30	-4.95833333333333	1	0.587890625
1894.8017578125	0.00833333333333333	1	NaN	0.375	1	0.4775390625
1897.7021484375	0.00833333333333333	1	30	5.41666666666667	2	0.96875
1901.068359375	0.00833333333333333	1	NaN	0.5	1	1.619140625
1905.068359375	0.00833333333333333	1	NaN	0.625	1	1.306640625
1908.84375	0.00833333333333333	1	NaN	0.75	1	0.8193359375
1912.16796875	0.00833333333333333	1	NaN	0.875	1	0.5517578125
1915.1767578125	0.00833333333333333	1	NaN	1	2	1.03125
1918.701171875	0.00833333333333333	1	-30	-4.83333333333333	2	0.994140625
1921.9013671875	0.00833333333333333	1	NaN	0.875	2	0.6025390625
1924.6005859375	0.00833333333333333	1	NaN	0.75	1	0.8076171875
1927.609375	0.00833333333333333	1	-30	-4.95833333333333	2	0.806640625
1930.6513671875	0.00833333333333333	1	-30	-5.08333333333333	2	0.724609375
1933.5517578125	0.00833333333333333	1	NaN	0.875	1	0.6962890625
1936.5263671875	0.00833333333333333	1	NaN	1	2	0.6015625
1939.6015625	0.00833333333333333	1	-30	-5.20833333333333	2	0.783203125
1942.66796875	0.00833333333333333	1	-30	-5.33333333333333	1	1.205078125
1946.109375	0.00833333333333333	1	-30	-5.20833333333333	2	0.7392578125
1949.2763671875	0.00833333333333333	1	-30	-5.33333333333333	1	0.796875
1952.484375	0.00833333333333333	1	-30	-5.20833333333333	2	0.740234375
1955.5595703125	0.00833333333333333	1	-30	-5.33333333333333	2	0.697265625
1958.66796875	0.00833333333333333	1	-30	-5.45833333333333	1	0.7890625
1961.5927734375	0.00833333333333333	1	-30	-5.33333333333333	1	0.6416015625
1964.6591796875	0.00833333333333333	1	-30	-5.20833333333333	1	0.7099609375
1967.69140625	0.00833333333333333	1	-30	-5.08333333333333	1	0.6064453125
1970.392578125	0.00833333333333333	1	-30	-4.95833333333333	1	0.7529296875
1973.1845703125	0.00833333333333333	1	-30	-4.83333333333333	1	0.6015625
1975.841796875	0.00833333333333333	1	-30	-4.70833333333333	2	0.6650390625
1978.9013671875	0.00833333333333333	0	-30	-5.15208333333334	2	0.7568359375
1982.0263671875	0.00833333333333333	0	-30	-5.15208333333334	2	0.6240234375
1985.0244140625	0.00833333333333333	0	30	4.71041666666667	1	0.658203125
1987.701171875	0.00833333333333333	0	-30	-5.15208333333334	2	0.62109375
1990.6337890625	0.00833333333333333	0	30	4.71041666666667	2	0.8642578125
1993.609375	0.00833333333333333	0	-30	-5.15208333333334	2	0.6171875
1996.2255859375	0.00833333333333333	0	-30	-5.15208333333334	1	0.77734375
1999.267578125	0.00833333333333333	0	30	4.71041666666667	1	0.84765625
2002.375	0.00833333333333333	0	30	4.71041666666667	2	0.9482421875
2005.68359375	0.00833333333333333	0	30	4.71041666666667	2	0.8232421875
2008.6083984375	0.00833333333333333	0	-30	-5.15208333333334	2	0.6513671875
2011.275390625	0.00833333333333333	0	-30	-5.15208333333334	1	0.7275390625
2014.3505859375	0.00833333333333333	0	-30	-5.15208333333334	2	0.556640625
2017.333984375	0.00833333333333333	0	30	4.71041666666667	2	0.75
2020.2578125	0.00833333333333333	0	-30	-5.15208333333334	2	0.5771484375
2023.0419921875	0.00833333333333333	0	-30	-5.15208333333334	2	1.0576171875
2026.5166015625	0.00833333333333333	0	30	4.71041666666667	1	0.638671875
2029.44140625	0.00833333333333333	0	30	4.71041666666667	1	1.1142578125
2032.94140625	0.00833333333333333	0	-30	-5.15208333333334	2	0.5830078125
2035.900390625	0.00833333333333333	0	-30	-5.15208333333334	1	0.7275390625
2039.1083984375	0.00833333333333333	0	-30	-5.15208333333334	2	0.951171875
2042.43359375	0.00833333333333333	0	30	4.71041666666667	2	0.779296875
2045.4501953125	0.00833333333333333	0	-30	-5.15208333333334	2	0.666015625
2048.31640625	0.00833333333333333	0	-30	-5.15208333333334	2	0.5439453125
2051.31640625	0.00833333333333333	0	-30	-5.15208333333334	2	0.591796875
2054.06640625	0.00833333333333333	0	-30	-5.15208333333334	2	0.4501953125
2056.95703125	0.00833333333333333	0	-30	-5.27708333333334	2	0.4560546875
2059.4912109375	0.00833333333333333	0	-30	-5.27708333333334	2	0.80078125
2062.5	0.00833333333333333	0	30	4.71041666666667	1	0.7041015625
2065.3076171875	0.00833333333333333	0	-30	-5.27708333333334	2	0.4892578125
2068.06640625	0.00833333333333333	0	-30	-5.27708333333334	2	0.5390625
2070.658203125	0.00833333333333333	0	-30	-5.27708333333334	2	0.634765625
2073.7998046875	0.00833333333333333	0	-30	-5.40208333333334	2	0.78125
2076.791015625	0.00833333333333333	0	-30	-5.40208333333334	2	0.6376953125
2079.798828125	0.00833333333333333	0	-30	-5.40208333333334	2	0.55859375
2082.541015625	0.00833333333333333	0	-30	-5.40208333333334	2	0.48828125
2085.4814453125	0.00833333333333333	0	30	4.71041666666667	2	0.66015625
2088.607421875	0.00833333333333333	0	30	4.71041666666667	2	0.5419921875
2091.4404296875	0.00833333333333333	0	30	4.71041666666667	2	0.8369140625
2094.4912109375	0.00833333333333333	0	30	4.71041666666667	2	0.578125
2097.173828125	0.00833333333333333	0	30	4.71041666666667	2	0.6240234375
2099.890625	0.00833333333333333	0	-30	-5.40208333333334	1	0.8271484375
2102.7822265625	0.00833333333333333	0	-30	-5.40208333333334	2	0.783203125
2105.732421875	0.00833333333333333	0	-30	-5.40208333333334	2	0.5537109375
2108.6826171875	0.00833333333333333	0	30	4.58541666666667	2	0.8115234375
2111.5068359375	0.00833333333333333	0	-30	-5.40208333333334	2	0.763671875
2114.515625	0.00833333333333333	0	-30	-5.40208333333334	2	0.642578125
2117.4150390625	0.00833333333333333	0	30	4.58541666666667	2	1.0390625
2120.7490234375	0.00833333333333333	0	30	4.58541666666667	2	0.7529296875
2123.5068359375	0.00833333333333333	0	30	4.58541666666667	2	1.0595703125
2126.6650390625	0.00833333333333333	0	-30	-5.40208333333334	1	0.765625
2129.7900390625	0.00833333333333333	0	-30	-5.40208333333334	1	1.056640625
2133.298828125	0.00833333333333333	0	-30	-5.40208333333334	2	0.8837890625
2136.515625	0.00833333333333333	0	-30	-5.40208333333334	2	0.7236328125
2139.6396484375	0.00833333333333333	0	-30	-5.40208333333334	2	0.7109375
2142.6142578125	0.00833333333333333	0	30	4.58541666666667	1	0.8564453125
2145.8154296875	0.00833333333333333	0	30	4.58541666666667	1	1.6396484375
2149.71484375	0.00833333333333333	0	30	4.58541666666667	1	0.724609375
2153.005859375	0.00833333333333333	0	-30	-5.40208333333334	2	1.09765625
2156.240234375	0.00833333333333333	0	30	4.58541666666667	1	0.6552734375
2159.0888671875	0.00833333333333333	0	30	4.58541666666667	1	0.88671875
2162.189453125	0.00833333333333333	0	30	4.71041666666667	2	1.1142578125
2165.7568359375	0.00833333333333333	0	30	4.71041666666667	2	0.6748046875
2168.8642578125	0.00833333333333333	0	30	4.71041666666667	2	0.576171875
2171.90625	0.00833333333333333	0	30	4.71041666666667	2	0.6455078125
2174.806640625	0.00833333333333333	0	30	4.71041666666667	2	0.5537109375
2177.8232421875	0.00833333333333333	0	30	4.58541666666667	1	0.76953125
2180.84765625	0.00833333333333333	0	30	4.58541666666667	2	0.6728515625
2183.7978515625	0.00833333333333333	0	30	4.58541666666667	1	0.7548828125
2186.6640625	0.00833333333333333	0	30	4.58541666666667	1	0.7041015625
2189.6220703125	0.00833333333333333	0	30	4.58541666666667	1	0.650390625
2192.5224609375	0.00833333333333333	0	-30	-5.40208333333334	2	0.5419921875
2195.3720703125	0.00833333333333333	0	30	4.58541666666667	1	1.4853515625
2199.1806640625	0.00833333333333333	0	30	4.58541666666667	2	0.9482421875
2202.15625	0.00833333333333333	0	-30	-5.52708333333334	1	0.765625
2204.9892578125	0.00833333333333333	0	30	4.58541666666667	1	0.8759765625
2207.9384765625	0.00833333333333333	0	-30	-5.52708333333334	1	0.6552734375
2210.9306640625	0.00833333333333333	0	30	4.58541666666667	1	0.607421875
2213.9892578125	0.00833333333333333	0	-30	-5.52708333333334	1	0.6533203125
2216.697265625	0.00833333333333333	0	-30	-5.52708333333334	1	0.9765625
2257.921875	0.00833333333333333	0	-30	-5.52708333333334	1	1.2978515625
2261.48046875	0.00833333333333333	0	-30	-5.40208333333334	2	1.1142578125
2265.0546875	0.00833333333333333	0	-30	-5.40208333333334	1	0.7080078125
2268.0458984375	0.00833333333333333	0	-30	-5.40208333333334	1	0.693359375
2270.8046875	0.00833333333333333	0	30	4.58541666666667	1	0.630859375
2273.73828125	0.00833333333333333	0	-30	-5.40208333333334	2	0.625
2276.671875	0.00833333333333333	0	-30	-5.40208333333334	2	0.6513671875
2279.7216796875	0.00833333333333333	0	-30	-5.40208333333334	1	0.658203125
2282.74609375	0.00833333333333333	0	30	4.58541666666667	1	0.6259765625
2285.4287109375	0.00833333333333333	0	30	4.58541666666667	2	0.783203125
2288.6708984375	0.00833333333333333	0	-30	-5.40208333333334	1	0.7412109375
2291.6796875	0.00833333333333333	0	-30	-5.40208333333334	1	0.6767578125
2294.720703125	0.00833333333333333	0	30	4.58541666666667	1	0.6591796875
2297.646484375	0.00833333333333333	0	-30	-5.40208333333334	1	0.6376953125
2300.353515625	0.00833333333333333	0	-30	-5.40208333333334	1	0.6748046875
2303.212890625	0.00833333333333333	0	-30	-5.27708333333334	2	1.0634765625
2306.7041015625	0.00833333333333333	0	-30	-5.27708333333334	1	1.28515625
2310.25390625	0.00833333333333333	0	30	4.58541666666667	1	0.7431640625
2313.3955078125	0.00833333333333333	0	-30	-5.27708333333334	1	0.666015625
2316.2119140625	0.00833333333333333	0	30	4.58541666666667	1	0.5205078125
2318.787109375	0.00833333333333333	0	-30	-5.27708333333334	1	0.7861328125
2321.75390625	0.00833333333333333	0	30	4.58541666666667	1	0.443359375
2324.2861328125	0.00833333333333333	0	-30	-5.27708333333334	1	1.22265625
2327.7373046875	0.00833333333333333	0	30	4.58541666666667	1	1.267578125
2331.26953125	0.00833333333333333	0	-30	-5.27708333333334	1	0.86328125
2334.4375	0.00833333333333333	0	-30	-5.15208333333334	1	0.9677734375
2337.794921875	0.00833333333333333	0	30	4.71041666666667	2	0.802734375
2341.037109375	0.00833333333333333	0	30	4.71041666666667	1	0.6416015625
2344.1708984375	0.00833333333333333	0	30	4.71041666666667	1	0.955078125
2347.1865234375	0.00833333333333333	0	-30	-5.15208333333334	1	0.787109375
2350.3701171875	0.00833333333333333	0	-30	-5.15208333333334	1	0.7001953125
2353.3037109375	0.00833333333333333	0	30	4.71041666666667	1	1.0947265625
2356.703125	0.00833333333333333	0	30	4.71041666666667	1	0.623046875
2359.578125	0.00833333333333333	0	30	4.71041666666667	1	0.65234375
2362.4453125	0.00833333333333333	0	30	4.83541666666667	1	0.47265625
2365.287109375	0.00833333333333333	0	-30	-5.15208333333334	1	0.5361328125
2368.0615234375	0.00833333333333333	0	-30	-5.15208333333334	1	0.6171875
2370.8857421875	0.00833333333333333	0	-30	-5.02708333333334	1	0.609375
2373.9697265625	0.00833333333333333	0	-30	-5.02708333333334	1	1.4296875
2377.4697265625	0.00833333333333333	0	30	4.83541666666667	2	1.2412109375
2381.01953125	0.00833333333333333	0	30	4.83541666666667	2	0.6591796875
2383.953125	0.00833333333333333	0	30	4.83541666666667	2	0.8056640625
2386.8779296875	0.00833333333333333	0	30	4.83541666666667	2	0.96875
2390.302734375	0.00833333333333333	0	-30	-5.02708333333334	2	0.888671875
2393.4609375	0.00833333333333333	0	-30	-5.02708333333334	2	0.69921875
2396.453125	0.00833333333333333	0	-30	-5.02708333333334	2	0.5224609375
2399.078125	0.00833333333333333	0	30	4.83541666666667	2	0.6015625
2401.9033203125	0.00833333333333333	0	-30	-5.02708333333334	2	0.6240234375
2404.619140625	0.00833333333333333	0	30	4.71041666666667	2	0.869140625
2407.91015625	0.00833333333333333	0	-30	-5.02708333333334	1	0.921875
2411.060546875	0.00833333333333333	0	30	4.71041666666667	1	0.70703125
2413.8525390625	0.00833333333333333	0	30	4.71041666666667	1	0.939453125
2417.1279296875	0.00833333333333333	0	-30	-5.02708333333334	1	0.65625
2420.2109375	0.00833333333333333	0	-30	-5.02708333333334	1	0.662109375
2423.0859375	0.00833333333333333	0	-30	-5.02708333333334	1	0.5703125
2426.15234375	0.00833333333333333	0	30	4.71041666666667	2	0.6484375
2429.3857421875	0.00833333333333333	0	-30	-5.02708333333334	1	0.703125
2432.26953125	0.00833333333333333	0	30	4.71041666666667	1	0.5625
2435.244140625	0.00833333333333333	0	-30	-4.90208333333334	2	0.5888671875
2437.935546875	0.00833333333333333	0	-30	-4.90208333333334	2	0.5849609375
2440.7685546875	0.00833333333333333	0	30	4.71041666666667	1	0.6728515625
2443.9189453125	0.00833333333333333	0	30	4.71041666666667	1	1.0029296875
2447.177734375	0.00833333333333333	0	30	4.71041666666667	2	0.7119140625
2450.41015625	0.00833333333333333	0	-30	-4.90208333333334	2	0.599609375
2453.4345703125	0.00833333333333333	0	30	4.71041666666667	2	0.5263671875
2456.060546875	0.00833333333333333	0	30	4.71041666666667	2	0.5576171875
2458.7353515625	0.00833333333333333	0	30	4.71041666666667	2	0.5302734375
2461.318359375	0.00833333333333333	0	-30	-4.90208333333334	2	1.0595703125
2464.5771484375	0.00833333333333333	0	30	4.71041666666667	2	1.216796875
2467.9931640625	0.00833333333333333	0	-30	-4.90208333333334	2	1.216796875
2471.3857421875	0.00833333333333333	0	-30	-5.02708333333334	2	0.736328125
2474.4521484375	0.00833333333333333	0	30	4.58541666666667	2	1.24609375
2478.0439453125	0.00833333333333333	0	-30	-5.02708333333334	2	0.982421875
2481.509765625	0.00833333333333333	0	30	4.58541666666667	1	1.1962890625
2485.03515625	0.00833333333333333	0	-30	-5.02708333333334	2	1
2488.185546875	0.00833333333333333	0	30	4.58541666666667	1	0.79296875
2491.0419921875	0.00833333333333333	0	-30	-5.02708333333334	2	0.6240234375
2493.9267578125	0.00833333333333333	0	30	4.58541666666667	1	0.8203125
2497.1015625	0.00833333333333333	0	-30	-5.02708333333334	1	1.2294921875
2500.7265625	0.00833333333333333	0	30	4.58541666666667	2	0.66796875
2530.3427734375	0.00833333333333333	0	-30	-5.02708333333334	2	1.6533203125
2534.2255859375	0.00833333333333333	0	30	4.58541666666667	2	0.666015625
2537.392578125	0.00833333333333333	0	-30	-5.02708333333334	1	0.68359375
2540.5009765625	0.00833333333333333	0	-30	-5.02708333333334	2	0.6474609375
2543.67578125	0.00833333333333333	0	30	4.58541666666667	1	0.904296875
2546.841796875	0.00833333333333333	0	-30	-5.02708333333334	2	0.650390625
2549.734375	0.00833333333333333	0	30	4.58541666666667	2	1.0146484375
2553.201171875	0.00833333333333333	0	-30	-5.02708333333334	2	1.236328125
2557.0009765625	0.00833333333333333	0	30	4.58541666666667	2	1.1953125
2560.650390625	0.00833333333333333	0	30	4.58541666666667	2	0.7236328125
2563.55859375	0.00833333333333333	0	-30	-5.02708333333334	2	0.91796875
2566.7587890625	0.00833333333333333	0	30	4.58541666666667	1	0.646484375
2569.7998046875	0.00833333333333333	0	-30	-5.02708333333334	2	0.78125
2572.67578125	0.00833333333333333	0	-30	-5.15208333333334	2	0.689453125
2575.650390625	0.00833333333333333	0	-30	-5.15208333333334	2	1.0751953125
2579.30859375	0.00833333333333333	0	-30	-5.15208333333334	2	1.0166015625
2582.6591796875	0.00833333333333333	0	-30	-5.15208333333334	2	0.7783203125
2585.6669921875	0.00833333333333333	0	30	4.58541666666667	1	0.890625
2588.6083984375	0.00833333333333333	0	30	4.58541666666667	1	0.6376953125
2591.375	0.00833333333333333	0	30	4.58541666666667	1	0.7109375
2594.341796875	0.00833333333333333	0	30	4.58541666666667	1	1.064453125
2597.875	0.00833333333333333	0	30	4.71041666666667	2	0.572265625
2600.6328125	0.00833333333333333	0	-30	-5.15208333333334	2	0.61328125
2603.474609375	0.00833333333333333	0	-30	-5.27708333333334	2	0.748046875
2606.7919921875	0.00833333333333333	0	-30	-5.27708333333334	2	0.7744140625
2609.8662109375	0.00833333333333333	0	30	4.71041666666667	1	0.908203125
2613.06640625	0.00833333333333333	0	-30	-5.27708333333334	2	0.65234375
2616.1484375	0.00833333333333333	0	30	4.71041666666667	1	0.7138671875
2618.93359375	0.00833333333333333	0	-30	-5.27708333333334	2	0.5849609375
2622.033203125	0.00833333333333333	0	-30	-5.27708333333334	2	0.7255859375
2625.033203125	0.00833333333333333	0	30	4.71041666666667	2	0.662109375
2628.158203125	0.00833333333333333	0	-30	-5.40208333333334	2	0.5849609375
2631.015625	0.00833333333333333	0	-30	-5.40208333333334	2	0.5205078125
2633.6748046875	0.00833333333333333	0	30	4.71041666666667	2	0.4599609375
2636.2578125	0.00833333333333333	0	30	4.71041666666667	1	0.8779296875
2639.791015625	0.00833333333333333	0	-30	-5.40208333333334	2	0.552734375
2642.7412109375	0.00833333333333333	0	30	4.71041666666667	1	0.6982421875
2645.865234375	0.00833333333333333	0	30	4.71041666666667	1	0.791015625
2648.724609375	0.00833333333333333	0	30	4.71041666666667	1	0.6748046875
2651.6748046875	0.00833333333333333	0	-30	-5.40208333333334	2	0.9169921875
2654.81640625	0.00833333333333333	0	-30	-5.40208333333334	2	0.703125
2657.8994140625	0.00833333333333333	0	-30	-5.52708333333334	2	0.6123046875
2660.7900390625	0.00833333333333333	0	-30	-5.52708333333334	2	0.76171875
2663.732421875	0.00833333333333333	0	30	4.71041666666667	2	0.8603515625
2667.107421875	0.00833333333333333	0	30	4.71041666666667	1	1.3017578125
2670.4990234375	0.00833333333333333	0	-30	-5.52708333333334	1	0.96484375
2673.7578125	0.00833333333333333	0	30	4.71041666666667	2	1.0029296875
2676.8994140625	0.00833333333333333	0	30	4.71041666666667	1	0.6455078125
2679.8994140625	0.00833333333333333	0	30	4.71041666666667	1	0.525390625
2682.9404296875	0.00833333333333333	0	30	4.71041666666667	1	0.66015625
2685.70703125	0.00833333333333333	0	-30	-5.52708333333334	2	0.845703125
2688.6572265625	0.00833333333333333	0	30	4.71041666666667	1	0.5361328125
2691.490234375	0.00833333333333333	0	30	4.71041666666667	1	0.5751953125
2694.1572265625	0.00833333333333333	0	-30	-5.52708333333334	2	0.6923828125
2697.357421875	0.00833333333333333	0	30	4.83541666666667	1	0.6201171875
2700.1240234375	0.00833333333333333	0	-30	-5.52708333333334	2	0.6533203125
2703.2734375	0.00833333333333333	0	30	4.83541666666667	1	0.599609375
2705.9736328125	0.00833333333333333	0	30	4.83541666666667	1	0.4677734375
2708.673828125	0.00833333333333333	0	30	4.83541666666667	1	0.52734375
2711.4150390625	0.00833333333333333	0	-30	-5.52708333333334	2	0.72265625
2714.5068359375	0.00833333333333333	0	-30	-5.52708333333334	2	0.638671875
2717.33984375	0.00833333333333333	0	30	4.83541666666667	1	0.677734375
2720.1982421875	0.00833333333333333	0	30	4.96041666666667	1	0.564453125
2722.97265625	0.00833333333333333	0	30	4.96041666666667	1	0.6376953125
2725.71484375	0.00833333333333333	0	30	4.96041666666667	1	0.599609375
2728.806640625	0.00833333333333333	0	-30	-5.65208333333334	2	0.5556640625
2731.71484375	0.00833333333333333	0	-30	-5.65208333333334	2	0.6396484375
2734.873046875	0.00833333333333333	0	-30	-5.65208333333334	2	0.6416015625
2737.689453125	0.00833333333333333	0	-30	-5.65208333333334	2	0.6337890625
2740.78125	0.00833333333333333	0	-30	-5.65208333333334	2	0.6943359375
2743.865234375	0.00833333333333333	0	-30	-5.77708333333334	2	0.6337890625
2746.689453125	0.00833333333333333	0	30	4.96041666666667	1	0.5693359375
2749.5400390625	0.00833333333333333	0	30	4.96041666666667	1	0.4873046875
2752.513671875	0.00833333333333333	0	30	5.08541666666667	1	0.4658203125
2755.439453125	0.00833333333333333	0	-30	-5.77708333333334	2	0.580078125
2758.4892578125	0.00833333333333333	0	30	5.08541666666667	1	0.59375
2761.21484375	0.00833333333333333	0	30	5.08541666666667	1	0.6044921875
2764.1806640625	0.00833333333333333	0	30	5.08541666666667	1	0.8388671875
2767.4384765625	0.00833333333333333	0	-30	-5.77708333333334	2	0.7412109375
2770.3310546875	0.00833333333333333	0	30	5.08541666666667	1	1.1611328125
2799.9892578125	0.00833333333333333	0	30	5.21041666666667	1	1.111328125
2803.421875	0.00833333333333333	0	-30	-5.77708333333334	1	0.8623046875
2806.572265625	0.00833333333333333	0	-30	-5.77708333333334	1	0.6005859375
2809.4384765625	0.00833333333333333	0	30	5.21041666666667	1	0.630859375
2812.3798828125	0.00833333333333333	0	-30	-5.77708333333334	1	0.5693359375
2815.4384765625	0.00833333333333333	0	-30	-5.77708333333334	1	0.7587890625
2818.4052734375	0.00833333333333333	0	30	5.21041666666667	1	0.9443359375
2821.4716796875	0.00833333333333333	0	30	5.21041666666667	1	0.6376953125
2824.5888671875	0.00833333333333333	0	-30	-5.77708333333334	1	0.5849609375
2827.513671875	0.00833333333333333	0	30	5.21041666666667	1	0.6923828125
2830.73828125	0.00833333333333333	0	30	5.33541666666667	1	0.6591796875
2833.521484375	0.00833333333333333	0	30	5.33541666666667	1	0.6923828125
2836.287109375	0.00833333333333333	0	30	5.33541666666667	2	0.951171875
2839.62109375	0.00833333333333333	0	30	5.33541666666667	2	0.80859375
2842.8046875	0.00833333333333333	0	-30	-5.65208333333334	2	1.0498046875
2846.279296875	0.00833333333333333	0	30	5.33541666666667	2	1.0146484375
2849.3798828125	0.00833333333333333	0	-30	-5.65208333333334	1	1.6103515625
2853.0380859375	0.00833333333333333	0	30	5.33541666666667	2	0.7685546875
2856.0546875	0.00833333333333333	0	-30	-5.65208333333334	2	0.85546875
2859.0048828125	0.00833333333333333	0	-30	-5.65208333333334	2	0.857421875
2861.896484375	0.00833333333333333	0	30	5.33541666666667	1	1.23046875
2865.6708984375	0.00833333333333333	0	30	5.33541666666667	2	0.96875
2869.12109375	0.00833333333333333	0	-30	-5.65208333333334	2	0.78125
2872.220703125	0.00833333333333333	0	30	5.33541666666667	2	0.802734375
2875.49609375	0.00833333333333333	0	-30	-5.65208333333334	1	1.3193359375
2879.220703125	0.00833333333333333	0	30	5.33541666666667	2	0.7314453125
2882.1455078125	0.00833333333333333	0	30	5.33541666666667	2	0.7900390625
2885.2197265625	0.00833333333333333	0	-30	-5.65208333333334	2	0.66015625
2888.1455078125	0.00833333333333333	0	-30	-5.65208333333334	2	0.8388671875
2891.029296875	0.00833333333333333	0	30	5.33541666666667	2	0.73828125
2893.9287109375	0.00833333333333333	0	30	5.21041666666667	2	0.71875
2897.162109375	0.00833333333333333	0	30	5.21041666666667	2	0.662109375
2900.1953125	0.00833333333333333	0	-30	-5.65208333333334	2	0.7568359375
2903.279296875	0.00833333333333333	0	-30	-5.65208333333334	2	0.625
2906.1787109375	0.00833333333333333	0	30	5.21041666666667	2	0.517578125
2909.1279296875	0.00833333333333333	0	-30	-5.65208333333334	1	0.9365234375
2912.1875	0.00833333333333333	0	-30	-5.65208333333334	2	1.2607421875
2915.728515625	0.00833333333333333	0	-30	-5.65208333333334	1	0.65625
2918.5126953125	0.00833333333333333	0	30	5.21041666666667	2	0.7041015625
2921.3955078125	0.00833333333333333	0	-30	-5.65208333333334	1	0.7568359375
2924.38671875	0.00833333333333333	0	-30	-5.65208333333334	1	0.7900390625
2927.26171875	0.00833333333333333	0	-30	-5.65208333333334	1	0.69140625
2930.25390625	0.00833333333333333	0	30	5.21041666666667	1	0.5234375
2932.8203125	0.00833333333333333	0	-30	-5.65208333333334	1	0.5322265625
2935.8369140625	0.00833333333333333	0	30	5.21041666666667	2	0.6201171875
2939.00390625	0.00833333333333333	0	-30	-5.52708333333334	1	0.6064453125
2941.6455078125	0.00833333333333333	0	-30	-5.52708333333334	1	0.6513671875
2944.6279296875	0.00833333333333333	0	30	5.21041666666667	1	0.822265625
2947.76171875	0.00833333333333333	0	30	5.21041666666667	1	0.5517578125
2950.4365234375	0.00833333333333333	0	30	5.21041666666667	1	0.5009765625
2953.0537109375	0.00833333333333333	0	-30	-5.52708333333334	1	0.7001953125
2956.14453125	0.00833333333333333	0	30	5.21041666666667	1	0.9609375
2959.26953125	0.00833333333333333	0	30	5.21041666666667	2	0.8603515625
2962.26953125	0.00833333333333333	0	30	5.21041666666667	2	0.62890625
2965.2021484375	0.00833333333333333	0	-30	-5.52708333333334	1	1.111328125
2968.4609375	0.00833333333333333	0	30	5.21041666666667	1	0.701171875
2971.2861328125	0.00833333333333333	0	-30	-5.52708333333334	1	0.8125
2974.2109375	0.00833333333333333	0	30	5.21041666666667	1	0.9912109375
2977.5185546875	0.00833333333333333	0	30	5.21041666666667	1	0.6923828125
2980.236328125	0.00833333333333333	0	-30	-5.40208333333334	2	0.90234375
2983.4609375	0.00833333333333333	0	30	5.21041666666667	1	0.8544921875
2986.8359375	0.00833333333333333	0	30	5.21041666666667	1	0.6787109375
2989.8193359375	0.00833333333333333	0	-30	-5.40208333333334	1	0.775390625
2992.861328125	0.00833333333333333	0	-30	-5.40208333333334	2	0.9814453125
2995.96875	0.00833333333333333	0	-30	-5.40208333333334	1	1.0107421875
2999.2353515625	0.00833333333333333	0	30	5.33541666666667	1	0.6240234375
3002.0439453125	0.00833333333333333	0	30	5.33541666666667	1	0.599609375
3004.943359375	0.00833333333333333	0	30	5.33541666666667	1	0.5478515625
3007.90234375	0.00833333333333333	0	-30	-5.40208333333334	2	0.7099609375
3010.6767578125	0.00833333333333333	0	30	5.33541666666667	1	0.646484375
3013.685546875	0.00833333333333333	0	-30	-5.40208333333334	1	0.7421875
3016.8857421875	0.00833333333333333	0	-30	-5.40208333333334	2	0.75
3020.185546875	0.00833333333333333	0	-30	-5.40208333333334	2	0.5546875
3023.1357421875	0.00833333333333333	0	30	5.33541666666667	1	0.6123046875
3026.126953125	0.00833333333333333	0	-30	-5.40208333333334	2	0.7412109375
3028.8935546875	0.00833333333333333	0	30	5.46041666666667	2	0.9189453125
3032.0185546875	0.00833333333333333	0	-30	-5.40208333333334	2	1.0107421875
3035.2353515625	0.00833333333333333	0	-30	-5.40208333333334	2	0.9365234375
3038.4599609375	0.00833333333333333	0	-30	-5.52708333333334	1	1.47265625
3042.0771484375	0.00833333333333333	0	30	5.46041666666667	2	1.375
3090.05078125	0.00833333333333333	0	-30	-5.52708333333334	1	1.0751953125
3093.4091796875	0.00833333333333333	0	-30	-5.52708333333334	2	0.9736328125
3096.7431640625	0.00833333333333333	0	30	5.46041666666667	1	1.5673828125
3100.6513671875	0.00833333333333333	0	30	5.46041666666667	2	1.203125
3104.3251953125	0.00833333333333333	0	-30	-5.52708333333334	2	0.658203125
3107.4755859375	0.00833333333333333	0	30	5.46041666666667	2	0.69140625
3110.2841796875	0.00833333333333333	0	30	5.46041666666667	2	0.5869140625
3113.0927734375	0.00833333333333333	0	30	5.46041666666667	2	0.6103515625
3116.1669921875	0.00833333333333333	0	-30	-5.52708333333334	2	0.6240234375
3119.29296875	0.00833333333333333	0	30	5.46041666666667	1	0.6025390625
3122.0341796875	0.00833333333333333	0	30	5.46041666666667	1	1.1728515625
3125.275390625	0.00833333333333333	0	-30	-5.52708333333334	1	0.9638671875
3128.275390625	0.00833333333333333	0	-30	-5.52708333333334	1	0.595703125
3131.17578125	0.00833333333333333	0	30	5.46041666666667	2	0.6318359375
3133.892578125	0.00833333333333333	0	30	5.46041666666667	1	0.5234375
3136.6591796875	0.00833333333333333	0	30	5.46041666666667	1	0.6201171875
3139.466796875	0.00833333333333333	0	30	5.46041666666667	1	0.525390625
3142.150390625	0.00833333333333333	0	30	5.46041666666667	1	0.41796875
3144.7587890625	0.00833333333333333	0	-30	-5.52708333333334	1	0.609375
3147.42578125	0.00833333333333333	0	30	5.46041666666667	1	0.5498046875
3150.1005859375	0.00833333333333333	0	30	5.58541666666667	1	0.4111328125
3152.5751953125	0.00833333333333333	0	30	5.58541666666667	1	0.4013671875
3155.400390625	0.00833333333333333	0	30	5.58541666666667	1	0.4326171875
3158.216796875	0.00833333333333333	0	30	5.58541666666667	1	0.5283203125
3161.1171875	0.00833333333333333	0	30	5.58541666666667	1	0.4833984375
3163.6162109375	0.00833333333333333	0	-30	-5.52708333333334	1	1.2255859375
3167.2998046875	0.00833333333333333	0	-30	-5.52708333333334	1	0.8125
3170.1494140625	0.00833333333333333	0	-30	-5.40208333333334	1	0.732421875
3172.908203125	0.00833333333333333	0	-30	-5.40208333333334	2	0.6767578125
3175.7919921875	0.00833333333333333	0	30	5.71041666666667	1	0.6806640625
3178.533203125	0.00833333333333333	0	30	5.71041666666667	1	0.5966796875
3181.4248046875	0.00833333333333333	0	30	5.71041666666667	1	0.552734375
3184.33203125	0.00833333333333333	0	30	5.71041666666667	2	0.814453125
3187.18359375	0.00833333333333333	0	-30	-5.40208333333334	2	0.5693359375
3189.8251953125	0.00833333333333333	0	-30	-5.40208333333334	2	0.9443359375
3192.8330078125	0.00833333333333333	0	30	5.71041666666667	1	1.0966796875
3196.216796875	0.00833333333333333	0	30	5.71041666666667	1	0.6494140625
3199.2734375	0.00833333333333333	0	-30	-5.40208333333334	2	0.6240234375
3202.3662109375	0.00833333333333333	0	-30	-5.40208333333334	2	0.587890625
3205.20703125	0.00833333333333333	0	-30	-5.52708333333334	2	0.40234375
3207.6826171875	0.00833333333333333	0	30	5.71041666666667	2	0.4072265625
3210.4912109375	0.00833333333333333	0	30	5.71041666666667	1	0.646484375
3213.4990234375	0.00833333333333333	0	30	5.71041666666667	1	0.5185546875
3216.2822265625	0.00833333333333333	0	-30	-5.52708333333334	2	0.5595703125
3219.07421875	0.00833333333333333	0	30	5.71041666666667	1	0.6162109375
3221.890625	0.00833333333333333	0	-30	-5.52708333333334	2	0.576171875
3224.5576171875	0.00833333333333333	0	30	5.71041666666667	1	0.62109375
3227.3662109375	0.00833333333333333	0	30	5.71041666666667	1	0.6123046875
3230.291015625	0.00833333333333333	0	-30	-5.52708333333334	2	0.7353515625
3233.107421875	0.00833333333333333	0	-30	-5.52708333333334	2	0.896484375
3236.44140625	0.00833333333333333	0	-30	-5.65208333333334	2	0.6337890625
3239.2822265625	0.00833333333333333	0	30	5.83541666666667	1	0.9365234375
3242.5244140625	0.00833333333333333	0	30	5.83541666666667	2	0.55078125
3245.4404296875	0.00833333333333333	0	-30	-5.65208333333334	2	0.6103515625
3248.2158203125	0.00833333333333333	0	-30	-5.65208333333334	1	1.01953125
3251.33203125	0.00833333333333333	0	-30	-5.65208333333334	2	0.5673828125
3253.9404296875	0.00833333333333333	0	-30	-5.65208333333334	1	0.6953125
3257.1318359375	0.00833333333333333	0	-30	-5.65208333333334	1	0.759765625
3259.990234375	0.00833333333333333	0	30	5.83541666666667	2	0.8369140625
3263.1728515625	0.00833333333333333	0	30	5.83541666666667	1	0.6875
3266.0400390625	0.00833333333333333	0	-30	-5.65208333333334	2	0.923828125
3269.115234375	0.00833333333333333	0	-30	-5.65208333333334	1	0.5771484375
3271.865234375	0.00833333333333333	0	-30	-5.65208333333334	1	0.8984375
3274.8154296875	0.00833333333333333	0	30	5.83541666666667	2	0.64453125
3277.7236328125	0.00833333333333333	0	-30	-5.65208333333334	1	0.6171875
3280.70703125	0.00833333333333333	0	30	5.83541666666667	2	0.865234375
3283.95703125	0.00833333333333333	0	30	5.83541666666667	1	0.6953125
3287.048828125	0.00833333333333333	0	-30	-5.65208333333334	1	1.34765625
3290.6142578125	0.00833333333333333	0	-30	-5.65208333333334	2	0.6865234375
3293.7314453125	0.00833333333333333	0	30	5.83541666666667	2	0.6494140625
3296.7890625	0.00833333333333333	0	30	5.83541666666667	2	0.5439453125
3299.5390625	0.00833333333333333	0	-30	-5.65208333333334	2	0.4423828125
3302.2802734375	0.00833333333333333	0	30	5.83541666666667	2	0.509765625
3304.947265625	0.00833333333333333	0	-30	-5.65208333333334	2	0.498046875
3307.755859375	0.00833333333333333	0	-30	-5.65208333333334	2	0.353515625
3310.4638671875	0.00833333333333333	0	30	5.83541666666667	2	0.470703125
3313.2646484375	0.00833333333333333	0	-30	-5.65208333333334	2	0.365234375
3315.9140625	0.00833333333333333	0	-30	-5.77708333333334	2	0.611328125
3318.73046875	0.00833333333333333	0	30	5.83541666666667	2	0.5234375
3321.58984375	0.00833333333333333	0	-30	-5.77708333333334	1	0.80078125
3347.8974609375	0.00833333333333333	0	-30	-5.77708333333334	1	0.9736328125
3351.013671875	0.00833333333333333	0	-30	-5.77708333333334	1	0.79296875
3353.880859375	0.00833333333333333	0	30	5.71041666666667	2	0.7734375
3356.837890625	0.00833333333333333	0	-30	-5.77708333333334	2	0.5771484375
3359.5302734375	0.00833333333333333	0	-30	-5.77708333333334	2	0.62890625
3362.23046875	0.00833333333333333	0	-30	-5.77708333333334	2	0.751953125
3365.4052734375	0.00833333333333333	0	-30	-5.77708333333334	1	0.833984375
3368.5546875	0.00833333333333333	0	-30	-5.77708333333334	1	0.708984375
3371.5458984375	0.00833333333333333	0	-30	-5.77708333333334	1	0.693359375
3374.2626953125	0.00833333333333333	0	-30	-5.77708333333334	1	0.6484375
3377.0126953125	0.00833333333333333	0	-30	-5.77708333333334	1	0.6748046875
3380.0546875	0.00833333333333333	0	30	5.71041666666667	2	0.96875
3383.830078125	0.00833333333333333	0	30	5.71041666666667	1	0.8251953125
3387.0712890625	0.00833333333333333	0	-30	-5.65208333333334	1	1.78515625
3391.3388671875	0.00833333333333333	0	-30	-5.65208333333334	1	0.7890625
3394.587890625	0.00833333333333333	0	30	5.71041666666667	1	0.748046875
3397.3544921875	0.00833333333333333	0	30	5.71041666666667	2	0.990234375
3400.6298828125	0.00833333333333333	0	30	5.71041666666667	2	0.9140625
3403.8291015625	0.00833333333333333	0	30	5.71041666666667	2	0.5634765625
3406.470703125	0.00833333333333333	0	-30	-5.65208333333334	1	0.609375
3409.546875	0.00833333333333333	0	-30	-5.65208333333334	1	0.6455078125
3412.3125	0.00833333333333333	0	-30	-5.65208333333334	1	0.6796875
3415.0537109375	0.00833333333333333	0	-30	-5.52708333333334	2	0.779296875
3418.23828125	0.00833333333333333	0	-30	-5.52708333333334	2	0.818359375
3421.4287109375	0.00833333333333333	0	30	5.71041666666667	1	0.587890625
3424.0458984375	0.00833333333333333	0	-30	-5.52708333333334	2	0.5791015625
3426.662109375	0.00833333333333333	0	30	5.71041666666667	1	0.5791015625
3429.5791015625	0.00833333333333333	0	30	5.71041666666667	2	0.6865234375
3432.62890625	0.00833333333333333	0	-30	-5.52708333333334	1	0.8291015625
3435.728515625	0.00833333333333333	0	-30	-5.52708333333334	2	0.6728515625
3438.6298828125	0.00833333333333333	0	-30	-5.52708333333334	2	0.7001953125
3441.6201171875	0.00833333333333333	0	-30	-5.52708333333334	2	0.533203125
3444.3701171875	0.00833333333333333	0	30	5.71041666666667	2	0.943359375
3447.8115234375	0.00833333333333333	0	30	5.71041666666667	1	0.75
3450.7451171875	0.00833333333333333	0	-30	-5.52708333333334	2	0.6806640625
3453.5869140625	0.00833333333333333	0	-30	-5.52708333333334	2	0.6953125
3456.453125	0.00833333333333333	0	30	5.71041666666667	1	0.59765625
3459.361328125	0.00833333333333333	0	-30	-5.65208333333334	2	0.6171875
3462.537109375	0.00833333333333333	0	-30	-5.65208333333334	2	0.73828125
3465.7626953125	0.00833333333333333	0	-30	-5.65208333333334	2	0.927734375
3469.01953125	0.00833333333333333	0	-30	-5.65208333333334	2	0.51953125
3471.8203125	0.00833333333333333	0	30	5.71041666666667	1	0.669921875
3474.677734375	0.00833333333333333	0	-30	-5.65208333333334	2	0.525390625
3477.595703125	0.00833333333333333	0	30	5.71041666666667	1	0.53515625
3480.4951171875	0.00833333333333333	0	-30	-5.77708333333334	2	0.5400390625
3483.3037109375	0.00833333333333333	0	-30	-5.77708333333334	2	1.0595703125
3486.7197265625	0.00833333333333333	0	30	5.71041666666667	1	0.53125
3489.5615234375	0.00833333333333333	0	-30	-5.77708333333334	2	0.75390625
3492.51171875	0.00833333333333333	0	-30	-5.77708333333334	2	0.5400390625
3495.2373046875	0.00833333333333333	0	-30	-5.77708333333334	2	0.517578125
3497.861328125	0.00833333333333333	0	-30	-5.90208333333334	2	1.55859375
3501.7119140625	0.00833333333333333	0	30	5.83541666666667	2	1.083984375
3505.302734375	0.00833333333333333	0	-30	-5.90208333333334	2	0.796875
3508.435546875	0.00833333333333333	0	-30	-5.90208333333334	2	0.6318359375
3511.5771484375	0.00833333333333333	0	30	5.83541666666667	1	0.7783203125
3514.744140625	0.00833333333333333	0	-30	-5.90208333333334	2	0.603515625
3517.435546875	0.00833333333333333	0	30	5.83541666666667	1	0.7685546875
3520.494140625	0.00833333333333333	0	30	5.83541666666667	1	0.58984375
3523.34375	0.00833333333333333	0	30	5.83541666666667	1	0.8046875
3526.34375	0.00833333333333333	0	-30	-5.90208333333334	2	0.6845703125
3529.2109375	0.00833333333333333	0	-30	-6.02708333333334	2	0.5859375
3532.236328125	0.00833333333333333	0	-30	-6.02708333333334	2	0.583984375
3534.8779296875	0.00833333333333333	0	-30	-6.02708333333334	2	0.53515625
3537.611328125	0.00833333333333333	0	30	5.83541666666667	1	0.673828125
3540.40234375	0.00833333333333333	0	30	5.96041666666667	1	0.7783203125
3543.3271484375	0.00833333333333333	0	30	5.96041666666667	1	0.61328125
3546.1103515625	0.00833333333333333	0	-30	-6.02708333333334	2	0.623046875
3548.869140625	0.00833333333333333	0	-30	-6.02708333333334	1	0.599609375
3551.5771484375	0.00833333333333333	0	-30	-6.02708333333334	1	0.7724609375
3554.376953125	0.00833333333333333	0	30	5.96041666666667	2	1.083984375
3557.9189453125	0.00833333333333333	0	-30	-6.02708333333334	1	0.7421875
3561.1435546875	0.00833333333333333	0	30	5.96041666666667	2	0.982421875
3564.302734375	0.00833333333333333	0	-30	-6.02708333333334	1	0.943359375
3567.7197265625	0.00833333333333333	0	-30	-6.02708333333334	2	1.150390625
3571.251953125	0.00833333333333333	0	-30	-6.02708333333334	1	0.73828125
3574.0693359375	0.00833333333333333	0	-30	-6.02708333333334	1	0.640625
3577.1103515625	0.00833333333333333	0	-30	-6.02708333333334	1	0.751953125
3579.9443359375	0.00833333333333333	0	-30	-6.02708333333334	2	0.662109375
3582.884765625	0.00833333333333333	0	-30	-6.02708333333334	2	0.5537109375
3585.9599609375	0.00833333333333333	0	30	5.96041666666667	2	0.91796875
3623.0927734375	0.00833333333333333	0	30	5.96041666666667	2	1.3310546875
3626.5009765625	0.00833333333333333	0	30	5.96041666666667	2	0.875
3629.759765625	0.00833333333333333	0	30	5.83541666666667	1	0.7841796875
3632.67578125	0.00833333333333333	0	-30	-6.02708333333334	2	0.66015625
3635.7919921875	0.00833333333333333	0	-30	-6.02708333333334	1	0.5439453125
3638.3505859375	0.00833333333333333	0	30	5.83541666666667	1	0.5537109375
3640.9345703125	0.00833333333333333	0	30	5.83541666666667	2	0.5458984375
3643.6171875	0.00833333333333333	0	30	5.83541666666667	2	0.703125
3646.6669921875	0.00833333333333333	0	30	5.83541666666667	1	0.6533203125
3649.5341796875	0.00833333333333333	0	30	5.83541666666667	2	0.810546875
3652.6259765625	0.00833333333333333	0	30	5.83541666666667	2	0.9111328125
3655.958984375	0.00833333333333333	0	-30	-6.02708333333334	1	1.3857421875
3659.400390625	0.00833333333333333	0	30	5.83541666666667	2	0.80859375
3662.4091796875	0.00833333333333333	0	30	5.83541666666667	2	0.6875
3665.259765625	0.00833333333333333	0	30	5.83541666666667	2	0.5888671875
3668	0.00833333333333333	0	30	5.71041666666667	2	0.78515625
3671.2255859375	0.00833333333333333	0	-30	-6.02708333333334	1	1.1279296875
3674.392578125	0.00833333333333333	0	30	5.71041666666667	1	0.6728515625
3677.4921875	0.00833333333333333	0	-30	-6.02708333333334	1	0.7490234375
3680.5830078125	0.00833333333333333	0	30	5.71041666666667	1	0.6748046875
3683.3837890625	0.00833333333333333	0	30	5.71041666666667	1	0.6416015625
3686	0.00833333333333333	0	30	5.71041666666667	1	0.59375
3688.984375	0.00833333333333333	0	-30	-6.02708333333334	1	0.6572265625
3691.68359375	0.00833333333333333	0	-30	-5.90208333333334	1	0.7666015625
3694.8251953125	0.00833333333333333	0	30	5.71041666666667	2	0.9609375
3697.849609375	0.00833333333333333	0	-30	-5.90208333333334	1	0.6484375
3700.6416015625	0.00833333333333333	0	30	5.71041666666667	1	0.720703125
3703.7412109375	0.00833333333333333	0	30	5.71041666666667	2	0.7412109375
3706.625	0.00833333333333333	0	-30	-5.90208333333334	2	0.6337890625
3709.466796875	0.00833333333333333	0	30	5.71041666666667	1	0.8564453125
3712.359375	0.00833333333333333	0	30	5.71041666666667	2	0.8994140625
3715.5	0.00833333333333333	0	30	5.71041666666667	2	0.7021484375
3718.55859375	0.00833333333333333	0	30	5.71041666666667	1	0.66015625
3721.216796875	0.00833333333333333	0	30	5.71041666666667	1	0.666015625
3724.0078125	0.00833333333333333	0	30	5.71041666666667	1	0.6025390625
3727.0830078125	0.00833333333333333	0	30	5.71041666666667	1	0.6875
3730.06640625	0.00833333333333333	0	-30	-5.90208333333334	1	0.6328125
3732.841796875	0.00833333333333333	0	-30	-5.90208333333334	2	0.76171875
3735.8828125	0.00833333333333333	0	30	5.71041666666667	2	0.6728515625
3738.57421875	0.00833333333333333	0	30	5.71041666666667	2	0.6689453125
3741.3330078125	0.00833333333333333	0	-30	-5.90208333333334	2	1.0146484375
3744.5576171875	0.00833333333333333	0	30	5.71041666666667	1	0.7822265625
3747.857421875	0.00833333333333333	0	-30	-5.90208333333334	2	1.3779296875
3751.3994140625	0.00833333333333333	0	30	5.71041666666667	1	0.63671875
3754.2158203125	0.00833333333333333	0	30	5.71041666666667	1	0.7880859375
3757.2412109375	0.00833333333333333	0	-30	-5.90208333333334	2	0.6669921875
3760.32421875	0.00833333333333333	0	-30	-5.90208333333334	1	1.18359375
3763.9736328125	0.00833333333333333	0	-30	-5.90208333333334	1	0.822265625
3766.982421875	0.00833333333333333	0	30	5.71041666666667	1	0.7978515625
3770.0908203125	0.00833333333333333	0	-30	-5.90208333333334	1	0.9453125
3773.0986328125	0.00833333333333333	0	-30	-5.90208333333334	1	0.5458984375
3776.1748046875	0.00833333333333333	0	30	5.71041666666667	1	0.5576171875
3778.798828125	0.00833333333333333	0	30	5.83541666666667	1	0.5341796875
3781.4072265625	0.00833333333333333	0	-30	-5.90208333333334	1	0.6533203125
3784.357421875	0.00833333333333333	0	-30	-5.77708333333334	1	0.6552734375
3787.0654296875	0.00833333333333333	0	-30	-5.77708333333334	1	0.4833984375
3790.048828125	0.00833333333333333	0	30	5.83541666666667	1	0.5478515625
3792.6982421875	0.00833333333333333	0	-30	-5.77708333333334	2	0.7705078125
3795.548828125	0.00833333333333333	0	-30	-5.77708333333334	1	0.48828125
3798.4072265625	0.00833333333333333	0	30	5.83541666666667	1	0.57421875
3801.0576171875	0.00833333333333333	0	-30	-5.77708333333334	1	0.587890625
3804.0146484375	0.00833333333333333	0	30	5.83541666666667	1	0.5029296875
3806.7646484375	0.00833333333333333	0	-30	-5.77708333333334	1	0.529296875
3809.6484375	0.00833333333333333	0	-30	-5.77708333333334	1	0.6689453125
3812.814453125	0.00833333333333333	0	-30	-5.77708333333334	1	0.51953125
3815.5244140625	0.00833333333333333	0	30	5.83541666666667	1	0.5859375
3818.3486328125	0.00833333333333333	0	-30	-5.65208333333334	1	0.4248046875
3821.0986328125	0.00833333333333333	0	30	5.96041666666667	1	0.8837890625
3824.314453125	0.00833333333333333	0	30	5.96041666666667	2	0.931640625
3827.3154296875	0.00833333333333333	0	-30	-5.65208333333334	2	1.0673828125
3830.7646484375	0.00833333333333333	0	-30	-5.65208333333334	2	0.75390625
3833.8232421875	0.00833333333333333	0	-30	-5.65208333333334	2	0.5751953125
3836.6640625	0.00833333333333333	0	-30	-5.65208333333334	2	0.5908203125
3839.3896484375	0.00833333333333333	0	30	5.96041666666667	1	0.7607421875
3842.4814453125	0.00833333333333333	0	30	5.96041666666667	1	0.6689453125
3845.2978515625	0.00833333333333333	0	-30	-5.65208333333334	2	0.7890625
3848.439453125	0.00833333333333333	0	30	5.96041666666667	1	0.599609375
3851.2490234375	0.00833333333333333	0	30	5.96041666666667	1	0.60546875
3853.9892578125	0.00833333333333333	0	-30	-5.77708333333334	2	0.74609375
3857.248046875	0.00833333333333333	0	30	5.96041666666667	1	0.607421875
3883.8056640625	0.00833333333333333	0	-30	-5.77708333333334	1	1.06640625
3887.40625	0.00833333333333333	0	30	6.08541666666667	1	1.1455078125
3890.5966796875	0.00833333333333333	0	30	6.08541666666667	1	0.7314453125
3893.6806640625	0.00833333333333333	0	30	6.08541666666667	2	0.6640625
3896.2890625	0.00833333333333333	0	30	6.08541666666667	2	0.5517578125
3898.86328125	0.00833333333333333	0	30	6.08541666666667	2	0.513671875
3901.796875	0.00833333333333333	0	-30	-5.77708333333334	1	0.515625
3904.73046875	0.00833333333333333	0	-30	-5.77708333333334	2	0.837890625
3907.7646484375	0.00833333333333333	0	30	6.08541666666667	2	0.5478515625
3910.638671875	0.00833333333333333	0	30	6.08541666666667	2	0.505859375
3913.6220703125	0.00833333333333333	0	-30	-5.77708333333334	2	0.4833984375
3916.60546875	0.00833333333333333	0	-30	-5.77708333333334	2	0.515625
3919.2890625	0.00833333333333333	0	30	5.96041666666667	2	0.568359375
3922.23828125	0.00833333333333333	0	30	5.96041666666667	2	0.53125
3924.86328125	0.00833333333333333	0	-30	-5.77708333333334	2	0.7216796875
3927.9716796875	0.00833333333333333	0	-30	-5.77708333333334	2	0.59765625
3930.580078125	0.00833333333333333	0	30	5.96041666666667	2	0.6533203125
3933.2890625	0.00833333333333333	0	30	5.96041666666667	2	0.5361328125
3936.2548828125	0.00833333333333333	0	-30	-5.90208333333334	2	0.619140625
3939.380859375	0.00833333333333333	0	30	5.96041666666667	2	0.5888671875
3941.9970703125	0.00833333333333333	0	30	5.83541666666667	2	0.533203125
3944.6630859375	0.00833333333333333	0	30	5.83541666666667	2	0.53125
3947.23046875	0.00833333333333333	0	-30	-5.90208333333334	2	0.3876953125
3949.904296875	0.00833333333333333	0	-30	-5.90208333333334	2	0.4501953125
3952.7216796875	0.00833333333333333	0	-30	-5.90208333333334	2	0.640625
3955.48828125	0.00833333333333333	0	30	5.83541666666667	2	0.41796875
3958.0126953125	0.00833333333333333	0	30	5.83541666666667	2	0.4541015625
3960.779296875	0.00833333333333333	0	30	5.83541666666667	2	0.54296875
3963.5126953125	0.00833333333333333	0	-30	-5.90208333333334	2	0.5703125
3966.1455078125	0.00833333333333333	0	-30	-6.02708333333334	2	0.953125
3969.5458984375	0.00833333333333333	0	30	5.71041666666667	2	0.720703125
3972.3212890625	0.00833333333333333	0	-30	-6.02708333333334	2	49.5634765625
4024.37890625	0.00833333333333333	0	30	5.71041666666667	2	2.0576171875
4028.603515625	0.00833333333333333	0	-30	-6.02708333333334	1	7.0576171875
4037.919921875	0.00833333333333333	0	-30	-6.02708333333334	1	2.8056640625
4042.76171875	0.00833333333333333	0	-30	-6.02708333333334	1	1.283203125
4046.203125	0.00833333333333333	0	-30	-6.02708333333334	2	0.962890625
4049.5625	0.00833333333333333	0	30	5.71041666666667	1	0.962890625
4052.9365234375	0.00833333333333333	0	-30	-6.02708333333334	1	0.6376953125
4055.9033203125	0.00833333333333333	0	30	5.71041666666667	1	0.75
4058.88671875	0.00833333333333333	0	30	5.71041666666667	2	0.9345703125
4062.169921875	0.00833333333333333	0	-30	-6.02708333333334	2	1.099609375
4065.3779296875	0.00833333333333333	0	30	5.71041666666667	2	0.7080078125
4068.287109375	0.00833333333333333	0	30	5.71041666666667	2	0.791015625
4071.244140625	0.00833333333333333	0	-30	-6.02708333333334	2	1.2421875
4074.6865234375	0.00833333333333333	0	-30	-6.02708333333334	2	0.6318359375
4077.5859375	0.00833333333333333	0	-30	-6.02708333333334	2	0.64453125
4080.4111328125	0.00833333333333333	0	30	5.71041666666667	2	1.0517578125
4083.560546875	0.00833333333333333	0	30	5.71041666666667	1	1.4228515625
4087.4609375	0.00833333333333333	0	30	5.71041666666667	2	0.90625
4090.8193359375	0.00833333333333333	0	-30	-6.02708333333334	1	0.8271484375
4093.6943359375	0.00833333333333333	0	-30	-6.02708333333334	1	0.744140625
4096.537109375	0.00833333333333333	0	30	5.71041666666667	2	0.677734375
4099.7451171875	0.00833333333333333	0	30	5.71041666666667	1	1.3896484375
4103.2197265625	0.00833333333333333	0	30	5.71041666666667	1	0.755859375
4106.494140625	0.00833333333333333	0	-30	-6.02708333333334	1	0.9853515625
4109.6943359375	0.00833333333333333	0	30	5.71041666666667	1	0.5771484375
4112.4443359375	0.00833333333333333	0	30	5.71041666666667	1	0.5634765625
4115.5185546875	0.00833333333333333	0	30	5.71041666666667	2	0.625
4118.21875	0.00833333333333333	0	-30	-6.02708333333334	1	2.109375
4122.40234375	0.00833333333333333	0	-30	-6.02708333333334	2	1.3173828125
4126.2099609375	0.00833333333333333	0	30	5.71041666666667	2	0.8388671875
4129.3935546875	0.00833333333333333	0	-30	-6.02708333333334	2	0.798828125
4132.4697265625	0.00833333333333333	0	30	5.71041666666667	2	0.626953125
4135.1689453125	0.00833333333333333	0	30	5.71041666666667	2	0.52734375
4138.02734375	0.00833333333333333	0	-30	-6.02708333333334	2	0.7412109375
4141.1015625	0.00833333333333333	0	30	5.71041666666667	2	0.5947265625
4144.1181640625	0.00833333333333333	0	30	5.58541666666667	2	0.5224609375
4147.0849609375	0.00833333333333333	0	30	5.58541666666667	2	0.5234375
4149.79296875	0.00833333333333333	0	-30	-6.02708333333334	2	0.423828125
4152.501953125	0.00833333333333333	0	-30	-6.02708333333334	1	0.642578125
4155.1767578125	0.00833333333333333	0	30	5.58541666666667	2	0.6005859375
4158.1845703125	0.00833333333333333	0	-30	-6.02708333333334	2	1.2880859375
4162.0263671875	0.00833333333333333	0	-30	-6.02708333333334	2	0.90234375
4165.34375	0.00833333333333333	0	-30	-6.02708333333334	2	0.609375
4168.2939453125	0.00833333333333333	0	-30	-6.02708333333334	2	0.587890625
4171.1435546875	0.00833333333333333	0	-30	-6.02708333333334	2	0.5380859375
4173.7509765625	0.00833333333333333	0	30	5.58541666666667	1	0.6103515625
4176.6103515625	0.00833333333333333	0	30	5.58541666666667	2	0.6787109375
4179.5595703125	0.00833333333333333	0	30	5.58541666666667	2	0.826171875
4213.4677734375	0.00833333333333333	0	30	5.58541666666667	2	0.9111328125
4216.55859375	0.00833333333333333	0	-30	-6.15208333333334	1	0.6923828125
4219.333984375	0.00833333333333333	0	-30	-6.15208333333334	1	0.525390625
4222.17578125	0.00833333333333333	0	-30	-6.15208333333334	1	0.70703125
4225.3017578125	0.00833333333333333	0	-30	-6.15208333333334	1	0.6298828125
4227.966796875	0.00833333333333333	0	30	5.58541666666667	2	0.7724609375
4231.1923828125	0.00833333333333333	0	30	5.58541666666667	2	0.595703125
4233.92578125	0.00833333333333333	0	-30	-6.15208333333334	2	0.4052734375
4236.6083984375	0.00833333333333333	0	30	5.46041666666667	2	0.5869140625
4239.333984375	0.00833333333333333	0	30	5.46041666666667	2	0.5576171875
4242.150390625	0.00833333333333333	0	-30	-6.15208333333334	2	1.044921875
4245.708984375	0.00833333333333333	0	-30	-6.15208333333334	2	0.5908203125
4248.591796875	0.00833333333333333	0	30	5.46041666666667	2	0.65234375
4251.517578125	0.00833333333333333	0	30	5.46041666666667	2	0.478515625
4254.359375	0.00833333333333333	0	-30	-6.15208333333334	1	0.8212890625
4257.6337890625	0.00833333333333333	0	-30	-6.15208333333334	2	0.5869140625
4260.68359375	0.00833333333333333	0	30	5.46041666666667	2	0.5126953125
4263.7333984375	0.00833333333333333	0	30	5.33541666666667	2	0.4873046875
4266.4248046875	0.00833333333333333	0	-30	-6.15208333333334	2	0.8515625
4269.583984375	0.00833333333333333	0	-30	-6.15208333333334	2	0.4775390625
4272.375	0.00833333333333333	0	-30	-6.15208333333334	2	0.4140625
4274.8916015625	0.00833333333333333	0	-30	-6.15208333333334	2	0.5771484375
4277.81640625	0.00833333333333333	0	30	5.33541666666667	2	0.4765625
4280.5751953125	0.00833333333333333	0	30	5.33541666666667	2	0.4462890625
4283.4580078125	0.00833333333333333	0	30	5.33541666666667	2	0.4912109375
4286.375	0.00833333333333333	0	30	5.33541666666667	2	0.58984375
4289.4326171875	0.00833333333333333	0	30	5.21041666666667	2	0.62890625
4292.19921875	0.00833333333333333	0	-30	-6.27708333333334	2	0.630859375
4294.8662109375	0.00833333333333333	0	-30	-6.27708333333334	2	0.53125
4297.57421875	0.00833333333333333	0	30	5.21041666666667	2	0.775390625
4300.4580078125	0.00833333333333333	0	30	5.21041666666667	2	0.9873046875
4303.716796875	0.00833333333333333	0	30	5.21041666666667	1	0.857421875
4306.783203125	0.00833333333333333	0	30	5.21041666666667	1	0.7021484375
4309.9248046875	0.00833333333333333	0	-30	-6.27708333333334	2	0.6328125
4312.7080078125	0.00833333333333333	0	-30	-6.27708333333334	2	0.658203125
4315.69140625	0.00833333333333333	0	-30	-6.27708333333334	2	0.5947265625
4318.6494140625	0.00833333333333333	0	30	5.21041666666667	2	0.8291015625
4321.7158203125	0.00833333333333333	0	-30	-6.40208333333334	2	0.6669921875
4324.5908203125	0.00833333333333333	0	-30	-6.40208333333334	2	0.52734375
4327.2158203125	0.00833333333333333	0	30	5.21041666666667	2	0.6630859375
4330.015625	0.00833333333333333	0	30	5.21041666666667	1	0.6474609375
4332.923828125	0.00833333333333333	0	-30	-6.40208333333334	2	0.5791015625
4335.8994140625	0.00833333333333333	0	30	5.21041666666667	1	0.9951171875
4339.2822265625	0.00833333333333333	0	30	5.21041666666667	1	1.0205078125
4342.5576171875	0.00833333333333333	0	-30	-6.40208333333334	1	0.865234375
4345.7490234375	0.00833333333333333	0	-30	-6.40208333333334	1	0.73828125
4348.4990234375	0.00833333333333333	0	30	5.21041666666667	1	0.7646484375
4351.4736328125	0.00833333333333333	0	30	5.21041666666667	1	0.78125
4354.5654296875	0.00833333333333333	0	30	5.33541666666667	1	0.7060546875
4357.3828125	0.00833333333333333	0	-30	-6.40208333333334	1	1.45703125
4361.20703125	0.00833333333333333	0	30	5.33541666666667	2	1.6806640625
4365.0068359375	0.00833333333333333	0	30	5.33541666666667	2	0.560546875
4367.9658203125	0.00833333333333333	0	-30	-6.40208333333334	2	1.0341796875
4371.0576171875	0.00833333333333333	0	30	5.33541666666667	1	1.7900390625
4375.31640625	0.00833333333333333	0	-30	-6.40208333333334	1	0.7236328125
4378.4404296875	0.00833333333333333	0	30	5.33541666666667	2	0.9677734375
4381.8486328125	0.00833333333333333	0	30	5.33541666666667	2	0.671875
4384.7734375	0.00833333333333333	0	-30	-6.40208333333334	2	0.7470703125
4387.7236328125	0.00833333333333333	0	30	5.33541666666667	1	0.7490234375
4390.8486328125	0.00833333333333333	0	30	5.33541666666667	1	0.83984375
4393.90625	0.00833333333333333	0	30	5.33541666666667	2	0.71875
4397.181640625	0.00833333333333333	0	30	5.33541666666667	2	0.5947265625
4400.265625	0.00833333333333333	0	-30	-6.40208333333334	1	1.111328125
4403.931640625	0.00833333333333333	0	-30	-6.40208333333334	2	0.6689453125
4407.056640625	0.00833333333333333	0	30	5.33541666666667	1	0.9697265625
4410.439453125	0.00833333333333333	0	30	5.33541666666667	2	0.4658203125
4412.931640625	0.00833333333333333	0	-30	-6.40208333333334	2	0.8857421875
4416.0986328125	0.00833333333333333	0	30	5.33541666666667	2	0.3427734375
4418.71484375	0.00833333333333333	0	-30	-6.40208333333334	1	0.6787109375
4421.865234375	0.00833333333333333	0	-30	-6.40208333333334	2	0.736328125
4425.0224609375	0.00833333333333333	0	30	5.33541666666667	2	0.6748046875
4427.84765625	0.00833333333333333	0	30	5.33541666666667	1	0.7783203125
4431.123046875	0.00833333333333333	0	-30	-6.40208333333334	1	0.7587890625
4433.9814453125	0.00833333333333333	0	30	5.33541666666667	1	0.732421875
4436.939453125	0.00833333333333333	0	30	5.33541666666667	1	1.1982421875
4440.505859375	0.00833333333333333	0	30	5.33541666666667	2	0.6728515625
4443.60546875	0.00833333333333333	0	30	5.33541666666667	1	0.9169921875
4446.8056640625	0.00833333333333333	0	30	5.33541666666667	1	0.6533203125
4449.755859375	0.00833333333333333	0	-30	-6.40208333333334	1	1.150390625
4453.0556640625	0.00833333333333333	0	-30	-6.40208333333334	1	0.68359375
4477.2138671875	0.00833333333333333	0	-30	-6.40208333333334	1	0.830078125
4480.3720703125	0.00833333333333333	0	30	5.33541666666667	1	0.9111328125
4483.580078125	0.00833333333333333	0	-30	-6.40208333333334	2	0.8798828125
4486.638671875	0.00833333333333333	0	-30	-6.40208333333334	2	0.6689453125
4489.6552734375	0.00833333333333333	0	30	5.33541666666667	1	1.1806640625
4492.9052734375	0.00833333333333333	0	-30	-6.40208333333334	2	0.5068359375
4495.513671875	0.00833333333333333	0	30	5.33541666666667	2	0.5625
4498.10546875	0.00833333333333333	0	-30	-6.40208333333334	2	0.5947265625
4500.98046875	0.00833333333333333	0	-30	-6.40208333333334	1	0.7353515625
4503.9462890625	0.00833333333333333	0	-30	-6.40208333333334	2	0.849609375
4507.046875	0.00833333333333333	0	30	5.33541666666667	1	1.013671875
4510.1796875	0.00833333333333333	0	30	5.33541666666667	2	0.9453125
4513.455078125	0.00833333333333333	0	-30	-6.40208333333334	2	0.7978515625
4516.330078125	0.00833333333333333	0	30	5.33541666666667	1	0.9462890625
4519.5634765625	0.00833333333333333	0	-30	-6.40208333333334	2	1.08984375
4522.712890625	0.00833333333333333	0	-30	-6.40208333333334	2	0.6435546875
4525.880859375	0.00833333333333333	0	30	5.33541666666667	2	0.900390625
4529.087890625	0.00833333333333333	0	30	5.33541666666667	2	0.7490234375
4532.37109375	0.00833333333333333	0	30	5.33541666666667	2	0.6259765625
4535.470703125	0.00833333333333333	0	-30	-6.40208333333334	2	0.9423828125
4538.529296875	0.00833333333333333	0	-30	-6.52708333333334	2	0.66015625
4541.455078125	0.00833333333333333	0	-30	-6.52708333333334	2	0.58203125
4544.4462890625	0.00833333333333333	0	30	5.33541666666667	2	0.6875
4547.2041015625	0.00833333333333333	0	-30	-6.52708333333334	2	0.8662109375
4550.12890625	0.00833333333333333	0	30	5.33541666666667	2	0.861328125
4553.3046875	0.00833333333333333	0	30	5.21041666666667	2	1.0849609375
4556.5458984375	0.00833333333333333	0	30	5.21041666666667	2	0.6845703125
4559.263671875	0.00833333333333333	0	-30	-6.52708333333334	1	0.943359375
4562.3544921875	0.00833333333333333	0	-30	-6.52708333333334	1	0.8203125
4565.3544921875	0.00833333333333333	0	-30	-6.52708333333334	2	0.69140625
4568.3876953125	0.00833333333333333	0	30	5.21041666666667	1	0.787109375
4571.4541015625	0.00833333333333333	0	-30	-6.52708333333334	1	0.720703125
4574.470703125	0.00833333333333333	0	30	5.21041666666667	1	0.6318359375
4577.3046875	0.00833333333333333	0	30	5.21041666666667	1	0.7421875
4580.4453125	0.00833333333333333	0	30	5.21041666666667	1	0.6337890625
4583.2783203125	0.00833333333333333	0	30	5.21041666666667	1	0.6806640625
4586.154296875	0.00833333333333333	0	30	5.33541666666667	1	0.6044921875
4589.1953125	0.00833333333333333	0	30	5.33541666666667	1	0.595703125
4592.228515625	0.00833333333333333	0	-30	-6.52708333333334	2	0.6103515625
4595.13671875	0.00833333333333333	0	30	5.33541666666667	1	0.6142578125
4597.9541015625	0.00833333333333333	0	-30	-6.52708333333334	2	0.62890625
4600.8466796875	0.00833333333333333	0	-30	-6.52708333333334	2	0.5771484375
4603.904296875	0.00833333333333333	0	30	5.33541666666667	1	0.84765625
4607.1201171875	0.00833333333333333	0	-30	-6.52708333333334	2	0.65625
4609.794921875	0.00833333333333333	0	30	5.33541666666667	1	0.6845703125
4612.7626953125	0.00833333333333333	0	-30	-6.52708333333334	2	0.5732421875
4615.5703125	0.00833333333333333	0	-30	-6.65208333333334	1	0.701171875
4618.5205078125	0.00833333333333333	0	-30	-6.65208333333334	1	0.7041015625
4621.51171875	0.00833333333333333	0	30	5.46041666666667	2	0.6884765625
4624.453125	0.00833333333333333	0	-30	-6.65208333333334	2	0.595703125
4627.1943359375	0.00833333333333333	0	-30	-6.65208333333334	1	0.7021484375
4629.8955078125	0.00833333333333333	0	30	5.46041666666667	2	0.552734375
4632.8369140625	0.00833333333333333	0	-30	-6.65208333333334	2	0.4599609375
4635.6611328125	0.00833333333333333	0	-30	-6.65208333333334	1	0.6435546875
4638.76953125	0.00833333333333333	0	-30	-6.65208333333334	1	0.6474609375
4641.51953125	0.00833333333333333	0	-30	-6.65208333333334	1	0.6416015625
4644.203125	0.00833333333333333	0	-30	-6.65208333333334	1	0.6533203125
4647.1533203125	0.00833333333333333	0	30	5.46041666666667	2	0.6318359375
4650.287109375	0.00833333333333333	0	30	5.46041666666667	2	0.673828125
4653.1611328125	0.00833333333333333	0	-30	-6.65208333333334	2	0.6484375
4656.0439453125	0.00833333333333333	0	30	5.46041666666667	2	0.5810546875
4658.76953125	0.00833333333333333	0	30	5.33541666666667	2	0.51953125
4661.537109375	0.00833333333333333	0	-30	-6.65208333333334	2	0.47265625
4664.0439453125	0.00833333333333333	0	-30	-6.65208333333334	1	0.677734375
4667.0107421875	0.00833333333333333	0	-30	-6.65208333333334	2	0.599609375
4669.802734375	0.00833333333333333	0	30	5.33541666666667	2	0.6708984375
4672.802734375	0.00833333333333333	0	30	5.33541666666667	2	0.54296875
4675.71875	0.00833333333333333	0	-30	-6.65208333333334	2	0.5146484375
4678.76953125	0.00833333333333333	0	-30	-6.65208333333334	1	0.728515625
4681.9111328125	0.00833333333333333	0	-30	-6.65208333333334	1	0.6826171875
4684.751953125	0.00833333333333333	0	-30	-6.65208333333334	2	0.6181640625
4687.7607421875	0.00833333333333333	0	30	5.33541666666667	2	0.609375
4690.41015625	0.00833333333333333	0	30	5.33541666666667	2	0.5361328125
4693.427734375	0.00833333333333333	0	30	5.21041666666667	1	0.646484375
4696.369140625	0.00833333333333333	0	30	5.21041666666667	2	0.73828125
4699.361328125	0.00833333333333333	0	30	5.21041666666667	2	0.826171875
4702.5771484375	0.00833333333333333	0	30	5.21041666666667	2	0.5625
4705.4521484375	0.00833333333333333	0	-30	-6.65208333333334	2	0.55859375
4708.5185546875	0.00833333333333333	0	30	5.21041666666667	2	0.5322265625
4711.15234375	0.00833333333333333	0	30	5.21041666666667	2	0.5146484375
