onset	duration	titr	surround	centre	response	rt
111.251953125	0.00833333333333333	1	NaN	15	2	1.224609375
114.767578125	0.00833333333333333	1	NaN	14	2	0.5166015625
117.7197265625	0.00833333333333333	1	30	15	2	0.8447265625
120.892578125	0.00833333333333333	1	-30	15	2	0.6875
123.6845703125	0.00833333333333333	1	NaN	-15	1	0.416015625
126.55859375	0.00833333333333333	1	-30	14	2	0.509765625
129.1259765625	0.00833333333333333	1	NaN	-14	1	0.3505859375
131.767578125	0.00833333333333333	1	30	-15	1	0.453125
134.2666015625	0.00833333333333333	1	-30	13	2	0.4423828125
136.8837890625	0.00833333333333333	1	30	14	2	0.705078125
139.701171875	0.00833333333333333	1	NaN	13	2	0.3681640625
142.30859375	0.00833333333333333	1	NaN	12	2	0.376953125
144.9423828125	0.00833333333333333	1	30	-14	1	0.455078125
147.583984375	0.00833333333333333	1	NaN	11	2	0.333984375
150.1005859375	0.00833333333333333	1	NaN	10	2	0.369140625
152.7421875	0.00833333333333333	1	-30	12	2	0.51953125
155.30859375	0.00833333333333333	1	NaN	-13	1	0.384765625
158.0341796875	0.00833333333333333	1	-30	11	2	0.4521484375
160.484375	0.00833333333333333	1	-30	10	2	0.4736328125
162.9755859375	0.00833333333333333	1	30	-13	1	0.4150390625
165.8251953125	0.00833333333333333	1	30	-12	1	0.404296875
168.5166015625	0.00833333333333333	1	-30	-15	1	0.5537109375
171.341796875	0.00833333333333333	1	NaN	-12	1	0.4404296875
174.0673828125	0.00833333333333333	1	NaN	-11	1	0.35546875
176.7001953125	0.00833333333333333	1	-30	9	2	0.4423828125
179.19140625	0.00833333333333333	1	-30	8	2	0.447265625
181.7919921875	0.00833333333333333	1	NaN	9	2	0.3505859375
184.6337890625	0.00833333333333333	1	-30	-14	1	0.3896484375
187.466796875	0.00833333333333333	1	30	-11	1	0.4521484375
190.3837890625	0.00833333333333333	1	-30	-13	1	0.6708984375
193.349609375	0.00833333333333333	1	NaN	8	2	0.4169921875
196.158203125	0.00833333333333333	1	NaN	7	2	0.5771484375
198.9501953125	0.00833333333333333	1	-30	-12	1	0.6328125
201.7666015625	0.00833333333333333	1	NaN	6	2	0.4326171875
204.216796875	0.00833333333333333	1	NaN	5	2	0.4462890625
207.0166015625	0.00833333333333333	1	30	-10	1	0.3984375
209.7001953125	0.00833333333333333	1	-30	7	2	0.4189453125
212.408203125	0.00833333333333333	1	30	-9	1	0.4150390625
215.1826171875	0.00833333333333333	1	NaN	-10	1	0.361328125
217.9912109375	0.00833333333333333	1	-30	-11	1	0.576171875
221	0.00833333333333333	1	NaN	-9	1	0.439453125
223.81640625	0.00833333333333333	1	NaN	4	2	0.4794921875
226.3330078125	0.00833333333333333	1	30	13	2	0.818359375
229.1748046875	0.00833333333333333	1	NaN	-8	1	0.4248046875
231.724609375	0.00833333333333333	1	-30	-10	1	0.595703125
234.673828125	0.00833333333333333	1	NaN	3	2	0.4306640625
237.349609375	0.00833333333333333	1	NaN	-7	1	0.3544921875
239.8330078125	0.00833333333333333	1	30	12	2	0.9677734375
243.07421875	0.00833333333333333	1	NaN	2	1	0.6064453125
246.166015625	0.00833333333333333	1	-30	6	2	0.4267578125
248.8486328125	0.00833333333333333	1	NaN	3	2	0.5048828125
251.70703125	0.00833333333333333	1	NaN	2	2	0.5732421875
254.3076171875	0.00833333333333333	1	30	-8	1	0.5166015625
257.1982421875	0.00833333333333333	1	-30	5	2	0.451171875
260.107421875	0.00833333333333333	1	30	-7	1	0.4130859375
262.5908203125	0.00833333333333333	1	-30	-9	2	0.74609375
265.5068359375	0.00833333333333333	1	30	-6	1	0.478515625
267.990234375	0.00833333333333333	1	NaN	1	1	1.0029296875
271.0986328125	0.00833333333333333	1	30	-5	1	0.4873046875
273.7568359375	0.00833333333333333	1	NaN	2	2	0.46875
276.615234375	0.00833333333333333	1	NaN	-6	1	0.42578125
279.056640625	0.00833333333333333	1	30	-4	1	0.44921875
281.673828125	0.00833333333333333	1	30	11	2	0.6162109375
284.5400390625	0.00833333333333333	1	-30	-10	1	0.6298828125
287.6484375	0.00833333333333333	1	-30	-9	1	0.5693359375
290.3984375	0.00833333333333333	1	-30	-8	1	0.5556640625
293.1904296875	0.00833333333333333	1	NaN	1	1	0.4912109375
295.9970703125	0.00833333333333333	1	-30	-7	1	0.5810546875
299.03125	0.00833333333333333	1	NaN	-5	1	0.443359375
301.740234375	0.00833333333333333	1	-30	4	2	0.494140625
304.564453125	0.00833333333333333	1	-30	-6	1	0.7177734375
307.3984375	0.00833333333333333	1	-30	3	2	0.435546875
310.240234375	0.00833333333333333	1	-30	-5	1	0.7705078125
313.2314453125	0.00833333333333333	1	30	10	2	0.626953125
316.3056640625	0.00833333333333333	1	NaN	2	1	0.47265625
319.0146484375	0.00833333333333333	1	-30	-4	2	0.8125
322.2978515625	0.00833333333333333	1	-30	-5	2	0.5048828125
325.22265625	0.00833333333333333	1	-30	-6	1	0.96484375
328.3232421875	0.00833333333333333	1	NaN	-4	1	0.4794921875
331.064453125	0.00833333333333333	1	NaN	-3	1	0.458984375
333.755859375	0.00833333333333333	1	-30	2	2	0.5673828125
336.3896484375	0.00833333333333333	1	-30	1	2	0.5419921875
339.3310546875	0.00833333333333333	1	-30	0	2	0.408203125
342.1064453125	0.00833333333333333	1	NaN	3	2	0.3291015625
344.4560546875	0.00833333333333333	1	NaN	-2	1	0.5
347.2646484375	0.00833333333333333	1	NaN	2	2	0.4033203125
349.947265625	0.00833333333333333	1	NaN	1	2	0.576171875
352.689453125	0.00833333333333333	1	-30	-1	2	0.4501953125
355.34765625	0.00833333333333333	1	-30	-5	2	0.4404296875
358.2470703125	0.00833333333333333	1	NaN	-1	2	0.869140625
361.2802734375	0.00833333333333333	1	-30	-6	2	0.5478515625
363.9052734375	0.00833333333333333	1	30	-3	1	0.4833984375
366.4306640625	0.00833333333333333	1	-30	-7	1	0.5654296875
369.005859375	0.00833333333333333	1	-30	-2	2	0.470703125
371.630859375	0.00833333333333333	1	-30	-6	2	0.4541015625
374.572265625	0.00833333333333333	1	NaN	-2	1	0.5361328125
377.5556640625	0.00833333333333333	1	-30	-3	2	1.025390625
381.0302734375	0.00833333333333333	1	-30	-7	2	1.21484375
384.6796875	0.00833333333333333	1	NaN	0	2	0.9169921875
387.7216796875	0.00833333333333333	1	-30	-8	1	0.7548828125
390.5126953125	0.00833333333333333	1	30	9	2	0.65234375
393.5634765625	0.00833333333333333	1	NaN	-1	1	0.8095703125
396.396484375	0.00833333333333333	1	NaN	-1	1	0.9765625
399.796875	0.00833333333333333	1	NaN	0	2	0.5205078125
402.3876953125	0.00833333333333333	1	NaN	-1	2	0.529296875
405.37890625	0.00833333333333333	1	30	-2	1	0.474609375
408.35546875	0.00833333333333333	1	-30	-4	2	0.5302734375
411.263671875	0.00833333333333333	1	NaN	-2	1	0.4619140625
420.6796875	0.00833333333333333	1	NaN	-1	1	1.2861328125
424.3544921875	0.00833333333333333	1	-30	-7	1	1.107421875
427.712890625	0.00833333333333333	1	NaN	0	1	0.6376953125
430.6962890625	0.00833333333333333	1	30	8	2	0.734375
433.8876953125	0.00833333333333333	1	NaN	0	2	0.53515625
436.896484375	0.00833333333333333	1	-30	-6	2	0.4619140625
439.6708984375	0.00833333333333333	1	-30	-7	2	0.49609375
442.3046875	0.00833333333333333	1	-30	-5	2	0.662109375
445.2958984375	0.00833333333333333	1	NaN	1	2	0.462890625
447.9716796875	0.00833333333333333	1	30	-1	1	0.466796875
450.8037109375	0.00833333333333333	1	-30	-8	1	0.6279296875
453.8212890625	0.00833333333333333	1	30	7	2	0.521484375
456.3544921875	0.00833333333333333	1	30	6	2	0.5732421875
459.2705078125	0.00833333333333333	1	-30	-6	2	0.544921875
462.2041015625	0.00833333333333333	1	NaN	0	1	0.53125
464.779296875	0.00833333333333333	1	-30	-7	1	0.5244140625
467.5458984375	0.00833333333333333	1	-30	-6	1	0.5732421875
470.4296875	0.00833333333333333	1	30	5	2	1.25
473.7451171875	0.00833333333333333	1	-30	-5	2	1.0625
476.9619140625	0.00833333333333333	1	NaN	1	2	0.486328125
479.6376953125	0.00833333333333333	1	30	0	1	0.482421875
482.2119140625	0.00833333333333333	1	NaN	0	1	0.98828125
485.25390625	0.00833333333333333	1	-30	-6	1	0.5302734375
488.1201171875	0.00833333333333333	1	30	1	1	0.5205078125
490.7783203125	0.00833333333333333	1	NaN	1	2	1.54296875
494.345703125	0.00833333333333333	1	-30	-5	1	0.630859375
497.1123046875	0.00833333333333333	1	NaN	0	2	0.568359375
499.662109375	0.00833333333333333	1	NaN	-1	1	0.5146484375
502.5029296875	0.00833333333333333	1	30	2	1	0.490234375
505.2861328125	0.00833333333333333	1	30	4	1	0.634765625
508.3779296875	0.00833333333333333	1	NaN	0	2	0.5986328125
511.01953125	0.00833333333333333	1	-30	-4	2	0.5810546875
514.0107421875	0.00833333333333333	1	30	5	1	0.6142578125
516.744140625	0.00833333333333333	1	30	3	2	0.6328125
519.685546875	0.00833333333333333	1	30	2	1	0.5244140625
522.5107421875	0.00833333333333333	1	-30	-5	1	1.474609375
526.3193359375	0.00833333333333333	1	-30	-4	2	0.482421875
528.869140625	0.00833333333333333	1	30	6	2	0.484375
531.7861328125	0.00833333333333333	1	30	3	2	1.3359375
535.1689453125	0.00833333333333333	1	-30	-5	2	0.4970703125
538.052734375	0.00833333333333333	1	-30	-6	2	0.453125
540.4853515625	0.00833333333333333	1	30	2	1	0.8681640625
543.77734375	0.00833333333333333	1	30	5	2	0.5126953125
546.7451171875	0.00833333333333333	1	30	3	2	0.705078125
549.64453125	0.00833333333333333	1	NaN	-1	2	0.5576171875
552.177734375	0.00833333333333333	1	-30	-7	1	1.0244140625
555.494140625	0.00833333333333333	1	30	2	2	0.7080078125
558.294921875	0.00833333333333333	1	30	1	2	0.6435546875
561.328125	0.00833333333333333	1	30	0	2	0.73046875
564.02734375	0.00833333333333333	1	-30	-6	2	0.439453125
566.5771484375	0.00833333333333333	1	30	-1	1	0.7294921875
569.6435546875	0.00833333333333333	1	-30	-7	2	0.599609375
572.6015625	0.00833333333333333	1	-30	-8	2	0.537109375
575.1279296875	0.00833333333333333	1	30	4	2	0.515625
577.77734375	0.00833333333333333	1	30	0	1	0.8173828125
580.84375	0.00833333333333333	1	NaN	-2	2	1.287109375
584.4189453125	0.00833333333333333	1	-30	-9	2	0.6806640625
587.3193359375	0.00833333333333333	1	30	3	2	0.8525390625
590.177734375	0.00833333333333333	1	-30	-10	1	1.234375
593.7607421875	0.00833333333333333	1	NaN	-3	1	0.875
596.7353515625	0.00833333333333333	1	-30	-9	1	1.63671875
600.84375	0.00833333333333333	1	-30	-8	2	0.5439453125
603.4267578125	0.00833333333333333	1	30	1	2	0.681640625
606.2685546875	0.00833333333333333	1	30	2	2	0.671875
609.03515625	0.00833333333333333	1	30	0	2	0.560546875
611.6767578125	0.00833333333333333	1	30	1	2	0.5673828125
614.693359375	0.00833333333333333	1	30	-1	2	0.5908203125
617.310546875	0.00833333333333333	1	30	0	2	0.4453125
619.8349609375	0.00833333333333333	1	30	-1	2	0.6337890625
622.6767578125	0.00833333333333333	1	30	-2	2	0.583984375
625.7099609375	0.00833333333333333	1	30	-2	2	0.5908203125
628.66015625	0.00833333333333333	1	30	-3	2	0.8564453125
631.6669921875	0.00833333333333333	1	30	-4	1	1.162109375
634.8935546875	0.00833333333333333	1	30	-3	1	0.51171875
637.7685546875	0.00833333333333333	1	30	-3	1	0.4921875
640.28515625	0.00833333333333333	1	30	-2	1	0.49609375
643.0009765625	0.00833333333333333	1	30	-2	1	0.46875
645.6513671875	0.00833333333333333	1	30	-1	1	0.4658203125
648.4345703125	0.00833333333333333	1	30	-1	1	0.451171875
651.1171875	0.00833333333333333	1	30	0	1	0.5283203125
654.0341796875	0.00833333333333333	1	30	1	1	1.6591796875
657.7431640625	0.00833333333333333	1	30	2	2	1.20703125
661.42578125	0.00833333333333333	1	30	1	2	0.732421875
664.359375	0.00833333333333333	1	30	0	2	1.3515625
667.67578125	0.00833333333333333	1	30	0	1	0.802734375
670.5341796875	0.00833333333333333	1	30	1	1	1.2646484375
674.1513671875	0.00833333333333333	1	30	-1	1	0.7265625
677.1591796875	0.00833333333333333	1	30	2	1	1.7353515625
680.8916015625	0.00833333333333333	1	30	3	1	0.802734375
683.80078125	0.00833333333333333	1	30	4	2	0.58203125
686.54296875	0.00833333333333333	1	30	3	2	0.591796875
689.5673828125	0.00833333333333333	1	30	2	2	1.1435546875
693.17578125	0.00833333333333333	1	30	1	2	1.4951171875
697.109375	0.00833333333333333	1	30	0	1	0.921875
700.4921875	0.00833333333333333	1	30	1	1	0.5634765625
703.17578125	0.00833333333333333	1	30	2	1	0.7197265625
706.2509765625	0.00833333333333333	1	30	3	1	0.5
709.1171875	0.00833333333333333	1	30	4	1	0.9140625
712.333984375	0.00833333333333333	1	30	5	2	0.578125
715.0830078125	0.00833333333333333	1	30	4	2	0.564453125
718.17578125	0.00833333333333333	1	30	3	2	0.6396484375
725.708984375	0.00833333333333333	1	30	2	1	0.875
729.0166015625	0.00833333333333333	1	30	3	1	0.6875
732.015625	0.00833333333333333	1	30	4	2	0.5927734375
735	0.00833333333333333	1	30	3	1	1.3046875
738.5166015625	0.00833333333333333	1	30	4	2	0.7001953125
741.208984375	0.00833333333333333	1	30	2.08333333333333	1	0.984375
744.6337890625	0.00833333333333333	1	-30	-6.16666666666667	1	0.8466796875
747.94140625	0.00833333333333333	1	30	1.08333333333333	1	0.6591796875
750.650390625	0.00833333333333333	1	30	2.20833333333333	1	0.6708984375
753.75	0.00833333333333333	1	30	1.20833333333333	2	0.6513671875
756.83203125	0.00833333333333333	1	NaN	0.416666666666667	2	0.4892578125
759.44140625	0.00833333333333333	1	-30	-7.16666666666667	2	0.51953125
762.19140625	0.00833333333333333	1	30	1.08333333333333	1	1.25
765.7578125	0.00833333333333333	1	-30	-6.04166666666667	2	0.5634765625
768.7333984375	0.00833333333333333	1	-30	-6.16666666666667	2	0.5400390625
771.75	0.00833333333333333	1	-30	-7.29166666666667	2	0.587890625
774.4326171875	0.00833333333333333	1	-30	-7.41666666666667	2	0.6572265625
777.408203125	0.00833333333333333	1	30	1.20833333333333	2	1.1298828125
780.7666015625	0.00833333333333333	1	-30	-7.54166666666667	2	0.5546875
783.7744140625	0.00833333333333333	1	NaN	0.291666666666667	2	0.451171875
786.607421875	0.00833333333333333	1	-30	-7.66666666666667	1	0.6748046875
789.3076171875	0.00833333333333333	1	-30	-7.54166666666667	2	0.486328125
792.099609375	0.00833333333333333	1	-30	-7.66666666666667	1	0.7109375
795.0576171875	0.00833333333333333	1	NaN	0.166666666666667	2	0.5048828125
797.599609375	0.00833333333333333	1	30	2.33333333333333	2	0.603515625
800.5576171875	0.00833333333333333	1	NaN	-0.583333333333333	2	0.4931640625
803.099609375	0.00833333333333333	1	NaN	0.0416666666666667	2	0.5029296875
806.0244140625	0.00833333333333333	1	30	1.08333333333333	1	0.578125
808.673828125	0.00833333333333333	1	30	2.20833333333333	2	0.6328125
811.548828125	0.00833333333333333	1	30	1.20833333333333	1	0.6787109375
814.3154296875	0.00833333333333333	1	30	1.33333333333333	2	1.5830078125
818.2822265625	0.00833333333333333	1	NaN	-0.708333333333333	2	1.9365234375
822.4658203125	0.00833333333333333	1	NaN	-0.0833333333333333	2	0.5849609375
825.041015625	0.00833333333333333	1	30	1.20833333333333	1	0.74609375
827.9404296875	0.00833333333333333	1	-30	-7.54166666666667	2	0.630859375
830.6904296875	0.00833333333333333	1	30	1.33333333333333	1	0.6806640625
833.83984375	0.00833333333333333	1	NaN	-0.208333333333333	2	1.2197265625
837.048828125	0.00833333333333333	1	NaN	-0.833333333333333	2	1.291015625
840.630859375	0.00833333333333333	1	NaN	-0.958333333333333	1	1.716796875
844.7568359375	0.00833333333333333	1	NaN	-0.833333333333333	2	0.775390625
847.615234375	0.00833333333333333	1	NaN	-0.333333333333333	2	0.4921875
850.2734375	0.00833333333333333	1	-30	-7.66666666666667	1	0.8349609375
853.33984375	0.00833333333333333	1	30	2.08333333333333	2	0.751953125
856.33984375	0.00833333333333333	1	30	1.45833333333333	1	1.48046875
859.990234375	0.00833333333333333	1	30	1.58333333333333	1	0.57421875
862.58203125	0.00833333333333333	1	30	1.70833333333333	1	0.52734375
865.130859375	0.00833333333333333	1	-30	-6.29166666666667	1	0.76953125
867.9404296875	0.00833333333333333	1	NaN	-0.458333333333333	2	0.5205078125
870.58984375	0.00833333333333333	1	-30	-7.54166666666667	1	0.654296875
873.6142578125	0.00833333333333333	1	30	1.95833333333333	2	1.21484375
877.2978515625	0.00833333333333333	1	-30	-6.16666666666667	1	0.6591796875
880.22265625	0.00833333333333333	1	NaN	-0.583333333333333	1	0.91015625
883.3232421875	0.00833333333333333	1	-30	-7.41666666666667	1	0.6337890625
886.15625	0.00833333333333333	1	NaN	-0.458333333333333	1	0.6884765625
888.97265625	0.00833333333333333	1	30	1.83333333333333	1	0.5126953125
891.71484375	0.00833333333333333	1	30	1.83333333333333	1	0.578125
894.689453125	0.00833333333333333	1	NaN	-0.958333333333333	2	0.4755859375
897.58984375	0.00833333333333333	1	NaN	-0.333333333333333	2	1.2880859375
901.0390625	0.00833333333333333	1	NaN	-1.08333333333333	2	0.7099609375
903.880859375	0.00833333333333333	1	NaN	-1.20833333333333	2	0.9013671875
906.7890625	0.00833333333333333	1	NaN	-1.33333333333333	2	1.0009765625
909.84765625	0.00833333333333333	1	-30	-6.04166666666667	2	0.6943359375
912.5478515625	0.00833333333333333	1	NaN	-1.45833333333333	2	1.314453125
916.0556640625	0.00833333333333333	1	-30	-7.29166666666667	1	0.974609375
919.322265625	0.00833333333333333	1	-30	-6.16666666666667	1	0.8837890625
922.5810546875	0.00833333333333333	1	NaN	-0.458333333333333	2	0.9619140625
925.6640625	0.00833333333333333	1	30	1.95833333333333	1	0.6142578125
928.4306640625	0.00833333333333333	1	NaN	-1.58333333333333	1	0.6796875
931.1474609375	0.00833333333333333	1	-30	-6.04166666666667	1	0.779296875
934.0888671875	0.00833333333333333	1	NaN	-1.45833333333333	1	0.59765625
936.9306640625	0.00833333333333333	1	30	2.08333333333333	1	0.5556640625
939.638671875	0.00833333333333333	1	-30	-5.91666666666667	1	0.6083984375
942.6220703125	0.00833333333333333	1	NaN	-0.583333333333333	2	0.529296875
945.296875	0.00833333333333333	1	30	1.95833333333333	1	0.6865234375
948.330078125	0.00833333333333333	1	NaN	-1.33333333333333	1	0.5576171875
951.0888671875	0.00833333333333333	1	NaN	-0.708333333333333	2	1.1181640625
954.6298828125	0.00833333333333333	1	NaN	-1.20833333333333	2	0.873046875
957.9638671875	0.00833333333333333	1	-30	-5.79166666666667	2	0.515625
960.671875	0.00833333333333333	1	30	2.20833333333333	2	1.328125
964.013671875	0.00833333333333333	1	NaN	-0.833333333333333	1	0.6103515625
967.021484375	0.00833333333333333	1	30	2.08333333333333	2	0.74609375
970.0546875	0.00833333333333333	1	-30	-5.91666666666667	2	0.5693359375
972.5888671875	0.00833333333333333	1	30	1.95833333333333	1	1.03515625
975.771484375	0.00833333333333333	1	30	2.08333333333333	2	1.0205078125
979.0546875	0.00833333333333333	1	30	1.95833333333333	2	1.8818359375
983.171875	0.00833333333333333	1	NaN	-0.708333333333333	2	1.0283203125
986.62109375	0.00833333333333333	1	NaN	-0.833333333333333	2	0.939453125
989.712890625	0.00833333333333333	1	NaN	-1.33333333333333	2	0.87109375
993.0966796875	0.00833333333333333	1	NaN	-0.958333333333333	2	0.759765625
995.904296875	0.00833333333333333	1	-30	-6.04166666666667	2	0.640625
998.671875	0.00833333333333333	1	NaN	-1.45833333333333	1	1.544921875
1002.5634765625	0.00833333333333333	1	30	1.83333333333333	1	0.5498046875
1005.1884765625	0.00833333333333333	1	30	2.08333333333333	1	0.6123046875
1007.9375	0.00833333333333333	1	-30	-7.16666666666667	2	1.119140625
1011.2294921875	0.00833333333333333	1	30	1.95833333333333	1	0.4912109375
1013.87109375	0.00833333333333333	1	30	2.20833333333333	1	0.5224609375
1016.6123046875	0.00833333333333333	1	NaN	-1.08333333333333	2	1.205078125
1020.1630859375	0.00833333333333333	1	30	2.08333333333333	1	0.6865234375
1023.23828125	0.00833333333333333	1	-30	-7.29166666666667	2	0.5791015625
1037.12109375	0.00833333333333333	1	NaN	-1.20833333333333	1	1.77734375
1041.294921875	0.00833333333333333	1	NaN	-1.08333333333333	1	0.619140625
1044.1787109375	0.00833333333333333	1	30	2.20833333333333	1	0.5673828125
1047.25390625	0.00833333333333333	1	30	2.33333333333333	1	0.5322265625
1050.1708984375	0.00833333333333333	1	30	2.33333333333333	1	0.5751953125
1053.01171875	0.00833333333333333	1	-30	-6.16666666666667	2	0.53515625
1055.8291015625	0.00833333333333333	1	30	2.45833333333333	1	0.509765625
1058.662109375	0.00833333333333333	1	30	2.58333333333333	1	0.484375
1061.537109375	0.00833333333333333	1	30	2.70833333333333	2	0.857421875
1064.8369140625	0.00833333333333333	1	NaN	-0.958333333333333	1	0.734375
1067.853515625	0.00833333333333333	1	NaN	-0.833333333333333	2	0.669921875
1070.9697265625	0.00833333333333333	1	-30	-7.41666666666667	1	0.7451171875
1074.1953125	0.00833333333333333	1	-30	-6.29166666666667	2	0.5361328125
1076.7783203125	0.00833333333333333	1	NaN	-1.33333333333333	2	1.12109375
1080.0439453125	0.00833333333333333	1	NaN	-1.45833333333333	2	0.86328125
1082.9873046875	0.00833333333333333	1	NaN	-1.58333333333333	2	0.728515625
1085.787109375	0.00833333333333333	1	NaN	-1.70833333333333	2	0.5361328125
1088.6865234375	0.00833333333333333	1	-30	-7.29166666666667	2	0.5810546875
1091.4697265625	0.00833333333333333	1	-30	-6.41666666666667	2	0.6455078125
1094.5869140625	0.00833333333333333	1	NaN	-0.958333333333333	2	0.48046875
1097.1953125	0.00833333333333333	1	30	2.58333333333333	2	0.6162109375
1100.177734375	0.00833333333333333	1	30	2.45833333333333	2	0.634765625
1103.3115234375	0.00833333333333333	1	-30	-6.54166666666667	2	0.7255859375
1106.16015625	0.00833333333333333	1	NaN	-1.83333333333333	2	0.8603515625
1109.3115234375	0.00833333333333333	1	NaN	-1.08333333333333	2	0.8125
1112.39453125	0.00833333333333333	1	NaN	-1.20833333333333	2	0.4658203125
1115.3701171875	0.00833333333333333	1	-30	-6.66666666666667	2	0.498046875
1117.9365234375	0.00833333333333333	1	NaN	-1.95833333333333	2	0.66796875
1120.818359375	0.00833333333333333	1	-30	-6.79166666666667	2	0.5859375
1123.4775390625	0.00833333333333333	1	NaN	-1.33333333333333	2	0.5908203125
1126.0859375	0.00833333333333333	1	-30	-7.41666666666667	1	0.806640625
1129.328125	0.00833333333333333	1	30	2.45833333333333	2	1.517578125
1133.0859375	0.00833333333333333	1	30	2.33333333333333	1	0.5751953125
1136.01953125	0.00833333333333333	1	NaN	-1.45833333333333	2	0.529296875
1138.7021484375	0.00833333333333333	1	NaN	-2.08333333333333	1	0.53515625
1141.7275390625	0.00833333333333333	1	30	2.45833333333333	1	0.7421875
1144.7109375	0.00833333333333333	1	-30	-7.29166666666667	1	0.6787109375
1147.8525390625	0.00833333333333333	1	NaN	-1.58333333333333	1	0.625
1150.6357421875	0.00833333333333333	1	NaN	-1.95833333333333	1	0.7216796875
1153.693359375	0.00833333333333333	1	NaN	-1.83333333333333	1	1.1845703125
1156.935546875	0.00833333333333333	1	-30	-6.91666666666667	2	0.5263671875
1159.935546875	0.00833333333333333	1	-30	-7.16666666666667	2	0.462890625
1162.4443359375	0.00833333333333333	1	-30	-7.04166666666667	1	0.7138671875
1165.443359375	0.00833333333333333	1	-30	-6.91666666666667	1	0.7783203125
1168.53515625	0.00833333333333333	1	30	2.58333333333333	2	2.271484375
1172.876953125	0.00833333333333333	1	NaN	-1.70833333333333	1	0.5771484375
1175.4853515625	0.00833333333333333	1	-30	-7.29166666666667	1	0.5302734375
1178.0927734375	0.00833333333333333	1	30	2.33333333333333	1	0.4892578125
1180.619140625	0.00833333333333333	1	-30	-7.16666666666667	1	0.458984375
1183.201171875	0.00833333333333333	1	30	2.45833333333333	1	0.4052734375
1186.0439453125	0.00833333333333333	1	NaN	-1.58333333333333	1	0.5791015625
1188.951171875	0.00833333333333333	1	NaN	-1.45833333333333	2	1.83203125
1193.126953125	0.00833333333333333	1	30	2.58333333333333	2	1.14453125
1196.376953125	0.00833333333333333	1	NaN	-1.45833333333333	1	0.7421875
1199.2099609375	0.00833333333333333	1	30	2.45833333333333	2	0.9169921875
1202.21875	0.00833333333333333	1	-30	-6.79166666666667	1	0.6123046875
1205.0009765625	0.00833333333333333	1	NaN	-1.33333333333333	1	0.7587890625
1207.8017578125	0.00833333333333333	1	NaN	-1.20833333333333	2	1.0859375
1211.376953125	0.00833333333333333	1	-30	-7.04166666666667	2	0.607421875
1214.451171875	0.00833333333333333	1	NaN	-1.33333333333333	2	1.31640625
1218.234375	0.00833333333333333	1	30	2.33333333333333	2	0.8056640625
1221.451171875	0.00833333333333333	1	NaN	-1.58333333333333	2	1.9326171875
1225.826171875	0.00833333333333333	1	-30	-7.16666666666667	1	0.654296875
1228.5927734375	0.00833333333333333	1	NaN	-1.45833333333333	2	1.9033203125
1232.8427734375	0.00833333333333333	1	NaN	-1.58333333333333	2	1.333984375
1236.576171875	0.00833333333333333	1	30	2.20833333333333	2	1.3681640625
1240.1416015625	0.00833333333333333	1	-30	-7.04166666666667	1	0.5947265625
1243.201171875	0.00833333333333333	1	-30	-6.91666666666667	1	0.935546875
1246.384765625	0.00833333333333333	1	NaN	-1.70833333333333	2	0.8955078125
1249.4931640625	0.00833333333333333	1	30	2.45833333333333	2	0.9638671875
1252.958984375	0.00833333333333333	1	30	2.08333333333333	2	1.0576171875
1256.201171875	0.00833333333333333	1	NaN	-1.70833333333333	2	1.18359375
1259.7509765625	0.00833333333333333	1	30	2.33333333333333	2	0.7548828125
1262.5341796875	0.00833333333333333	1	30	1.95833333333333	1	1.2109375
1265.833984375	0.00833333333333333	1	NaN	-1.83333333333333	1	0.9677734375
1268.9013671875	0.00833333333333333	1	30	2.08333333333333	1	0.9638671875
1272.267578125	0.00833333333333333	1	-30	-6.79166666666667	2	1.1025390625
1275.6591796875	0.00833333333333333	1	NaN	-1.70833333333333	2	1.40625
1279.1171875	0.00833333333333333	1	NaN	-1.83333333333333	2	0.6044921875
1281.93359375	0.00833333333333333	1	-30	-6.91666666666667	2	1.572265625
1285.775390625	0.00833333333333333	1	-30	-7.04166666666667	1	0.650390625
1288.7333984375	0.00833333333333333	1	NaN	-1.83333333333333	1	0.62109375
1291.458984375	0.00833333333333333	1	NaN	-1.95833333333333	1	1.0556640625
1294.8583984375	0.00833333333333333	1	-30	-6.66666666666667	2	1.087890625
1298.0166015625	0.00833333333333333	1	30	2.20833333333333	2	2.3701171875
1302.583984375	0.00833333333333333	1	-30	-6.79166666666667	2	1.2109375
1306.2666015625	0.00833333333333333	1	NaN	-1.70833333333333	2	1.087890625
1309.400390625	0.00833333333333333	1	NaN	-1.83333333333333	2	1.05859375
1312.4755859375	0.00833333333333333	1	30	2.20833333333333	2	0.8388671875
1315.4169921875	0.00833333333333333	1	NaN	-1.83333333333333	2	0.6982421875
1318.1923828125	0.00833333333333333	1	-30	-6.91666666666667	1	1.5947265625
1322.400390625	0.00833333333333333	1	30	2.08333333333333	2	1.37890625
1326.2158203125	0.00833333333333333	1	30	1.95833333333333	2	0.755859375
1329.091796875	0.00833333333333333	1	30	1.83333333333333	1	1.34375
1332.68359375	0.00833333333333333	1	30	2.08333333333333	1	1.103515625
1335.9248046875	0.00833333333333333	1	30	2.20833333333333	1	0.8544921875
1375.8076171875	0.00833333333333333	1	NaN	-1.95833333333333	1	1.95703125
1379.798828125	0.00833333333333333	1	-30	-6.79166666666667	2	0.845703125
1382.9912109375	0.00833333333333333	1	30	1.95833333333333	1	0.91796875
1385.9072265625	0.00833333333333333	1	30	2.08333333333333	1	0.7060546875
1388.78125	0.00833333333333333	1	NaN	-1.83333333333333	2	0.736328125
1391.8486328125	0.00833333333333333	1	-30	-6.91666666666667	1	0.7412109375
1394.6240234375	0.00833333333333333	1	NaN	-1.95833333333333	2	1.7021484375
1398.4736328125	0.00833333333333333	1	-30	-6.79166666666667	1	0.7158203125
1401.3310546875	0.00833333333333333	1	30	2.20833333333333	2	0.9462890625
1404.6318359375	0.00833333333333333	1	-30	-6.66666666666667	1	0.7109375
1407.548828125	0.00833333333333333	1	-30	-6.54166666666667	1	1.625
1411.2734375	0.00833333333333333	1	NaN	-2.08333333333333	1	0.7568359375
1414.265625	0.00833333333333333	1	NaN	-1.95833333333333	2	1.3564453125
1417.9150390625	0.00833333333333333	1	NaN	-2.08333333333333	1	0.6435546875
1420.9658203125	0.00833333333333333	1	-30	-6.41666666666667	1	0.9052734375
1424.33984375	0.00833333333333333	1	NaN	-1.95833333333333	2	1.322265625
1427.6904296875	0.00833333333333333	1	-30	-6.29166666666667	1	0.7080078125
1430.5732421875	0.00833333333333333	1	-30	-6.16666666666667	1	1.353515625
1434.1474609375	0.00833333333333333	1	30	2.33333333333333	1	1.130859375
1437.48046875	0.00833333333333333	1	-30	-6.04166666666667	1	0.638671875
1440.3154296875	0.00833333333333333	1	-30	-5.91666666666667	1	0.66796875
1442.9736328125	0.00833333333333333	1	-30	-5.79166666666667	1	1.6416015625
1446.6982421875	0.00833333333333333	1	NaN	-2.08333333333333	1	1.0693359375
1449.9384765625	0.00833333333333333	1	NaN	-1.95833333333333	2	1.716796875
1453.6396484375	0.00833333333333333	1	-30	-5.66666666666667	1	0.7919921875
1456.6884765625	0.00833333333333333	1	-30	-5.54166666666667	1	0.9345703125
1459.7734375	0.00833333333333333	1	-30	-5.41666666666667	1	2.5380859375
1464.8310546875	0.00833333333333333	1	-30	-5.29166666666667	2	1.3525390625
1468.4892578125	0.00833333333333333	1	-30	-5.41666666666667	1	1.798828125
1472.6064453125	0.00833333333333333	1	NaN	-2.08333333333333	2	1.4658203125
1476.08984375	0.00833333333333333	1	NaN	-2.20833333333333	2	1.134765625
1479.6728515625	0.00833333333333333	1	NaN	-2.33333333333333	1	0.8955078125
1482.97265625	0.00833333333333333	1	-30	-5.29166666666667	2	0.6201171875
1485.8310546875	0.00833333333333333	1	-30	-5.41666666666667	2	0.841796875
1489.1142578125	0.00833333333333333	1	-30	-5.54166666666667	1	0.798828125
1492.28125	0.00833333333333333	1	30	2.45833333333333	2	0.6474609375
1495.1298828125	0.00833333333333333	1	30	2.33333333333333	1	1.53515625
1498.822265625	0.00833333333333333	1	30	2.45833333333333	1	0.74609375
1501.85546875	0.00833333333333333	1	-30	-5.41666666666667	1	0.880859375
1504.8720703125	0.00833333333333333	1	-30	-5.29166666666667	2	1.6328125
1508.630859375	0.00833333333333333	1	30	2.58333333333333	1	0.6826171875
1511.7802734375	0.00833333333333333	1	30	2.70833333333333	1	2.4375
1516.3974609375	0.00833333333333333	1	30	2.83333333333333	2	1.755859375
1520.4384765625	0.00833333333333333	1	30	2.70833333333333	2	0.71484375
1523.60546875	0.00833333333333333	1	30	2.58333333333333	2	0.908203125
1526.8212890625	0.00833333333333333	1	30	2.45833333333333	2	1.876953125
1531.10546875	0.00833333333333333	1	30	2.33333333333333	2	0.728515625
1533.9384765625	0.00833333333333333	1	30	2.20833333333333	2	0.671875
1537.0048828125	0.00833333333333333	1	30	2.08333333333333	2	1.0693359375
1540.263671875	0.00833333333333333	1	30	1.95833333333333	2	0.802734375
1543.4130859375	0.00833333333333333	1	30	1.83333333333333	1	1.2373046875
1546.947265625	0.00833333333333333	1	30	1.95833333333333	1	1.8076171875
1550.9296875	0.00833333333333333	1	30	2.08333333333333	2	2.4169921875
1555.5302734375	0.00833333333333333	0	30	2.17708333333333	2	1.4248046875
1559.1220703125	0.00833333333333333	0	-30	-6.64791666666667	2	0.625
1562.212890625	0.00833333333333333	0	-30	-6.64791666666667	2	0.830078125
1565.404296875	0.00833333333333333	0	-30	-6.64791666666667	2	0.5751953125
1568.404296875	0.00833333333333333	0	30	2.17708333333333	2	0.5986328125
1571.296875	0.00833333333333333	0	-30	-6.64791666666667	1	1.07421875
1574.896484375	0.00833333333333333	0	-30	-6.64791666666667	1	2.4345703125
1579.646484375	0.00833333333333333	0	-30	-6.64791666666667	1	0.7333984375
1582.8212890625	0.00833333333333333	0	30	2.17708333333333	2	0.669921875
1585.8544921875	0.00833333333333333	0	30	2.17708333333333	1	2.109375
1590.0380859375	0.00833333333333333	0	30	2.17708333333333	2	1.150390625
1593.37109375	0.00833333333333333	0	-30	-6.64791666666667	1	0.6806640625
1596.3544921875	0.00833333333333333	0	-30	-6.64791666666667	1	0.689453125
1599.3544921875	0.00833333333333333	0	-30	-6.52291666666667	1	0.697265625
1602.212890625	0.00833333333333333	0	30	2.17708333333333	1	0.9921875
1605.25390625	0.00833333333333333	0	-30	-6.52291666666667	1	0.630859375
1608.095703125	0.00833333333333333	0	-30	-6.52291666666667	1	0.5732421875
1611.0947265625	0.00833333333333333	0	-30	-6.52291666666667	1	0.6220703125
1613.75390625	0.00833333333333333	0	30	2.17708333333333	1	1.2265625
1617.427734375	0.00833333333333333	0	30	2.17708333333333	1	0.880859375
1620.8193359375	0.00833333333333333	0	-30	-6.52291666666667	2	0.6328125
1623.904296875	0.00833333333333333	0	30	2.17708333333333	1	1.94921875
1628.1201171875	0.00833333333333333	0	30	2.17708333333333	1	1.9892578125
1632.5703125	0.00833333333333333	0	30	2.30208333333333	1	0.9306640625
1635.5361328125	0.00833333333333333	0	30	2.30208333333333	1	0.9248046875
1638.6875	0.00833333333333333	0	30	2.30208333333333	1	0.7578125
1641.51171875	0.00833333333333333	0	30	2.30208333333333	1	0.662109375
1644.369140625	0.00833333333333333	0	30	2.30208333333333	2	1.908203125
1648.720703125	0.00833333333333333	0	-30	-6.52291666666667	1	1.30078125
1652.26171875	0.00833333333333333	0	-30	-6.52291666666667	1	0.744140625
1655.3115234375	0.00833333333333333	0	-30	-6.52291666666667	2	0.8623046875
1658.3037109375	0.00833333333333333	0	-30	-6.52291666666667	2	0.806640625
1661.078125	0.00833333333333333	0	30	2.30208333333333	2	1.51171875
1664.6201171875	0.00833333333333333	0	-30	-6.52291666666667	2	0.6259765625
1667.5869140625	0.00833333333333333	0	30	2.30208333333333	1	1.8359375
1671.8955078125	0.00833333333333333	0	30	2.30208333333333	2	1.607421875
1675.5703125	0.00833333333333333	0	-30	-6.52291666666667	2	0.6044921875
1678.4453125	0.00833333333333333	0	30	2.30208333333333	2	0.609375
1681.39453125	0.00833333333333333	0	-30	-6.52291666666667	2	0.8681640625
1684.38671875	0.00833333333333333	0	-30	-6.64791666666667	2	0.923828125
1687.728515625	0.00833333333333333	0	30	2.30208333333333	2	0.9501953125
1690.9365234375	0.00833333333333333	0	-30	-6.64791666666667	2	0.9345703125
1694.1943359375	0.00833333333333333	0	30	2.30208333333333	1	0.724609375
1697.236328125	0.00833333333333333	0	-30	-6.64791666666667	2	1.0107421875
1700.3447265625	0.00833333333333333	0	-30	-6.64791666666667	2	1.2470703125
1703.76953125	0.00833333333333333	0	-30	-6.64791666666667	2	0.662109375
1706.4697265625	0.00833333333333333	0	-30	-6.77291666666667	2	0.6416015625
1709.2109375	0.00833333333333333	0	30	2.30208333333333	2	0.5888671875
1711.8193359375	0.00833333333333333	0	-30	-6.77291666666667	2	0.580078125
1714.869140625	0.00833333333333333	0	30	2.30208333333333	2	0.9951171875
1718.0107421875	0.00833333333333333	0	30	2.30208333333333	2	0.5810546875
1720.8857421875	0.00833333333333333	0	-30	-6.77291666666667	1	0.5537109375
1723.4521484375	0.00833333333333333	0	30	2.30208333333333	2	0.8037109375
1726.677734375	0.00833333333333333	0	-30	-6.77291666666667	2	0.6982421875
1729.7021484375	0.00833333333333333	0	30	2.30208333333333	2	0.7861328125
1732.576171875	0.00833333333333333	0	-30	-6.77291666666667	2	0.6083984375
1735.318359375	0.00833333333333333	0	-30	-6.77291666666667	2	0.5458984375
1738.326171875	0.00833333333333333	0	-30	-6.77291666666667	2	0.6181640625
1741.15234375	0.00833333333333333	0	30	2.17708333333333	2	1.736328125
1745.16015625	0.00833333333333333	0	-30	-6.77291666666667	2	0.7763671875
1748.251953125	0.00833333333333333	0	-30	-6.89791666666667	2	1.0849609375
1751.3349609375	0.00833333333333333	0	-30	-6.89791666666667	2	0.9619140625
1754.3935546875	0.00833333333333333	0	30	2.17708333333333	2	0.767578125
1757.376953125	0.00833333333333333	0	-30	-6.89791666666667	1	0.7998046875
1760.27734375	0.00833333333333333	0	-30	-6.89791666666667	2	0.66015625
1763.1015625	0.00833333333333333	0	-30	-6.89791666666667	1	0.8115234375
1766.1845703125	0.00833333333333333	0	30	2.17708333333333	1	1.0654296875
1769.5107421875	0.00833333333333333	0	-30	-6.89791666666667	1	1.890625
1773.701171875	0.00833333333333333	0	-30	-6.89791666666667	1	1.373046875
1777.275390625	0.00833333333333333	0	30	2.17708333333333	1	0.5908203125
1780.2421875	0.00833333333333333	0	-30	-6.89791666666667	1	1.2001953125
1783.5009765625	0.00833333333333333	0	30	2.17708333333333	1	0.7734375
1786.634765625	0.00833333333333333	0	30	2.17708333333333	1	0.6875
1789.7265625	0.00833333333333333	0	30	2.17708333333333	2	0.66796875
1792.53515625	0.00833333333333333	0	-30	-6.89791666666667	1	0.794921875
1795.4853515625	0.00833333333333333	0	30	2.17708333333333	2	0.685546875
1798.1435546875	0.00833333333333333	0	-30	-6.77291666666667	2	0.6669921875
1800.91015625	0.00833333333333333	0	-30	-6.77291666666667	1	0.7880859375
1803.892578125	0.00833333333333333	0	30	2.17708333333333	1	0.654296875
1806.6259765625	0.00833333333333333	0	-30	-6.77291666666667	1	0.9609375
1824.451171875	0.00833333333333333	0	30	2.17708333333333	2	1.240234375
1828.0595703125	0.00833333333333333	0	-30	-6.77291666666667	1	0.927734375
1831.1337890625	0.00833333333333333	0	30	2.17708333333333	1	0.517578125
1833.951171875	0.00833333333333333	0	30	2.17708333333333	1	0.6201171875
1836.6845703125	0.00833333333333333	0	-30	-6.77291666666667	1	0.935546875
1839.984375	0.00833333333333333	0	30	2.17708333333333	1	0.580078125
1842.6005859375	0.00833333333333333	0	-30	-6.77291666666667	1	0.546875
1845.275390625	0.00833333333333333	0	-30	-6.64791666666667	1	0.6650390625
1848.1669921875	0.00833333333333333	0	30	2.17708333333333	2	0.94140625
1851.5673828125	0.00833333333333333	0	-30	-6.64791666666667	1	0.7734375
1854.767578125	0.00833333333333333	0	30	2.17708333333333	2	1.4208984375
1858.3837890625	0.00833333333333333	0	-30	-6.64791666666667	1	0.9482421875
1861.517578125	0.00833333333333333	0	-30	-6.64791666666667	1	0.783203125
1864.357421875	0.00833333333333333	0	30	2.17708333333333	2	0.6875
1867.2841796875	0.00833333333333333	0	30	2.17708333333333	2	1.79296875
1871.3671875	0.00833333333333333	0	-30	-6.64791666666667	2	1.3896484375
1875.1669921875	0.00833333333333333	0	30	2.17708333333333	2	1.1103515625
1878.408203125	0.00833333333333333	0	30	2.05208333333333	2	0.8212890625
1881.5751953125	0.00833333333333333	0	-30	-6.64791666666667	1	1.1259765625
1884.916015625	0.00833333333333333	0	30	2.05208333333333	2	1.3056640625
1888.640625	0.00833333333333333	0	-30	-6.64791666666667	2	0.8447265625
1891.908203125	0.00833333333333333	0	30	2.05208333333333	2	0.9853515625
1895.0419921875	0.00833333333333333	0	-30	-6.64791666666667	2	0.99609375
1898.158203125	0.00833333333333333	0	-30	-6.64791666666667	2	1.6796875
1902.125	0.00833333333333333	0	-30	-6.64791666666667	2	0.697265625
1904.8662109375	0.00833333333333333	0	-30	-6.64791666666667	2	0.6279296875
1907.8583984375	0.00833333333333333	0	30	2.05208333333333	2	0.67578125
1910.75	0.00833333333333333	0	30	2.05208333333333	2	0.8642578125
1913.7158203125	0.00833333333333333	0	-30	-6.77291666666667	1	1.05078125
1917.091796875	0.00833333333333333	0	30	1.92708333333333	1	0.8662109375
1920.033203125	0.00833333333333333	0	-30	-6.77291666666667	1	0.845703125
1923.3330078125	0.00833333333333333	0	30	1.92708333333333	2	0.849609375
1926.2412109375	0.00833333333333333	0	-30	-6.77291666666667	1	0.990234375
1929.658203125	0.00833333333333333	0	30	1.92708333333333	2	0.9326171875
1932.6826171875	0.00833333333333333	0	30	1.92708333333333	2	0.7724609375
1935.57421875	0.00833333333333333	0	-30	-6.77291666666667	2	0.65625
1938.541015625	0.00833333333333333	0	30	1.92708333333333	2	0.8505859375
1941.732421875	0.00833333333333333	0	30	1.92708333333333	2	1.02734375
1945.1826171875	0.00833333333333333	0	30	1.80208333333333	2	0.6884765625
1948.140625	0.00833333333333333	0	-30	-6.77291666666667	2	0.5947265625
1950.82421875	0.00833333333333333	0	-30	-6.77291666666667	2	0.591796875
1953.6572265625	0.00833333333333333	0	-30	-6.77291666666667	2	0.4619140625
1956.2490234375	0.00833333333333333	0	30	1.80208333333333	2	0.6708984375
1959.2568359375	0.00833333333333333	0	-30	-6.77291666666667	2	0.5107421875
1962.107421875	0.00833333333333333	0	30	1.80208333333333	2	0.9248046875
1965.390625	0.00833333333333333	0	-30	-6.89791666666667	2	0.9375
1968.5654296875	0.00833333333333333	0	30	1.80208333333333	2	0.634765625
1971.3408203125	0.00833333333333333	0	30	1.80208333333333	2	0.6748046875
1974.291015625	0.00833333333333333	0	-30	-6.89791666666667	2	0.60546875
1976.9326171875	0.00833333333333333	0	30	1.67708333333333	2	0.5556640625
1979.58203125	0.00833333333333333	0	30	1.67708333333333	1	0.8427734375
1982.548828125	0.00833333333333333	0	30	1.67708333333333	2	0.6279296875
1985.5068359375	0.00833333333333333	0	-30	-6.89791666666667	2	0.57421875
1988.58984375	0.00833333333333333	0	30	1.67708333333333	2	0.787109375
1991.3818359375	0.00833333333333333	0	30	1.67708333333333	1	0.642578125
1994.2236328125	0.00833333333333333	0	30	1.67708333333333	2	0.625
1997.0732421875	0.00833333333333333	0	-30	-6.89791666666667	2	1.1513671875
2000.5322265625	0.00833333333333333	0	-30	-6.89791666666667	2	0.9248046875
2003.890625	0.00833333333333333	0	30	1.67708333333333	2	0.5830078125
2006.8486328125	0.00833333333333333	0	-30	-7.02291666666667	2	0.529296875
2009.490234375	0.00833333333333333	0	-30	-7.02291666666667	1	0.935546875
2012.71484375	0.00833333333333333	0	-30	-7.02291666666667	2	0.9423828125
2015.8056640625	0.00833333333333333	0	30	1.67708333333333	1	1.3955078125
2019.490234375	0.00833333333333333	0	30	1.67708333333333	1	1.126953125
2022.7724609375	0.00833333333333333	0	-30	-7.02291666666667	1	0.9658203125
2026.064453125	0.00833333333333333	0	30	1.67708333333333	2	0.6416015625
2028.71484375	0.00833333333333333	0	30	1.67708333333333	1	1.2548828125
2032.03125	0.00833333333333333	0	-30	-7.02291666666667	1	1.0029296875
2035.1982421875	0.00833333333333333	0	-30	-7.02291666666667	2	1.236328125
2038.5732421875	0.00833333333333333	0	-30	-7.02291666666667	1	0.6533203125
2041.5478515625	0.00833333333333333	0	30	1.67708333333333	2	0.8701171875
2044.6640625	0.00833333333333333	0	30	1.67708333333333	1	0.9140625
2048.0478515625	0.00833333333333333	0	-30	-7.02291666666667	1	0.634765625
2050.96484375	0.00833333333333333	0	30	1.67708333333333	1	0.646484375
2053.8310546875	0.00833333333333333	0	-30	-7.02291666666667	2	0.7314453125
2056.564453125	0.00833333333333333	0	-30	-7.02291666666667	2	0.90234375
2060.0224609375	0.00833333333333333	0	30	1.67708333333333	1	1.0205078125
2063.4140625	0.00833333333333333	0	-30	-7.02291666666667	1	1.9248046875
2067.6298828125	0.00833333333333333	0	30	1.67708333333333	1	1.6376953125
2071.7294921875	0.00833333333333333	0	30	1.67708333333333	1	0.841796875
2101.970703125	0.00833333333333333	0	30	1.80208333333333	1	1.28125
2105.546875	0.00833333333333333	0	30	1.80208333333333	1	0.865234375
2108.572265625	0.00833333333333333	0	-30	-7.02291666666667	2	0.591796875
2111.3544921875	0.00833333333333333	0	-30	-7.02291666666667	1	1.07421875
2114.830078125	0.00833333333333333	0	30	1.80208333333333	1	1.1025390625
2118.11328125	0.00833333333333333	0	30	1.80208333333333	1	1.02734375
2121.5888671875	0.00833333333333333	0	-30	-7.02291666666667	2	1.34375
2125.337890625	0.00833333333333333	0	30	1.80208333333333	1	0.68359375
2128.4462890625	0.00833333333333333	0	-30	-7.02291666666667	1	1.19921875
2131.6962890625	0.00833333333333333	0	30	1.92708333333333	1	0.8125
2134.6044921875	0.00833333333333333	0	-30	-7.02291666666667	1	0.7373046875
2137.3876953125	0.00833333333333333	0	-30	-7.02291666666667	1	0.5625
2140.2216796875	0.00833333333333333	0	-30	-7.02291666666667	1	0.599609375
2143.046875	0.00833333333333333	0	-30	-7.02291666666667	1	0.5986328125
2145.61328125	0.00833333333333333	0	30	1.92708333333333	1	0.6640625
2148.337890625	0.00833333333333333	0	-30	-6.89791666666667	1	0.66015625
2151.11328125	0.00833333333333333	0	-30	-6.89791666666667	1	0.5888671875
2154.1298828125	0.00833333333333333	0	30	1.92708333333333	1	1.15625
2157.3291015625	0.00833333333333333	0	-30	-6.89791666666667	1	0.62109375
2160.146484375	0.00833333333333333	0	-30	-6.89791666666667	2	0.611328125
2162.9794921875	0.00833333333333333	0	30	1.92708333333333	2	1.123046875
2166.5546875	0.00833333333333333	0	30	1.92708333333333	1	0.7880859375
2169.4130859375	0.00833333333333333	0	30	1.92708333333333	2	1.193359375
2173.029296875	0.00833333333333333	0	30	1.92708333333333	1	1.2890625
2176.396484375	0.00833333333333333	0	30	1.92708333333333	2	1.0107421875
2179.6376953125	0.00833333333333333	0	-30	-6.89791666666667	1	0.689453125
2182.4541015625	0.00833333333333333	0	30	1.92708333333333	2	2.0810546875
2186.587890625	0.00833333333333333	0	-30	-6.89791666666667	1	0.955078125
2189.8623046875	0.00833333333333333	0	-30	-6.89791666666667	1	0.6005859375
2192.7451171875	0.00833333333333333	0	-30	-6.89791666666667	1	0.7421875
2195.845703125	0.00833333333333333	0	30	1.92708333333333	2	0.8974609375
2198.9453125	0.00833333333333333	0	30	1.92708333333333	2	1.0458984375
2202.2626953125	0.00833333333333333	0	30	1.92708333333333	2	1.025390625
2205.470703125	0.00833333333333333	0	-30	-6.89791666666667	1	0.7529296875
2208.3701171875	0.00833333333333333	0	-30	-6.77291666666667	1	2.2138671875
2212.63671875	0.00833333333333333	0	-30	-6.77291666666667	2	1.2275390625
2215.9208984375	0.00833333333333333	0	30	1.80208333333333	1	0.775390625
2218.90234375	0.00833333333333333	0	-30	-6.77291666666667	2	1.0341796875
2222.353515625	0.00833333333333333	0	-30	-6.77291666666667	2	1.6630859375
2226.203125	0.00833333333333333	0	30	1.80208333333333	2	1.26953125
2229.728515625	0.00833333333333333	0	-30	-6.77291666666667	1	1.7041015625
2233.9033203125	0.00833333333333333	0	30	1.80208333333333	1	0.697265625
2236.76171875	0.00833333333333333	0	30	1.80208333333333	2	0.951171875
2239.828125	0.00833333333333333	0	-30	-6.77291666666667	2	0.6201171875
2242.76171875	0.00833333333333333	0	30	1.80208333333333	1	0.623046875
2245.4951171875	0.00833333333333333	0	30	1.80208333333333	1	0.650390625
2248.5869140625	0.00833333333333333	0	30	1.80208333333333	2	0.91015625
2251.64453125	0.00833333333333333	0	30	1.80208333333333	2	0.9248046875
2254.5361328125	0.00833333333333333	0	-30	-6.77291666666667	2	0.609375
2257.39453125	0.00833333333333333	0	-30	-6.77291666666667	2	0.86328125
2260.677734375	0.00833333333333333	0	30	1.80208333333333	1	0.6279296875
2263.4443359375	0.00833333333333333	0	-30	-6.77291666666667	2	0.9013671875
2266.5693359375	0.00833333333333333	0	30	1.80208333333333	1	1.3203125
2270.328125	0.00833333333333333	0	-30	-6.77291666666667	1	0.857421875
2273.4033203125	0.00833333333333333	0	30	1.80208333333333	1	0.966796875
2276.3359375	0.00833333333333333	0	30	1.80208333333333	2	1.8984375
2280.328125	0.00833333333333333	0	-30	-6.77291666666667	2	0.71484375
2283.0615234375	0.00833333333333333	0	30	1.80208333333333	1	1.556640625
2287.111328125	0.00833333333333333	0	30	1.80208333333333	1	0.9873046875
2290.2607421875	0.00833333333333333	0	-30	-6.77291666666667	1	0.7578125
2293.2861328125	0.00833333333333333	0	30	1.80208333333333	1	0.6201171875
2296.111328125	0.00833333333333333	0	-30	-6.77291666666667	1	0.7392578125
2298.861328125	0.00833333333333333	0	-30	-6.77291666666667	2	0.95703125
2302.2939453125	0.00833333333333333	0	30	1.80208333333333	2	1.3564453125
2306.09375	0.00833333333333333	0	30	1.80208333333333	1	1.1328125
2309.46875	0.00833333333333333	0	-30	-6.77291666666667	2	0.998046875
2312.568359375	0.00833333333333333	0	-30	-6.77291666666667	1	1.2666015625
2316.0107421875	0.00833333333333333	0	30	1.80208333333333	1	0.751953125
2318.935546875	0.00833333333333333	0	30	1.80208333333333	1	1.2275390625
2322.185546875	0.00833333333333333	0	-30	-6.77291666666667	2	0.6015625
2324.935546875	0.00833333333333333	0	30	1.80208333333333	2	0.7158203125
2327.6513671875	0.00833333333333333	0	-30	-6.77291666666667	2	0.6240234375
2330.2939453125	0.00833333333333333	0	-30	-6.77291666666667	2	0.5732421875
2333.2939453125	0.00833333333333333	0	30	1.80208333333333	1	0.6943359375
2336.3857421875	0.00833333333333333	0	-30	-6.77291666666667	1	1.162109375
2339.78515625	0.00833333333333333	0	-30	-6.77291666666667	1	0.9150390625
2343.05078125	0.00833333333333333	0	-30	-6.77291666666667	1	1.296875
2346.8017578125	0.00833333333333333	0	30	1.80208333333333	1	1.0029296875
2350.1689453125	0.00833333333333333	0	30	1.80208333333333	2	1.603515625
2353.958984375	0.00833333333333333	0	30	1.80208333333333	1	1.5732421875
2365.892578125	0.00833333333333333	0	30	1.80208333333333	1	0.9765625
2369.2177734375	0.00833333333333333	0	-30	-6.77291666666667	1	2.435546875
2374.0009765625	0.00833333333333333	0	-30	-6.77291666666667	2	1.412109375
2377.7177734375	0.00833333333333333	0	30	1.80208333333333	1	1.263671875
2381.3671875	0.00833333333333333	0	-30	-6.77291666666667	2	0.998046875
2384.67578125	0.00833333333333333	0	-30	-6.77291666666667	2	1.001953125
2387.759765625	0.00833333333333333	0	30	1.80208333333333	1	0.75
2390.9091796875	0.00833333333333333	0	30	1.80208333333333	2	1
2393.984375	0.00833333333333333	0	-30	-6.77291666666667	1	0.93359375
2397.3095703125	0.00833333333333333	0	-30	-6.77291666666667	1	0.751953125
2400.142578125	0.00833333333333333	0	-30	-6.77291666666667	1	1.54296875
2403.81640625	0.00833333333333333	0	30	1.80208333333333	1	0.837890625
2407.0341796875	0.00833333333333333	0	-30	-6.77291666666667	1	0.66015625
2409.775390625	0.00833333333333333	0	30	1.80208333333333	1	0.8466796875
2412.8173828125	0.00833333333333333	0	-30	-6.77291666666667	1	0.708984375
2415.7255859375	0.00833333333333333	0	-30	-6.64791666666667	1	0.7529296875
2418.5341796875	0.00833333333333333	0	30	1.80208333333333	1	0.6240234375
2421.4921875	0.00833333333333333	0	30	1.80208333333333	1	0.75390625
2424.6171875	0.00833333333333333	0	30	1.80208333333333	1	0.5654296875
2427.2509765625	0.00833333333333333	0	30	1.92708333333333	1	0.6357421875
2430.333984375	0.00833333333333333	0	30	1.92708333333333	1	0.7451171875
2433.0751953125	0.00833333333333333	0	-30	-6.64791666666667	1	0.908203125
2436.05078125	0.00833333333333333	0	-30	-6.64791666666667	1	2.1806640625
2440.517578125	0.00833333333333333	0	-30	-6.64791666666667	2	0.5380859375
2443.4921875	0.00833333333333333	0	-30	-6.64791666666667	1	0.9228515625
2446.4755859375	0.00833333333333333	0	30	1.92708333333333	1	1.1318359375
2449.8837890625	0.00833333333333333	0	30	1.92708333333333	1	0.66015625
2452.7421875	0.00833333333333333	0	-30	-6.64791666666667	2	1.041015625
2455.8505859375	0.00833333333333333	0	30	1.92708333333333	1	0.6689453125
2458.8505859375	0.00833333333333333	0	30	2.05208333333333	1	0.685546875
2461.7333984375	0.00833333333333333	0	30	2.05208333333333	1	0.6025390625
2464.7421875	0.00833333333333333	0	30	2.05208333333333	1	1.07421875
2467.9580078125	0.00833333333333333	0	30	2.05208333333333	2	1.5537109375
2471.599609375	0.00833333333333333	0	-30	-6.64791666666667	1	0.880859375
2474.7998046875	0.00833333333333333	0	30	2.05208333333333	1	0.6005859375
2477.658203125	0.00833333333333333	0	-30	-6.64791666666667	1	0.7900390625
2480.6083984375	0.00833333333333333	0	-30	-6.64791666666667	2	0.6083984375
2483.341796875	0.00833333333333333	0	30	2.05208333333333	1	1.39453125
2487.19140625	0.00833333333333333	0	30	2.05208333333333	1	1.11328125
2490.4912109375	0.00833333333333333	0	-30	-6.64791666666667	1	1.013671875
2493.9326171875	0.00833333333333333	0	-30	-6.64791666666667	2	1.30859375
2497.56640625	0.00833333333333333	0	-30	-6.64791666666667	2	0.6982421875
2500.3916015625	0.00833333333333333	0	-30	-6.64791666666667	2	0.609375
2503.541015625	0.00833333333333333	0	-30	-6.64791666666667	2	0.6279296875
2506.306640625	0.00833333333333333	0	30	2.05208333333333	1	0.5908203125
2508.908203125	0.00833333333333333	0	30	2.05208333333333	1	1.6611328125
2513.041015625	0.00833333333333333	0	30	2.17708333333333	1	1.2880859375
2516.44921875	0.00833333333333333	0	30	2.17708333333333	1	0.7041015625
2519.482421875	0.00833333333333333	0	-30	-6.64791666666667	2	0.5830078125
2522.357421875	0.00833333333333333	0	30	2.17708333333333	2	0.62890625
2525.166015625	0.00833333333333333	0	30	2.17708333333333	1	0.6201171875
2528.0244140625	0.00833333333333333	0	30	2.17708333333333	1	1.162109375
2531.5654296875	0.00833333333333333	0	30	2.17708333333333	2	0.7490234375
2534.44921875	0.00833333333333333	0	-30	-6.77291666666667	2	0.6572265625
2537.541015625	0.00833333333333333	0	-30	-6.77291666666667	2	0.6455078125
2540.232421875	0.00833333333333333	0	30	2.17708333333333	2	0.76953125
2543.32421875	0.00833333333333333	0	30	2.17708333333333	2	0.71875
2546.2236328125	0.00833333333333333	0	30	2.17708333333333	1	2.04296875
2550.732421875	0.00833333333333333	0	-30	-6.77291666666667	2	1.3828125
2554.240234375	0.00833333333333333	0	-30	-6.77291666666667	1	0.875
2557.431640625	0.00833333333333333	0	30	2.17708333333333	2	1.0673828125
2560.7734375	0.00833333333333333	0	30	2.17708333333333	2	0.693359375
2563.556640625	0.00833333333333333	0	30	2.17708333333333	1	1.0302734375
2566.7822265625	0.00833333333333333	0	-30	-6.77291666666667	2	1.189453125
2570.2236328125	0.00833333333333333	0	30	2.17708333333333	2	0.8359375
2573.1240234375	0.00833333333333333	0	-30	-6.77291666666667	1	0.9111328125
2576.1904296875	0.00833333333333333	0	30	2.17708333333333	1	0.869140625
2579.255859375	0.00833333333333333	0	-30	-6.77291666666667	2	1.244140625
2582.8154296875	0.00833333333333333	0	30	2.17708333333333	1	0.7802734375
2585.7060546875	0.00833333333333333	0	30	2.17708333333333	1	1.4501953125
2589.4404296875	0.00833333333333333	0	-30	-6.77291666666667	1	0.875
2592.6396484375	0.00833333333333333	0	-30	-6.77291666666667	1	0.916015625
2595.9970703125	0.00833333333333333	0	-30	-6.77291666666667	1	0.783203125
2599.123046875	0.00833333333333333	0	30	2.17708333333333	2	1.6328125
2603.0810546875	0.00833333333333333	0	-30	-6.77291666666667	1	0.6669921875
2605.931640625	0.00833333333333333	0	-30	-6.77291666666667	1	0.7685546875
2608.84765625	0.00833333333333333	0	-30	-6.64791666666667	1	1.0126953125
2612.3232421875	0.00833333333333333	0	30	2.17708333333333	1	1.169921875
2615.5810546875	0.00833333333333333	0	30	2.17708333333333	2	1.6953125
2619.6220703125	0.00833333333333333	0	-30	-6.64791666666667	1	1.4306640625
2641.248046875	0.00833333333333333	0	-30	-6.64791666666667	1	2.3740234375
2645.7138671875	0.00833333333333333	0	30	2.17708333333333	1	0.66796875
2648.6806640625	0.00833333333333333	0	30	2.17708333333333	1	0.884765625
2651.9306640625	0.00833333333333333	0	30	2.17708333333333	1	0.5390625
2654.97265625	0.00833333333333333	0	-30	-6.64791666666667	1	0.59375
2658.0634765625	0.00833333333333333	0	30	2.17708333333333	1	0.8466796875
2661.2392578125	0.00833333333333333	0	-30	-6.64791666666667	1	0.591796875
2663.837890625	0.00833333333333333	0	-30	-6.52291666666667	1	1.4404296875
2667.61328125	0.00833333333333333	0	-30	-6.52291666666667	2	1.1455078125
2671.0966796875	0.00833333333333333	0	-30	-6.52291666666667	1	0.7578125
2673.888671875	0.00833333333333333	0	30	2.17708333333333	1	0.58203125
2676.771484375	0.00833333333333333	0	-30	-6.52291666666667	1	0.84375
2679.9970703125	0.00833333333333333	0	-30	-6.52291666666667	1	0.9296875
2682.9970703125	0.00833333333333333	0	30	2.30208333333333	1	0.8818359375
2686.146484375	0.00833333333333333	0	30	2.30208333333333	1	0.6845703125
2688.87109375	0.00833333333333333	0	-30	-6.52291666666667	1	0.8330078125
2692.138671875	0.00833333333333333	0	-30	-6.52291666666667	2	1.1728515625
2695.513671875	0.00833333333333333	0	30	2.30208333333333	2	1.189453125
2699.1796875	0.00833333333333333	0	-30	-6.52291666666667	2	1.0439453125
2702.7294921875	0.00833333333333333	0	-30	-6.52291666666667	2	0.7666015625
2705.671875	0.00833333333333333	0	-30	-6.52291666666667	2	0.935546875
2709.087890625	0.00833333333333333	0	-30	-6.52291666666667	1	0.83984375
2712.0380859375	0.00833333333333333	0	-30	-6.52291666666667	2	0.9052734375
2714.904296875	0.00833333333333333	0	-30	-6.52291666666667	1	1.0234375
2718.353515625	0.00833333333333333	0	30	2.30208333333333	2	0.638671875
2721.0458984375	0.00833333333333333	0	-30	-6.52291666666667	1	0.970703125
2724.37109375	0.00833333333333333	0	-30	-6.52291666666667	2	0.693359375
2727.1376953125	0.00833333333333333	0	-30	-6.52291666666667	2	0.6708984375
2729.845703125	0.00833333333333333	0	-30	-6.52291666666667	2	0.6435546875
2732.779296875	0.00833333333333333	0	30	2.30208333333333	2	0.845703125
2735.904296875	0.00833333333333333	0	30	2.30208333333333	2	0.6640625
2738.9365234375	0.00833333333333333	0	30	2.30208333333333	2	0.83984375
2742.1962890625	0.00833333333333333	0	30	2.17708333333333	2	1.1484375
2745.6875	0.00833333333333333	0	-30	-6.52291666666667	2	0.6337890625
2748.787109375	0.00833333333333333	0	30	2.17708333333333	2	0.662109375
2751.6044921875	0.00833333333333333	0	-30	-6.52291666666667	1	0.9970703125
2754.9033203125	0.00833333333333333	0	30	2.17708333333333	2	0.7138671875
2757.9287109375	0.00833333333333333	0	-30	-6.52291666666667	2	0.7529296875
2760.7119140625	0.00833333333333333	0	-30	-6.52291666666667	2	0.5615234375
2763.7041015625	0.00833333333333333	0	-30	-6.52291666666667	1	1.0498046875
2766.787109375	0.00833333333333333	0	-30	-6.52291666666667	2	0.7900390625
2769.9208984375	0.00833333333333333	0	30	2.17708333333333	2	0.880859375
2772.912109375	0.00833333333333333	0	30	2.17708333333333	2	0.841796875
2776.1201171875	0.00833333333333333	0	30	2.05208333333333	1	1.001953125
2779.37890625	0.00833333333333333	0	-30	-6.52291666666667	2	1.2626953125
2783.00390625	0.00833333333333333	0	30	2.05208333333333	2	0.7021484375
2786.12890625	0.00833333333333333	0	-30	-6.52291666666667	1	0.9375
2789.103515625	0.00833333333333333	0	30	2.05208333333333	2	0.8505859375
2792.328125	0.00833333333333333	0	-30	-6.52291666666667	2	0.970703125
2795.744140625	0.00833333333333333	0	30	2.05208333333333	1	1.634765625
2799.4951171875	0.00833333333333333	0	30	2.05208333333333	1	1.763671875
2803.619140625	0.00833333333333333	0	-30	-6.52291666666667	2	0.6640625
2806.4619140625	0.00833333333333333	0	-30	-6.52291666666667	1	0.716796875
2809.4951171875	0.00833333333333333	0	-30	-6.52291666666667	1	0.8837890625
2812.6943359375	0.00833333333333333	0	-30	-6.52291666666667	2	0.8603515625
2815.6357421875	0.00833333333333333	0	-30	-6.52291666666667	1	0.86328125
2818.6943359375	0.00833333333333333	0	-30	-6.52291666666667	1	1.3818359375
2822.51953125	0.00833333333333333	0	-30	-6.52291666666667	2	1.484375
2826.3193359375	0.00833333333333333	0	30	2.05208333333333	1	0.65234375
2829.39453125	0.00833333333333333	0	30	2.05208333333333	1	0.857421875
2832.427734375	0.00833333333333333	0	-30	-6.52291666666667	2	0.7275390625
2835.4189453125	0.00833333333333333	0	30	2.05208333333333	2	0.880859375
2838.4609375	0.00833333333333333	0	30	2.05208333333333	1	0.958984375
2841.501953125	0.00833333333333333	0	30	2.05208333333333	1	0.9736328125
2844.5185546875	0.00833333333333333	0	30	2.05208333333333	2	1.189453125
2847.8603515625	0.00833333333333333	0	30	2.05208333333333	2	1.431640625
2851.39453125	0.00833333333333333	0	-30	-6.52291666666667	2	1.0654296875
2854.7685546875	0.00833333333333333	0	-30	-6.52291666666667	1	0.8037109375
2857.6611328125	0.00833333333333333	0	30	2.05208333333333	1	1.5751953125
2861.568359375	0.00833333333333333	0	-30	-6.52291666666667	1	0.724609375
2864.619140625	0.00833333333333333	0	-30	-6.52291666666667	1	0.8251953125
2867.6103515625	0.00833333333333333	0	30	2.05208333333333	1	1.1142578125
2870.9443359375	0.00833333333333333	0	30	2.05208333333333	2	0.796875
2873.876953125	0.00833333333333333	0	30	2.05208333333333	1	0.7763671875
2876.9521484375	0.00833333333333333	0	-30	-6.52291666666667	1	0.7646484375
2880.185546875	0.00833333333333333	0	-30	-6.52291666666667	1	0.611328125
2883.1015625	0.00833333333333333	0	-30	-6.39791666666667	1	1.4560546875
2886.701171875	0.00833333333333333	0	-30	-6.39791666666667	1	0.83984375
2889.9345703125	0.00833333333333333	0	-30	-6.39791666666667	1	0.951171875
2893.001953125	0.00833333333333333	0	-30	-6.39791666666667	1	0.916015625
2908.2841796875	0.00833333333333333	0	-30	-6.39791666666667	2	1.07421875
2911.376953125	0.00833333333333333	0	30	2.05208333333333	1	0.7177734375
2914.16015625	0.00833333333333333	0	30	2.05208333333333	1	0.90234375
2917.1435546875	0.00833333333333333	0	30	2.05208333333333	1	0.5830078125
2920.1181640625	0.00833333333333333	0	30	2.05208333333333	1	0.640625
2923.0419921875	0.00833333333333333	0	30	2.17708333333333	1	0.7802734375
2926.1103515625	0.00833333333333333	0	-30	-6.39791666666667	1	0.6171875
2928.9677734375	0.00833333333333333	0	-30	-6.39791666666667	1	0.6552734375
2931.876953125	0.00833333333333333	0	30	2.17708333333333	1	0.5703125
2934.884765625	0.00833333333333333	0	-30	-6.39791666666667	1	0.650390625
2937.80859375	0.00833333333333333	0	30	2.17708333333333	1	0.822265625
2941.04296875	0.00833333333333333	0	30	2.17708333333333	1	0.587890625
2944.134765625	0.00833333333333333	0	-30	-6.39791666666667	2	0.6650390625
2947.142578125	0.00833333333333333	0	-30	-6.39791666666667	2	0.5927734375
2950.0927734375	0.00833333333333333	0	-30	-6.39791666666667	2	0.5869140625
2952.67578125	0.00833333333333333	0	30	2.17708333333333	1	1.171875
2956.0341796875	0.00833333333333333	0	30	2.30208333333333	2	0.8935546875
2958.9755859375	0.00833333333333333	0	-30	-6.39791666666667	2	0.7998046875
2961.7509765625	0.00833333333333333	0	30	2.30208333333333	1	1.0087890625
2964.80078125	0.00833333333333333	0	30	2.30208333333333	2	0.8876953125
2967.7265625	0.00833333333333333	0	30	2.30208333333333	2	0.6650390625
2970.7763671875	0.00833333333333333	0	30	2.30208333333333	2	0.6640625
2973.5341796875	0.00833333333333333	0	30	2.30208333333333	2	0.6181640625
2976.6005859375	0.00833333333333333	0	-30	-6.39791666666667	1	0.6796875
2979.4345703125	0.00833333333333333	0	-30	-6.39791666666667	2	0.7734375
2982.25	0.00833333333333333	0	-30	-6.39791666666667	1	1.119140625
2985.4423828125	0.00833333333333333	0	30	2.30208333333333	2	1.0302734375
2988.900390625	0.00833333333333333	0	-30	-6.39791666666667	1	0.7490234375
2991.775390625	0.00833333333333333	0	30	2.17708333333333	1	0.5458984375
2994.5927734375	0.00833333333333333	0	-30	-6.39791666666667	1	0.736328125
2997.6005859375	0.00833333333333333	0	-30	-6.39791666666667	1	0.7763671875
3000.6669921875	0.00833333333333333	0	30	2.17708333333333	2	1.4541015625
3004.1591796875	0.00833333333333333	0	30	2.17708333333333	1	0.74609375
3007.216796875	0.00833333333333333	0	30	2.17708333333333	1	1.14453125
3010.591796875	0.00833333333333333	0	30	2.17708333333333	2	0.857421875
3013.6171875	0.00833333333333333	0	-30	-6.39791666666667	1	0.83984375
3016.7333984375	0.00833333333333333	0	30	2.17708333333333	1	0.724609375
3019.7333984375	0.00833333333333333	0	-30	-6.27291666666667	2	0.9482421875
3023.025390625	0.00833333333333333	0	-30	-6.27291666666667	1	0.8408203125
3025.9921875	0.00833333333333333	0	-30	-6.27291666666667	2	1.8984375
3030.31640625	0.00833333333333333	0	30	2.17708333333333	1	0.7734375
3033.5078125	0.00833333333333333	0	-30	-6.27291666666667	1	0.7021484375
3036.5498046875	0.00833333333333333	0	30	2.17708333333333	1	1.98828125
3040.8583984375	0.00833333333333333	0	-30	-6.27291666666667	1	0.8720703125
3044.099609375	0.00833333333333333	0	30	2.17708333333333	2	0.9111328125
3047.1318359375	0.00833333333333333	0	30	2.17708333333333	1	1.2705078125
3050.44140625	0.00833333333333333	0	30	2.17708333333333	2	0.953125
3053.849609375	0.00833333333333333	0	30	2.17708333333333	2	0.8251953125
3056.8408203125	0.00833333333333333	0	-30	-6.27291666666667	2	0.72265625
3059.541015625	0.00833333333333333	0	30	2.17708333333333	1	1.1103515625
3062.7666015625	0.00833333333333333	0	30	2.17708333333333	1	0.64453125
3065.666015625	0.00833333333333333	0	-30	-6.27291666666667	2	0.9296875
3068.9912109375	0.00833333333333333	0	-30	-6.27291666666667	1	0.724609375
3072.0244140625	0.00833333333333333	0	-30	-6.27291666666667	1	0.8349609375
3074.9990234375	0.00833333333333333	0	-30	-6.27291666666667	1	0.64453125
3078.06640625	0.00833333333333333	0	-30	-6.27291666666667	1	0.80078125
3081.3818359375	0.00833333333333333	0	-30	-6.27291666666667	1	0.7822265625
3084.291015625	0.00833333333333333	0	30	2.17708333333333	1	1.4404296875
3088.224609375	0.00833333333333333	0	30	2.17708333333333	2	1.107421875
3091.4150390625	0.00833333333333333	0	30	2.17708333333333	2	0.693359375
3094.357421875	0.00833333333333333	0	30	2.17708333333333	2	1.1748046875
3097.806640625	0.00833333333333333	0	30	2.17708333333333	1	0.7255859375
3100.7412109375	0.00833333333333333	0	-30	-6.14791666666667	2	0.6787109375
3103.5078125	0.00833333333333333	0	30	2.17708333333333	1	0.625
3106.57421875	0.00833333333333333	0	30	2.17708333333333	1	0.8466796875
3109.6728515625	0.00833333333333333	0	-30	-6.14791666666667	2	0.6435546875
3112.7490234375	0.00833333333333333	0	30	2.17708333333333	1	0.6240234375
3115.7734375	0.00833333333333333	0	30	2.17708333333333	1	0.599609375
3118.806640625	0.00833333333333333	0	30	2.30208333333333	1	1.0224609375
3122.056640625	0.00833333333333333	0	30	2.30208333333333	2	1.0126953125
3125.1572265625	0.00833333333333333	0	30	2.30208333333333	1	0.576171875
3127.8232421875	0.00833333333333333	0	-30	-6.14791666666667	2	0.91796875
3131.015625	0.00833333333333333	0	-30	-6.14791666666667	2	0.7021484375
3133.9482421875	0.00833333333333333	0	30	2.30208333333333	1	0.888671875
3137.0888671875	0.00833333333333333	0	-30	-6.14791666666667	2	0.8369140625
3140.3232421875	0.00833333333333333	0	-30	-6.27291666666667	2	1.08203125
3143.8974609375	0.00833333333333333	0	-30	-6.27291666666667	1	0.6845703125
3147.0146484375	0.00833333333333333	0	-30	-6.27291666666667	2	1.3349609375
3150.3896484375	0.00833333333333333	0	-30	-6.27291666666667	2	1.408203125
3153.873046875	0.00833333333333333	0	30	2.30208333333333	2	0.8291015625
3181.6806640625	0.00833333333333333	0	-30	-6.27291666666667	2	0.9501953125
3184.6982421875	0.00833333333333333	0	30	2.30208333333333	1	0.62109375
3187.814453125	0.00833333333333333	0	30	2.30208333333333	1	0.640625
3190.796875	0.00833333333333333	0	30	2.30208333333333	1	0.5224609375
3193.8642578125	0.00833333333333333	0	-30	-6.27291666666667	2	0.54296875
3196.421875	0.00833333333333333	0	-30	-6.27291666666667	2	0.5537109375
3199.4306640625	0.00833333333333333	0	30	2.30208333333333	1	0.6884765625
3202.3388671875	0.00833333333333333	0	30	2.30208333333333	1	0.548828125
3205.0146484375	0.00833333333333333	0	30	2.42708333333333	1	0.6806640625
3207.7470703125	0.00833333333333333	0	-30	-6.39791666666667	1	0.94921875
3210.939453125	0.00833333333333333	0	30	2.42708333333333	1	0.6044921875
3213.9970703125	0.00833333333333333	0	-30	-6.39791666666667	1	0.9306640625
3217.130859375	0.00833333333333333	0	-30	-6.39791666666667	1	0.693359375
3220.021484375	0.00833333333333333	0	-30	-6.39791666666667	1	0.8583984375
3223.263671875	0.00833333333333333	0	30	2.42708333333333	1	1.5048828125
3227.22265625	0.00833333333333333	0	30	2.42708333333333	1	0.609375
3230.171875	0.00833333333333333	0	-30	-6.39791666666667	2	1.2763671875
3233.513671875	0.00833333333333333	0	30	2.42708333333333	2	0.8310546875
3236.5390625	0.00833333333333333	0	-30	-6.39791666666667	1	0.998046875
3239.8720703125	0.00833333333333333	0	30	2.42708333333333	1	0.904296875
3242.8125	0.00833333333333333	0	-30	-6.39791666666667	2	1.2919921875
3246.3046875	0.00833333333333333	0	30	2.42708333333333	1	1.6005859375
3250.2138671875	0.00833333333333333	0	-30	-6.39791666666667	1	0.8515625
3253.4716796875	0.00833333333333333	0	30	2.42708333333333	2	0.78515625
3256.36328125	0.00833333333333333	0	-30	-6.39791666666667	1	0.8056640625
3259.5966796875	0.00833333333333333	0	-30	-6.39791666666667	1	1.5966796875
3263.646484375	0.00833333333333333	0	-30	-6.39791666666667	2	1.8349609375
3267.7626953125	0.00833333333333333	0	-30	-6.39791666666667	2	1.6953125
3271.5537109375	0.00833333333333333	0	-30	-6.39791666666667	2	2
3275.8623046875	0.00833333333333333	0	-30	-6.39791666666667	1	0.9716796875
3279.162109375	0.00833333333333333	0	30	2.42708333333333	1	0.7041015625
3281.955078125	0.00833333333333333	0	-30	-6.39791666666667	1	1.4072265625
3285.7294921875	0.00833333333333333	0	30	2.42708333333333	2	1.7685546875
3289.6044921875	0.00833333333333333	0	30	2.42708333333333	2	1.92578125
3293.9453125	0.00833333333333333	0	-30	-6.39791666666667	2	0.849609375
3297.23828125	0.00833333333333333	0	30	2.42708333333333	2	0.7958984375
3300.404296875	0.00833333333333333	0	-30	-6.39791666666667	2	2.0146484375
3304.7451171875	0.00833333333333333	0	30	2.42708333333333	2	1.1298828125
3308.0048828125	0.00833333333333333	0	-30	-6.39791666666667	2	0.7421875
3311.2041015625	0.00833333333333333	0	30	2.42708333333333	2	1.0546875
3314.2958984375	0.00833333333333333	0	30	2.30208333333333	2	1.5234375
3318.1376953125	0.00833333333333333	0	-30	-6.39791666666667	2	0.77734375
3321.353515625	0.00833333333333333	0	30	2.30208333333333	2	0.8505859375
3324.2626953125	0.00833333333333333	0	-30	-6.39791666666667	2	1.373046875
3327.6787109375	0.00833333333333333	0	30	2.30208333333333	2	2.3251953125
3332.2958984375	0.00833333333333333	0	-30	-6.52291666666667	1	0.8525390625
3335.595703125	0.00833333333333333	0	30	2.30208333333333	1	1.240234375
3338.9619140625	0.00833333333333333	0	30	2.30208333333333	2	1.3857421875
3342.669921875	0.00833333333333333	0	-30	-6.52291666666667	2	1.1103515625
3345.9453125	0.00833333333333333	0	-30	-6.52291666666667	2	1.37890625
3349.404296875	0.00833333333333333	0	-30	-6.52291666666667	2	1.255859375
3352.75390625	0.00833333333333333	0	30	2.30208333333333	2	0.978515625
3355.919921875	0.00833333333333333	0	30	2.30208333333333	2	1.220703125
3359.544921875	0.00833333333333333	0	30	2.30208333333333	2	1.1318359375
3362.6943359375	0.00833333333333333	0	-30	-6.52291666666667	2	0.89453125
3365.728515625	0.00833333333333333	0	30	2.30208333333333	1	0.96484375
3369.1533203125	0.00833333333333333	0	-30	-6.52291666666667	2	0.9873046875
3372.5615234375	0.00833333333333333	0	30	2.30208333333333	1	0.763671875
3375.51953125	0.00833333333333333	0	-30	-6.64791666666667	1	0.8857421875
3378.89453125	0.00833333333333333	0	30	2.30208333333333	1	0.6552734375
3381.8447265625	0.00833333333333333	0	30	2.30208333333333	2	1.0009765625
3384.89453125	0.00833333333333333	0	30	2.30208333333333	1	1.6953125
3388.76171875	0.00833333333333333	0	30	2.30208333333333	1	1.1240234375
3392.0869140625	0.00833333333333333	0	30	2.30208333333333	1	0.5986328125
3394.9111328125	0.00833333333333333	0	-30	-6.64791666666667	2	0.654296875
3397.5947265625	0.00833333333333333	0	-30	-6.64791666666667	1	0.7314453125
3400.51953125	0.00833333333333333	0	30	2.30208333333333	2	0.990234375
3403.5615234375	0.00833333333333333	0	-30	-6.64791666666667	1	0.8447265625
3406.4951171875	0.00833333333333333	0	-30	-6.64791666666667	1	0.759765625
3409.669921875	0.00833333333333333	0	-30	-6.64791666666667	1	2.2080078125
3414.2529296875	0.00833333333333333	0	30	2.30208333333333	2	1.001953125
3417.328125	0.00833333333333333	0	-30	-6.64791666666667	1	0.7587890625
3420.0615234375	0.00833333333333333	0	-30	-6.52291666666667	1	0.720703125
3423.03515625	0.00833333333333333	0	30	2.30208333333333	2	0.7958984375
3426.2861328125	0.00833333333333333	0	30	2.30208333333333	2	0.80859375
3429.3447265625	0.00833333333333333	0	30	2.30208333333333	2	1.0625
3432.90234375	0.00833333333333333	0	-30	-6.52291666666667	1	0.80078125
3435.935546875	0.00833333333333333	0	30	2.17708333333333	2	0.8232421875
3438.869140625	0.00833333333333333	0	30	2.17708333333333	1	1.1298828125
3442.3935546875	0.00833333333333333	0	30	2.17708333333333	2	0.8056640625
3474.77734375	0.00833333333333333	0	30	2.17708333333333	1	1.52734375
3478.34375	0.00833333333333333	0	30	2.17708333333333	1	2.048828125
3482.509765625	0.00833333333333333	0	-30	-6.52291666666667	2	0.70703125
3485.685546875	0.00833333333333333	0	-30	-6.52291666666667	1	0.9716796875
3489.0185546875	0.00833333333333333	0	30	2.17708333333333	1	0.6142578125
3491.7265625	0.00833333333333333	0	30	2.17708333333333	1	1.1220703125
3494.9267578125	0.00833333333333333	0	30	2.17708333333333	1	1.001953125
3498.2685546875	0.00833333333333333	0	30	2.30208333333333	1	0.8369140625
3501.1845703125	0.00833333333333333	0	-30	-6.52291666666667	1	0.9365234375
3504.576171875	0.00833333333333333	0	-30	-6.52291666666667	1	1.3056640625
3508.076171875	0.00833333333333333	0	-30	-6.52291666666667	1	0.701171875
3511.068359375	0.00833333333333333	0	30	2.30208333333333	1	1.052734375
3514.576171875	0.00833333333333333	0	30	2.30208333333333	1	0.7294921875
3517.29296875	0.00833333333333333	0	30	2.30208333333333	1	1.5810546875
3521.009765625	0.00833333333333333	0	-30	-6.52291666666667	2	0.912109375
3524.1259765625	0.00833333333333333	0	30	2.30208333333333	1	1.2998046875
3527.5263671875	0.00833333333333333	0	-30	-6.52291666666667	1	1.33203125
3530.9677734375	0.00833333333333333	0	-30	-6.52291666666667	2	1.2744140625
3534.2919921875	0.00833333333333333	0	-30	-6.52291666666667	1	0.830078125
3537.3095703125	0.00833333333333333	0	-30	-6.52291666666667	2	1.9169921875
3541.29296875	0.00833333333333333	0	30	2.42708333333333	2	0.7978515625
3544.267578125	0.00833333333333333	0	-30	-6.52291666666667	2	0.7431640625
3547.29296875	0.00833333333333333	0	-30	-6.52291666666667	2	0.853515625
3550.3251953125	0.00833333333333333	0	30	2.42708333333333	2	0.6943359375
3553.150390625	0.00833333333333333	0	30	2.42708333333333	2	0.64453125
3555.984375	0.00833333333333333	0	-30	-6.52291666666667	2	0.5947265625
3559.025390625	0.00833333333333333	0	30	2.42708333333333	2	0.865234375
3562.333984375	0.00833333333333333	0	-30	-6.52291666666667	2	0.693359375
3565.19140625	0.00833333333333333	0	30	2.42708333333333	1	1.1640625
3568.833984375	0.00833333333333333	0	30	2.42708333333333	2	0.849609375
3572.0087890625	0.00833333333333333	0	-30	-6.64791666666667	1	0.9384765625
3575.1337890625	0.00833333333333333	0	30	2.42708333333333	2	1.9814453125
3579.541015625	0.00833333333333333	0	-30	-6.64791666666667	2	0.638671875
3582.3916015625	0.00833333333333333	0	-30	-6.64791666666667	1	0.740234375
3585.533203125	0.00833333333333333	0	-30	-6.64791666666667	1	0.7666015625
3588.3837890625	0.00833333333333333	0	30	2.42708333333333	1	0.9326171875
3591.400390625	0.00833333333333333	0	30	2.42708333333333	1	1.275390625
3594.8671875	0.00833333333333333	0	30	2.42708333333333	1	0.873046875
3598.1162109375	0.00833333333333333	0	-30	-6.64791666666667	1	0.640625
3601.19921875	0.00833333333333333	0	30	2.42708333333333	1	0.94140625
3604.2333984375	0.00833333333333333	0	-30	-6.64791666666667	1	0.69140625
3606.9072265625	0.00833333333333333	0	30	2.42708333333333	1	0.5859375
3609.8828125	0.00833333333333333	0	30	2.55208333333333	2	0.986328125
3613.2578125	0.00833333333333333	0	30	2.55208333333333	2	1.2509765625
3616.7919921875	0.00833333333333333	0	-30	-6.64791666666667	1	0.6689453125
3619.9580078125	0.00833333333333333	0	-30	-6.52291666666667	1	0.6708984375
3622.8740234375	0.00833333333333333	0	-30	-6.52291666666667	1	0.68359375
3625.8916015625	0.00833333333333333	0	30	2.55208333333333	2	1.41015625
3629.56640625	0.00833333333333333	0	30	2.55208333333333	2	0.6787109375
3632.375	0.00833333333333333	0	-30	-6.52291666666667	2	1.0625
3635.474609375	0.00833333333333333	0	30	2.55208333333333	2	0.7392578125
3638.4326171875	0.00833333333333333	0	-30	-6.52291666666667	1	0.796875
3641.6494140625	0.00833333333333333	0	-30	-6.52291666666667	2	0.8046875
3644.5986328125	0.00833333333333333	0	-30	-6.52291666666667	2	1.375
3648.099609375	0.00833333333333333	0	-30	-6.52291666666667	1	0.7626953125
3651.0576171875	0.00833333333333333	0	-30	-6.52291666666667	1	0.7080078125
3653.849609375	0.00833333333333333	0	30	2.42708333333333	1	0.8291015625
3656.8408203125	0.00833333333333333	0	-30	-6.52291666666667	1	0.654296875
3659.6572265625	0.00833333333333333	0	30	2.42708333333333	1	0.548828125
3662.3828125	0.00833333333333333	0	-30	-6.52291666666667	1	0.6640625
3665.265625	0.00833333333333333	0	30	2.42708333333333	1	0.7568359375
3668.3408203125	0.00833333333333333	0	30	2.42708333333333	1	2.40234375
3672.7822265625	0.00833333333333333	0	30	2.42708333333333	2	0.8564453125
3675.9658203125	0.00833333333333333	0	30	2.42708333333333	1	0.79296875
3678.791015625	0.00833333333333333	0	30	2.42708333333333	1	1.0634765625
3682.3154296875	0.00833333333333333	0	30	2.42708333333333	2	0.8994140625
3685.5244140625	0.00833333333333333	0	30	2.42708333333333	2	1.115234375
3688.83203125	0.00833333333333333	0	30	2.42708333333333	2	0.71875
3691.78125	0.00833333333333333	0	30	2.42708333333333	2	0.76171875
3694.865234375	0.00833333333333333	0	30	2.42708333333333	1	1.134765625
3698.5068359375	0.00833333333333333	0	-30	-6.52291666666667	1	0.7646484375
3701.3740234375	0.00833333333333333	0	30	2.42708333333333	1	0.5859375
3704.048828125	0.00833333333333333	0	30	2.42708333333333	1	1.0546875
3707.3818359375	0.00833333333333333	0	-30	-6.39791666666667	2	1.08203125
3710.673828125	0.00833333333333333	0	-30	-6.39791666666667	1	0.7265625
3713.4638671875	0.00833333333333333	0	-30	-6.39791666666667	2	1.216796875
3716.85546875	0.00833333333333333	0	30	2.42708333333333	2	0.9365234375
3720.08203125	0.00833333333333333	0	-30	-6.39791666666667	1	0.654296875
3722.8984375	0.00833333333333333	0	30	2.42708333333333	1	0.662109375
3725.814453125	0.00833333333333333	0	30	2.42708333333333	1	0.6982421875
3746.6982421875	0.00833333333333333	0	30	2.42708333333333	1	0.791015625
3749.83984375	0.00833333333333333	0	30	2.42708333333333	1	0.7373046875
3752.8564453125	0.00833333333333333	0	30	2.42708333333333	1	1.033203125
3756.0390625	0.00833333333333333	0	-30	-6.39791666666667	1	0.7705078125
3759.2216796875	0.00833333333333333	0	-30	-6.39791666666667	1	0.7080078125
3762.1142578125	0.00833333333333333	0	-30	-6.39791666666667	1	0.6474609375
3764.7724609375	0.00833333333333333	0	-30	-6.39791666666667	1	0.7333984375
3767.5888671875	0.00833333333333333	0	30	2.55208333333333	1	0.732421875
3770.34765625	0.00833333333333333	0	-30	-6.27291666666667	1	0.7421875
3773.123046875	0.00833333333333333	0	-30	-6.27291666666667	1	0.966796875
3776.314453125	0.00833333333333333	0	-30	-6.27291666666667	1	0.615234375
3779.123046875	0.00833333333333333	0	30	2.55208333333333	1	0.8466796875
3782.0390625	0.00833333333333333	0	30	2.55208333333333	1	0.7470703125
3784.9228515625	0.00833333333333333	0	-30	-6.27291666666667	1	0.759765625
3788.0390625	0.00833333333333333	0	-30	-6.27291666666667	1	0.755859375
3790.9794921875	0.00833333333333333	0	30	2.55208333333333	1	0.638671875
3793.921875	0.00833333333333333	0	-30	-6.14791666666667	1	0.6962890625
3796.9140625	0.00833333333333333	0	30	2.55208333333333	1	0.6484375
3799.5888671875	0.00833333333333333	0	-30	-6.14791666666667	1	0.90234375
3802.9970703125	0.00833333333333333	0	-30	-6.14791666666667	1	0.7177734375
3805.947265625	0.00833333333333333	0	-30	-6.14791666666667	1	0.65625
3808.6640625	0.00833333333333333	0	-30	-6.14791666666667	1	0.779296875
3811.6298828125	0.00833333333333333	0	-30	-6.02291666666667	1	0.9169921875
3814.5966796875	0.00833333333333333	0	30	2.67708333333333	2	0.990234375
3817.921875	0.00833333333333333	0	30	2.67708333333333	2	0.7939453125
3821.1630859375	0.00833333333333333	0	-30	-6.02291666666667	1	0.6962890625
3824.3046875	0.00833333333333333	0	-30	-6.02291666666667	1	0.6904296875
3827.013671875	0.00833333333333333	0	30	2.67708333333333	2	0.765625
3830.2470703125	0.00833333333333333	0	-30	-6.02291666666667	2	1.1416015625
3833.4130859375	0.00833333333333333	0	-30	-6.02291666666667	2	0.6552734375
3836.4296875	0.00833333333333333	0	30	2.67708333333333	1	1.4150390625
3840.0712890625	0.00833333333333333	0	-30	-6.02291666666667	1	0.7646484375
3842.962890625	0.00833333333333333	0	-30	-6.02291666666667	2	0.6572265625
3845.7802734375	0.00833333333333333	0	30	2.67708333333333	2	0.759765625
3848.8037109375	0.00833333333333333	0	30	2.67708333333333	2	0.873046875
3852.154296875	0.00833333333333333	0	-30	-6.02291666666667	2	1.2021484375
3855.6708984375	0.00833333333333333	0	30	2.67708333333333	1	0.837890625
3858.98828125	0.00833333333333333	0	-30	-6.02291666666667	1	1.15234375
3862.6376953125	0.00833333333333333	0	30	2.67708333333333	2	0.6474609375
3865.3544921875	0.00833333333333333	0	30	2.67708333333333	2	1.4580078125
3868.962890625	0.00833333333333333	0	30	2.67708333333333	1	1.74609375
3872.9453125	0.00833333333333333	0	-30	-6.02291666666667	2	0.6435546875
3875.6708984375	0.00833333333333333	0	-30	-6.02291666666667	2	0.55859375
3878.294921875	0.00833333333333333	0	30	2.67708333333333	1	0.982421875
3881.6455078125	0.00833333333333333	0	30	2.67708333333333	2	0.744140625
3884.6455078125	0.00833333333333333	0	-30	-6.02291666666667	2	0.712890625
3887.5791015625	0.00833333333333333	0	-30	-6.02291666666667	2	0.5947265625
3890.212890625	0.00833333333333333	0	-30	-6.02291666666667	2	0.865234375
3893.13671875	0.00833333333333333	0	30	2.67708333333333	1	0.5810546875
3896.220703125	0.00833333333333333	0	-30	-6.14791666666667	2	0.7294921875
3899.37109375	0.00833333333333333	0	-30	-6.14791666666667	2	0.626953125
3902.087890625	0.00833333333333333	0	-30	-6.14791666666667	2	0.6142578125
3904.978515625	0.00833333333333333	0	30	2.67708333333333	2	0.8359375
3908.220703125	0.00833333333333333	0	-30	-6.14791666666667	1	1.505859375
3912.0869140625	0.00833333333333333	0	30	2.67708333333333	2	0.8232421875
3915.1787109375	0.00833333333333333	0	30	2.67708333333333	1	1.01171875
3918.345703125	0.00833333333333333	0	30	2.67708333333333	2	0.8369140625
3921.619140625	0.00833333333333333	0	-30	-6.14791666666667	2	0.5556640625
3924.3623046875	0.00833333333333333	0	30	2.67708333333333	2	0.62890625
3927.4453125	0.00833333333333333	0	30	2.67708333333333	2	0.6103515625
3930.3369140625	0.00833333333333333	0	-30	-6.14791666666667	2	0.58984375
3933.0439453125	0.00833333333333333	0	30	2.67708333333333	2	0.595703125
3935.978515625	0.00833333333333333	0	-30	-6.14791666666667	2	0.5732421875
3939.0205078125	0.00833333333333333	0	30	2.67708333333333	2	0.931640625
3942.26171875	0.00833333333333333	0	-30	-6.14791666666667	1	0.6337890625
3945.3447265625	0.00833333333333333	0	30	2.55208333333333	2	1.3671875
3949.0947265625	0.00833333333333333	0	30	2.55208333333333	1	0.8564453125
3952.1201171875	0.00833333333333333	0	30	2.55208333333333	2	0.7119140625
3955.111328125	0.00833333333333333	0	30	2.55208333333333	2	0.80859375
3958.2197265625	0.00833333333333333	0	-30	-6.14791666666667	1	0.6611328125
3961.2529296875	0.00833333333333333	0	-30	-6.14791666666667	2	0.6669921875
3964.01953125	0.00833333333333333	0	-30	-6.14791666666667	2	1.884765625
3967.927734375	0.00833333333333333	0	30	2.55208333333333	1	1.3369140625
3971.4521484375	0.00833333333333333	0	-30	-6.14791666666667	1	0.6201171875
3974.26171875	0.00833333333333333	0	30	2.55208333333333	1	0.6513671875
3977.1103515625	0.00833333333333333	0	30	2.55208333333333	1	2.5068359375
3981.7607421875	0.00833333333333333	0	30	2.55208333333333	2	0.81640625
3984.7109375	0.00833333333333333	0	-30	-6.14791666666667	1	0.833984375
3987.927734375	0.00833333333333333	0	-30	-6.14791666666667	2	1.185546875
3991.369140625	0.00833333333333333	0	30	2.55208333333333	2	0.8798828125
4009.177734375	0.00833333333333333	0	30	2.55208333333333	1	1.0078125
4012.3017578125	0.00833333333333333	0	30	2.55208333333333	1	0.66015625
4015.3271484375	0.00833333333333333	0	30	2.55208333333333	1	0.7705078125
4018.3525390625	0.00833333333333333	0	-30	-6.14791666666667	1	0.7138671875
4021.2607421875	0.00833333333333333	0	-30	-6.14791666666667	1	0.6455078125
4024.2109375	0.00833333333333333	0	30	2.55208333333333	1	0.5751953125
4027.2021484375	0.00833333333333333	0	-30	-6.14791666666667	1	0.6884765625
4029.943359375	0.00833333333333333	0	30	2.55208333333333	1	0.72265625
4032.8857421875	0.00833333333333333	0	-30	-6.14791666666667	1	0.97265625
4036.244140625	0.00833333333333333	0	-30	-6.14791666666667	1	0.7099609375
4039.1689453125	0.00833333333333333	0	30	2.67708333333333	1	0.7294921875
4041.951171875	0.00833333333333333	0	-30	-6.02291666666667	1	1.9873046875
4046.384765625	0.00833333333333333	0	-30	-6.02291666666667	1	0.7783203125
4049.4853515625	0.00833333333333333	0	30	2.67708333333333	1	0.7900390625
4052.5771484375	0.00833333333333333	0	-30	-6.02291666666667	1	0.74609375
4055.560546875	0.00833333333333333	0	-30	-6.02291666666667	1	0.626953125
4058.376953125	0.00833333333333333	0	30	2.67708333333333	1	0.9140625
4061.568359375	0.00833333333333333	0	30	2.67708333333333	2	0.8828125
4064.8427734375	0.00833333333333333	0	-30	-6.02291666666667	1	1.6806640625
4068.8173828125	0.00833333333333333	0	30	2.67708333333333	2	0.8740234375
4071.9599609375	0.00833333333333333	0	-30	-5.89791666666667	1	0.611328125
4074.859375	0.00833333333333333	0	-30	-5.89791666666667	1	0.6962890625
4078.0009765625	0.00833333333333333	0	-30	-5.89791666666667	2	0.6669921875
4080.91015625	0.00833333333333333	0	30	2.67708333333333	1	0.75
4083.642578125	0.00833333333333333	0	-30	-5.89791666666667	1	0.857421875
4086.8759765625	0.00833333333333333	0	-30	-5.89791666666667	1	0.6162109375
4089.5927734375	0.00833333333333333	0	-30	-5.89791666666667	1	1.5712890625
4093.642578125	0.00833333333333333	0	30	2.67708333333333	1	0.6337890625
4096.326171875	0.00833333333333333	0	-30	-5.89791666666667	1	0.998046875
4099.6845703125	0.00833333333333333	0	30	2.67708333333333	1	0.52734375
4102.3759765625	0.00833333333333333	0	30	2.67708333333333	1	1.5087890625
4106.30859375	0.00833333333333333	0	30	2.67708333333333	1	1.2958984375
4109.951171875	0.00833333333333333	0	30	2.80208333333333	1	1.701171875
4113.984375	0.00833333333333333	0	-30	-5.89791666666667	2	0.6689453125
4117.017578125	0.00833333333333333	0	30	2.80208333333333	1	0.70703125
4119.92578125	0.00833333333333333	0	-30	-5.89791666666667	2	0.607421875
4122.767578125	0.00833333333333333	0	-30	-5.89791666666667	1	0.8212890625
4125.6748046875	0.00833333333333333	0	-30	-5.89791666666667	2	0.5625
4128.517578125	0.00833333333333333	0	30	2.80208333333333	1	1.3837890625
4132.400390625	0.00833333333333333	0	30	2.80208333333333	2	1.2373046875
4135.9501953125	0.00833333333333333	0	30	2.80208333333333	2	0.6640625
4138.80078125	0.00833333333333333	0	-30	-5.89791666666667	1	0.7734375
4141.8505859375	0.00833333333333333	0	30	2.80208333333333	2	0.6435546875
4144.55859375	0.00833333333333333	0	30	2.80208333333333	2	0.8310546875
4147.6005859375	0.00833333333333333	0	30	2.80208333333333	2	0.7255859375
4150.8173828125	0.00833333333333333	0	-30	-5.89791666666667	2	0.62890625
4153.658203125	0.00833333333333333	0	30	2.67708333333333	2	0.7724609375
4156.966796875	0.00833333333333333	0	30	2.67708333333333	2	0.9990234375
4160.3916015625	0.00833333333333333	0	-30	-5.89791666666667	1	1.2548828125
4163.8671875	0.00833333333333333	0	-30	-5.89791666666667	1	0.6513671875
4166.775390625	0.00833333333333333	0	-30	-5.89791666666667	2	0.8955078125
4169.8837890625	0.00833333333333333	0	30	2.67708333333333	2	0.6748046875
4172.69140625	0.00833333333333333	0	-30	-5.89791666666667	2	0.5791015625
4175.765625	0.00833333333333333	0	30	2.67708333333333	2	0.6171875
4178.7001953125	0.00833333333333333	0	30	2.67708333333333	2	0.73046875
4181.591796875	0.00833333333333333	0	-30	-5.89791666666667	1	0.759765625
4184.716796875	0.00833333333333333	0	30	2.55208333333333	2	0.658203125
4187.541015625	0.00833333333333333	0	30	2.55208333333333	2	0.75390625
4190.541015625	0.00833333333333333	0	30	2.55208333333333	1	1.154296875
4193.7333984375	0.00833333333333333	0	-30	-5.89791666666667	2	0.9140625
4197.0498046875	0.00833333333333333	0	-30	-5.89791666666667	2	1.0302734375
4200.466796875	0.00833333333333333	0	-30	-5.89791666666667	2	1.029296875
4203.6494140625	0.00833333333333333	0	-30	-5.89791666666667	2	0.662109375
4206.69921875	0.00833333333333333	0	-30	-5.89791666666667	2	0.6123046875
4209.6240234375	0.00833333333333333	0	30	2.55208333333333	2	0.6884765625
4212.7578125	0.00833333333333333	0	30	2.55208333333333	2	0.986328125
4216.048828125	0.00833333333333333	0	-30	-6.02291666666667	2	0.7109375
4218.82421875	0.00833333333333333	0	30	2.55208333333333	2	0.568359375
4221.673828125	0.00833333333333333	0	30	2.55208333333333	1	0.9580078125
4224.673828125	0.00833333333333333	0	30	2.55208333333333	1	0.87109375
4227.740234375	0.00833333333333333	0	-30	-6.02291666666667	1	0.9560546875
4230.9912109375	0.00833333333333333	0	-30	-6.02291666666667	1	0.9453125
4234.349609375	0.00833333333333333	0	30	2.55208333333333	1	0.7548828125
4237.6328125	0.00833333333333333	0	-30	-6.02291666666667	2	0.919921875
4240.939453125	0.00833333333333333	0	30	2.55208333333333	2	0.94921875
4244.2744140625	0.00833333333333333	0	30	2.55208333333333	2	0.9990234375
4247.666015625	0.00833333333333333	0	-30	-6.02291666666667	1	1.19921875
4250.9990234375	0.00833333333333333	0	-30	-6.02291666666667	1	0.9306640625
4254.2734375	0.00833333333333333	0	-30	-6.02291666666667	1	0.6640625
4257.2568359375	0.00833333333333333	0	-30	-6.02291666666667	1	0.736328125
