onset	duration	titr	surround	centre	response	rt
12.3544921875	0.00833333333333333	1	-30	15	1	13.138671875
27.9873046875	0.00833333333333333	1	30	15	1	6.5859375
37.12890625	0.00833333333333333	1	-30	16	2	0.009765625
39.2783203125	0.00833333333333333	1	NaN	15	2	1.783203125
43.177734375	0.00833333333333333	1	-30	-15	1	1.8193359375
47.1533203125	0.00833333333333333	1	-30	15	2	1.220703125
50.5205078125	0.00833333333333333	1	NaN	14	2	1.029296875
53.787109375	0.00833333333333333	1	NaN	-15	1	0.7705078125
56.8193359375	0.00833333333333333	1	NaN	13	2	0.9150390625
60.228515625	0.00833333333333333	1	30	16	1	42.7626953125
105.39453125	0.00833333333333333	1	30	-15	1	0.8369140625
108.7275390625	0.00833333333333333	1	NaN	12	2	0.6884765625
111.5771484375	0.00833333333333333	1	30	-14	1	0.654296875
114.3271484375	0.00833333333333333	1	-30	-14	2	1.392578125
117.810546875	0.00833333333333333	1	30	17	2	0.765625
121.0361328125	0.00833333333333333	1	30	16	1	0.99609375
124.0927734375	0.00833333333333333	1	NaN	11	2	0.68359375
127.0439453125	0.00833333333333333	1	-30	-15	1	1.1083984375
130.2685546875	0.00833333333333333	1	NaN	10	2	0.603515625
133.1943359375	0.00833333333333333	1	-30	14	2	0.5654296875
135.91015625	0.00833333333333333	1	30	17	2	0.7939453125
139.0849609375	0.00833333333333333	1	NaN	-14	1	0.6279296875
141.744140625	0.00833333333333333	1	-30	13	2	0.576171875
144.384765625	0.00833333333333333	1	-30	-14	1	0.8798828125
147.4521484375	0.00833333333333333	1	NaN	9	2	0.5166015625
150.2841796875	0.00833333333333333	1	NaN	-13	1	0.5888671875
153.3271484375	0.00833333333333333	1	30	16	2	0.5537109375
155.91796875	0.00833333333333333	1	NaN	-12	1	0.619140625
158.943359375	0.00833333333333333	1	30	-13	1	0.6416015625
161.693359375	0.00833333333333333	1	30	15	2	0.67578125
164.826171875	0.00833333333333333	1	-30	12	2	0.6875
167.693359375	0.00833333333333333	1	NaN	8	2	0.748046875
170.6171875	0.00833333333333333	1	-30	-13	1	1.3681640625
174.16796875	0.00833333333333333	1	-30	-12	1	1.2177734375
177.609375	0.00833333333333333	1	30	14	1	0.7919921875
180.54296875	0.00833333333333333	1	30	-12	1	0.69921875
183.66796875	0.00833333333333333	1	30	-11	1	0.685546875
186.3583984375	0.00833333333333333	1	NaN	7	2	0.6513671875
189.1513671875	0.00833333333333333	1	NaN	6	2	0.658203125
192.3349609375	0.00833333333333333	1	NaN	5	2	0.619140625
195.0927734375	0.00833333333333333	1	-30	11	2	0.5498046875
198.05859375	0.00833333333333333	1	NaN	4	2	0.6875
201.1416015625	0.00833333333333333	1	-30	-11	2	1.0126953125
204.333984375	0.00833333333333333	1	30	15	2	0.708984375
207.41796875	0.00833333333333333	1	30	-10	1	0.65625
210.451171875	0.00833333333333333	1	30	14	2	0.84765625
213.400390625	0.00833333333333333	1	30	-9	1	0.5625
216.3837890625	0.00833333333333333	1	-30	10	2	0.5634765625
219.474609375	0.00833333333333333	1	NaN	-11	1	0.6328125
222.6337890625	0.00833333333333333	1	30	13	2	0.7529296875
225.43359375	0.00833333333333333	1	-30	-12	1	0.76953125
228.5498046875	0.00833333333333333	1	NaN	3	1	0.7900390625
231.5927734375	0.00833333333333333	1	30	12	1	0.818359375
234.517578125	0.00833333333333333	1	NaN	4	1	0.7734375
237.3837890625	0.00833333333333333	1	NaN	5	2	0.603515625
240.1923828125	0.00833333333333333	1	NaN	-10	1	0.70703125
242.93359375	0.00833333333333333	1	-30	9	2	0.677734375
245.81640625	0.00833333333333333	1	NaN	4	1	0.8115234375
249.0830078125	0.00833333333333333	1	NaN	-9	1	0.6494140625
251.833984375	0.00833333333333333	1	NaN	5	2	1.07421875
255.30859375	0.00833333333333333	1	NaN	4	1	1.2392578125
258.625	0.00833333333333333	1	NaN	-8	1	6.0439453125
266.900390625	0.00833333333333333	1	-30	8	2	0.6318359375
270.025390625	0.00833333333333333	1	NaN	-7	1	0.5791015625
272.8330078125	0.00833333333333333	1	NaN	5	2	0.5556640625
275.658203125	0.00833333333333333	1	NaN	-6	1	0.6025390625
278.5498046875	0.00833333333333333	1	NaN	4	2	0.4873046875
281.5078125	0.00833333333333333	1	NaN	-5	1	0.6416015625
284.5244140625	0.00833333333333333	1	NaN	3	2	0.552734375
287.2158203125	0.00833333333333333	1	-30	7	2	0.8935546875
290.2333984375	0.00833333333333333	1	-30	-11	1	1.0361328125
293.724609375	0.00833333333333333	1	NaN	2	1	1.11328125
297.3251953125	0.00833333333333333	1	NaN	3	2	1.0244140625
300.82421875	0.00833333333333333	1	-30	-10	1	1.029296875
304.19921875	0.00833333333333333	1	-30	6	2	0.662109375
307.232421875	0.00833333333333333	1	NaN	-4	1	0.6298828125
310.2158203125	0.00833333333333333	1	30	13	1	0.9501953125
390.90625	0.00833333333333333	1	-30	5	1	5.478515625
398.4970703125	0.00833333333333333	1	NaN	-3	1	0.7919921875
401.755859375	0.00833333333333333	1	30	14	2	0.796875
405.0732421875	0.00833333333333333	1	-30	6	2	0.591796875
408.1650390625	0.00833333333333333	1	-30	5	2	0.6123046875
411.189453125	0.00833333333333333	1	NaN	2	1	0.7880859375
414.0224609375	0.00833333333333333	1	NaN	-2	1	0.8271484375
417.3056640625	0.00833333333333333	1	-30	-9	1	0.7353515625
420.1484375	0.00833333333333333	1	NaN	-1	1	0.8291015625
422.9892578125	0.00833333333333333	1	30	13	1	1.419921875
426.9716796875	0.00833333333333333	1	30	-8	1	0.75
429.98046875	0.00833333333333333	1	-30	-8	1	1.013671875
433.322265625	0.00833333333333333	1	-30	-7	1	1.8876953125
437.439453125	0.00833333333333333	1	30	-7	1	0.6826171875
440.5556640625	0.00833333333333333	1	NaN	3	2	0.646484375
443.4130859375	0.00833333333333333	1	30	14	2	1.5009765625
447.3642578125	0.00833333333333333	1	30	-6	1	0.654296875
450.2470703125	0.00833333333333333	1	30	13	2	1.0439453125
453.6806640625	0.00833333333333333	1	-30	4	2	0.6904296875
456.814453125	0.00833333333333333	1	30	-5	1	0.6845703125
459.9140625	0.00833333333333333	1	30	-4	1	0.6650390625
462.7392578125	0.00833333333333333	1	30	12	2	1.279296875
466.37109375	0.00833333333333333	1	NaN	0	1	0.6884765625
469.1552734375	0.00833333333333333	1	30	11	2	0.9677734375
472.6298828125	0.00833333333333333	1	30	-3	1	0.6533203125
475.5302734375	0.00833333333333333	1	30	-2	1	0.6494140625
478.23046875	0.00833333333333333	1	-30	3	1	0.5810546875
481.3212890625	0.00833333333333333	1	-30	-6	2	0.6982421875
484.205078125	0.00833333333333333	1	-30	4	2	0.654296875
487.0888671875	0.00833333333333333	1	30	10	1	0.650390625
489.7802734375	0.00833333333333333	1	30	-1	1	0.87109375
492.955078125	0.00833333333333333	1	30	0	1	1.224609375
496.49609375	0.00833333333333333	1	-30	3	2	0.7646484375
499.4052734375	0.00833333333333333	1	NaN	1	1	1.111328125
502.9208984375	0.00833333333333333	1	-30	2	2	0.5634765625
505.5634765625	0.00833333333333333	1	30	1	1	0.8408203125
508.6708984375	0.00833333333333333	1	30	2	1	0.7734375
511.9130859375	0.00833333333333333	1	30	3	1	0.6513671875
514.73828125	0.00833333333333333	1	NaN	2	2	0.650390625
517.896484375	0.00833333333333333	1	-30	1	2	0.66796875
520.6884765625	0.00833333333333333	1	-30	-7	2	0.732421875
523.6630859375	0.00833333333333333	1	30	4	1	0.677734375
526.462890625	0.00833333333333333	1	-30	0	1	1.005859375
529.8046875	0.00833333333333333	1	30	5	1	0.81640625
532.904296875	0.00833333333333333	1	-30	-8	2	1.373046875
536.6796875	0.00833333333333333	1	-30	1	2	0.60546875
539.3037109375	0.00833333333333333	1	-30	0	2	0.93359375
542.337890625	0.00833333333333333	1	30	6	1	0.8603515625
545.220703125	0.00833333333333333	1	-30	-1	1	1.12109375
548.462890625	0.00833333333333333	1	-30	-9	2	0.703125
551.162109375	0.00833333333333333	1	-30	0	2	0.6201171875
553.837890625	0.00833333333333333	1	NaN	1	2	0.9521484375
557.1123046875	0.00833333333333333	1	-30	-1	2	0.7255859375
560.162109375	0.00833333333333333	1	-30	-10	1	0.8037109375
563.4287109375	0.00833333333333333	1	30	7	1	0.7939453125
566.4619140625	0.00833333333333333	1	30	8	1	0.83203125
569.6123046875	0.00833333333333333	1	-30	-2	2	0.818359375
572.4873046875	0.00833333333333333	1	-30	-9	1	1.2470703125
576.2119140625	0.00833333333333333	1	NaN	0	1	1.5947265625
580.1533203125	0.00833333333333333	1	-30	-8	1	0.7734375
582.9619140625	0.00833333333333333	1	NaN	1	1	0.8447265625
586.1455078125	0.00833333333333333	1	-30	-3	2	0.5732421875
588.8125	0.00833333333333333	1	NaN	2	2	0.9462890625
592.228515625	0.00833333333333333	1	NaN	1	2	1.474609375
595.828125	0.00833333333333333	1	-30	-7	2	1.8193359375
599.8857421875	0.00833333333333333	1	30	9	1	0.8818359375
602.9873046875	0.00833333333333333	1	-30	-4	1	1.4765625
606.6953125	0.00833333333333333	1	NaN	0	1	1.2158203125
610.3955078125	0.00833333333333333	1	NaN	1	1	1.572265625
614.3955078125	0.00833333333333333	1	-30	-8	2	1.8447265625
618.65234375	0.00833333333333333	1	30	10	1	1.267578125
622.0283203125	0.00833333333333333	1	-30	-9	1	0.8681640625
625.2783203125	0.00833333333333333	1	NaN	2	1	3.10546875
630.453125	0.00833333333333333	1	30	11	1	1.763671875
634.6279296875	0.00833333333333333	1	-30	-8	1	1.228515625
637.9853515625	0.00833333333333333	1	NaN	3	2	0.935546875
641.3701171875	0.00833333333333333	1	30	12	1	1.3505859375
645.0947265625	0.00833333333333333	1	NaN	2	1	1.314453125
648.64453125	0.00833333333333333	1	NaN	3	2	1.1806640625
652.4033203125	0.00833333333333333	1	30	13	2	1.7177734375
656.4775390625	0.00833333333333333	1	30	12	1	1.1640625
660.0693359375	0.00833333333333333	1	30	13	2	2.01171875
664.5029296875	0.00833333333333333	1	NaN	2	1	2.298828125
669.3525390625	0.00833333333333333	1	30	12	1	1.13671875
672.7109375	0.00833333333333333	1	30	13	1	1.451171875
676.5517578125	0.00833333333333333	1	NaN	3	2	2.0185546875
680.7861328125	0.00833333333333333	1	NaN	2	2	1.4794921875
684.7109375	0.00833333333333333	1	NaN	1	2	1.267578125
688.2353515625	0.00833333333333333	1	NaN	0	1	0.8388671875
718.9345703125	0.00833333333333333	1	-30	-7	1	9.716796875
730.91015625	0.00833333333333333	1	-30	-6	1	1.0693359375
734.193359375	0.00833333333333333	1	30	14	1	1.2744140625
737.6015625	0.00833333333333333	1	-30	-5	2	0.7705078125
740.734375	0.00833333333333333	1	30	15	2	0.6533203125
743.5595703125	0.00833333333333333	1	30	14	2	1.1162109375
747.150390625	0.00833333333333333	1	30	13	2	0.78125
750.1513671875	0.00833333333333333	1	30	12	2	1.373046875
753.609375	0.00833333333333333	1	-30	-6	2	1.71484375
757.66796875	0.00833333333333333	1	30	11	1	0.9443359375
760.8681640625	0.00833333333333333	1	30	12	2	1.5126953125
764.693359375	0.00833333333333333	1	-30	-7	1	0.951171875
767.767578125	0.00833333333333333	1	30	11	1	1.8212890625
771.9677734375	0.00833333333333333	1	30	12	1	0.9248046875
775.134765625	0.00833333333333333	1	30	13	1	1.3505859375
778.9091796875	0.00833333333333333	1	30	14	1	1.6162109375
782.7841796875	0.00833333333333333	1	30	15	2	1.5888671875
786.484375	0.00833333333333333	1	30	14	1	1.224609375
789.8681640625	0.00833333333333333	1	-30	-3.16666666666667	2	0.8974609375
792.9423828125	0.00833333333333333	1	30	12.5	1	1.03125
796.267578125	0.00833333333333333	1	-30	-3.29166666666667	1	0.9462890625
799.6923828125	0.00833333333333333	1	NaN	3.16666666666667	1	1.2978515625
803.1181640625	0.00833333333333333	1	-30	-3.16666666666667	1	1.65625
807.0263671875	0.00833333333333333	1	-30	-4.16666666666667	1	0.9794921875
810.05859375	0.00833333333333333	1	-30	-3.04166666666667	2	1.36328125
813.92578125	0.00833333333333333	1	30	13.5	1	1.240234375
817.4580078125	0.00833333333333333	1	-30	-3.16666666666667	1	1.1806640625
820.783203125	0.00833333333333333	1	NaN	3.29166666666667	1	1.18359375
824.408203125	0.00833333333333333	1	NaN	2.16666666666667	1	1.7822265625
828.5751953125	0.00833333333333333	1	-30	-4.04166666666667	1	1.751953125
832.716796875	0.00833333333333333	1	NaN	2.29166666666667	1	1.08984375
835.8916015625	0.00833333333333333	1	30	13.625	1	1.67578125
839.7255859375	0.00833333333333333	1	30	13.75	1	1.169921875
843.0419921875	0.00833333333333333	1	-30	-3.04166666666667	2	0.94140625
846.4248046875	0.00833333333333333	1	30	13.875	1	1.0703125
849.849609375	0.00833333333333333	1	30	14	2	2.0224609375
853.9501953125	0.00833333333333333	1	-30	-3.91666666666667	1	1.0654296875
857.2158203125	0.00833333333333333	1	NaN	2.41666666666667	2	1.83984375
861.1162109375	0.00833333333333333	1	-30	-3.79166666666667	1	1.9560546875
865.3583984375	0.00833333333333333	1	-30	-3.16666666666667	2	0.849609375
868.3994140625	0.00833333333333333	1	30	13.875	2	1.15234375
871.8916015625	0.00833333333333333	1	30	12.625	2	0.98828125
875.3984375	0.00833333333333333	1	30	13.75	2	0.841796875
878.69921875	0.00833333333333333	1	-30	-3.29166666666667	1	0.8046875
881.732421875	0.00833333333333333	1	-30	-3.66666666666667	1	1.67578125
885.474609375	0.00833333333333333	1	30	12.5	2	1.341796875
889.08984375	0.00833333333333333	1	30	12.375	2	0.958984375
892.4580078125	0.00833333333333333	1	NaN	2.29166666666667	1	0.88671875
895.5078125	0.00833333333333333	1	30	12.25	2	0.869140625
898.673828125	0.00833333333333333	1	-30	-3.54166666666667	2	1.607421875
902.673828125	0.00833333333333333	1	30	12.125	1	0.9111328125
905.7822265625	0.00833333333333333	1	-30	-3.16666666666667	1	1.1474609375
909.3076171875	0.00833333333333333	1	30	13.625	2	0.6298828125
911.9658203125	0.00833333333333333	1	30	12.25	2	1.1162109375
915.232421875	0.00833333333333333	1	30	13.5	2	0.681640625
918.173828125	0.00833333333333333	1	NaN	2.41666666666667	1	1.4287109375
921.7734375	0.00833333333333333	1	-30	-3.04166666666667	1	0.8046875
924.6318359375	0.00833333333333333	1	30	13.375	2	0.833984375
927.9736328125	0.00833333333333333	1	30	13.25	2	0.6767578125
931.1650390625	0.00833333333333333	1	30	13.125	2	0.6767578125
933.9736328125	0.00833333333333333	1	NaN	2.54166666666667	2	1.6201171875
937.95703125	0.00833333333333333	1	-30	-2.91666666666667	2	1.0048828125
941.4560546875	0.00833333333333333	1	30	13	1	0.994140625
944.5234375	0.00833333333333333	1	30	12.125	1	1.0947265625
947.673828125	0.00833333333333333	1	NaN	3.41666666666667	2	0.8251953125
951.0986328125	0.00833333333333333	1	30	13.125	2	0.751953125
953.998046875	0.00833333333333333	1	NaN	3.29166666666667	2	0.8046875
957.0556640625	0.00833333333333333	1	30	12.25	2	0.779296875
959.9814453125	0.00833333333333333	1	-30	-3.66666666666667	2	1.509765625
963.5732421875	0.00833333333333333	1	30	13	1	1.078125
966.97265625	0.00833333333333333	1	30	12.125	1	1.046875
970.1728515625	0.00833333333333333	1	-30	-3.04166666666667	1	0.8701171875
973.5986328125	0.00833333333333333	1	NaN	3.16666666666667	1	1.29296875
977.0234375	0.00833333333333333	1	NaN	3.29166666666667	2	0.595703125
979.7978515625	0.00833333333333333	1	NaN	3.16666666666667	1	0.9736328125
983.1396484375	0.00833333333333333	1	-30	-3.79166666666667	2	0.751953125
986.0732421875	0.00833333333333333	1	-30	-2.91666666666667	2	0.658203125
989.1396484375	0.00833333333333333	1	30	12.25	2	0.83203125
992.4140625	0.00833333333333333	1	NaN	3.29166666666667	2	0.7744140625
995.7646484375	0.00833333333333333	1	30	13.125	2	1.0390625
999.1396484375	0.00833333333333333	1	30	12.125	2	1.1845703125
1002.5302734375	0.00833333333333333	1	NaN	2.41666666666667	1	1.2021484375
1005.84765625	0.00833333333333333	1	30	13	2	0.65234375
1008.6064453125	0.00833333333333333	1	NaN	2.54166666666667	1	1.150390625
1012.1474609375	0.00833333333333333	1	30	12	1	0.8330078125
1015.4638671875	0.00833333333333333	1	30	12.875	1	0.869140625
1018.4970703125	0.00833333333333333	1	NaN	3.16666666666667	1	1.3642578125
1036.8056640625	0.00833333333333333	1	NaN	2.66666666666667	1	1.1279296875
1039.9560546875	0.00833333333333333	1	30	12.125	1	1.2578125
1043.2890625	0.00833333333333333	1	30	13	2	0.62109375
1046.205078125	0.00833333333333333	1	NaN	2.79166666666667	2	1.45703125
1049.955078125	0.00833333333333333	1	30	12.25	2	1.0185546875
1053.3056640625	0.00833333333333333	1	-30	-3.04166666666667	1	1.4443359375
1057.197265625	0.00833333333333333	1	30	12.125	2	0.6806640625
1059.9716796875	0.00833333333333333	1	30	12.875	2	0.6748046875
1062.8798828125	0.00833333333333333	1	30	12	2	1.57421875
1066.5966796875	0.00833333333333333	1	NaN	2.66666666666667	2	1.001953125
1070.072265625	0.00833333333333333	1	30	11.875	2	0.6943359375
1072.921875	0.00833333333333333	1	NaN	3.29166666666667	2	0.732421875
1076.205078125	0.00833333333333333	1	NaN	2.54166666666667	2	0.74609375
1079.4384765625	0.00833333333333333	1	30	11.75	2	1.0888671875
1082.970703125	0.00833333333333333	1	NaN	3.16666666666667	2	0.98046875
1086.337890625	0.00833333333333333	1	NaN	2.41666666666667	2	1.013671875
1089.7294921875	0.00833333333333333	1	30	11.625	2	1.421875
1093.4794921875	0.00833333333333333	1	30	11.5	2	0.82421875
1096.8369140625	0.00833333333333333	1	-30	-3.91666666666667	1	0.994140625
1100.337890625	0.00833333333333333	1	NaN	2.29166666666667	2	0.7021484375
1103.2294921875	0.00833333333333333	1	30	12.75	2	1.0498046875
1106.6201171875	0.00833333333333333	1	NaN	3.04166666666667	2	0.9716796875
1109.8466796875	0.00833333333333333	1	30	11.375	2	0.857421875
1113.146484375	0.00833333333333333	1	30	12.625	2	1.2138671875
1116.62109375	0.00833333333333333	1	-30	-3.79166666666667	1	1.3232421875
1120.4453125	0.00833333333333333	1	30	11.25	2	0.779296875
1123.537109375	0.00833333333333333	1	NaN	2.16666666666667	2	1.0791015625
1126.9033203125	0.00833333333333333	1	30	11.125	2	0.7451171875
1130.1123046875	0.00833333333333333	1	NaN	2.91666666666667	1	1.0966796875
1133.3046875	0.00833333333333333	1	30	12.5	2	1.935546875
1137.4208984375	0.00833333333333333	1	30	11	2	1.1484375
1140.953125	0.00833333333333333	1	NaN	2.04166666666667	1	1.0078125
1144.0283203125	0.00833333333333333	1	NaN	2.16666666666667	1	0.796875
1147.3125	0.00833333333333333	1	-30	-2.91666666666667	1	0.6884765625
1150.478515625	0.00833333333333333	1	30	10.875	1	1.5625
1154.4208984375	0.00833333333333333	1	-30	-2.79166666666667	2	0.740234375
1157.3955078125	0.00833333333333333	1	NaN	3.04166666666667	2	0.6142578125
1160.0869140625	0.00833333333333333	1	30	11	1	1.3466796875
1163.6708984375	0.00833333333333333	1	NaN	2.29166666666667	1	1.146484375
1166.8955078125	0.00833333333333333	1	-30	-2.91666666666667	2	0.71484375
1169.8623046875	0.00833333333333333	1	30	12.375	1	0.947265625
1173.1533203125	0.00833333333333333	1	30	12.5	2	1.0966796875
1176.412109375	0.00833333333333333	1	NaN	2.91666666666667	2	0.734375
1179.5869140625	0.00833333333333333	1	NaN	2.79166666666667	2	0.6796875
1182.3369140625	0.00833333333333333	1	30	12.375	2	0.865234375
1185.3203125	0.00833333333333333	1	30	12.25	1	1.0576171875
1188.5029296875	0.00833333333333333	1	NaN	2.41666666666667	1	0.787109375
1191.51171875	0.00833333333333333	1	NaN	2.54166666666667	1	0.8505859375
1194.919921875	0.00833333333333333	1	30	12.375	2	0.6982421875
1197.76171875	0.00833333333333333	1	-30	-3.04166666666667	2	0.96875
1200.8369140625	0.00833333333333333	1	NaN	2.66666666666667	2	0.7099609375
1204.044921875	0.00833333333333333	1	NaN	2.66666666666667	1	1.59765625
1207.8369140625	0.00833333333333333	1	NaN	2.54166666666667	2	0.75
1210.8935546875	0.00833333333333333	1	30	11.125	2	1.3017578125
1214.677734375	0.00833333333333333	1	-30	-3.16666666666667	2	0.7255859375
1217.5693359375	0.00833333333333333	1	-30	-3.29166666666667	2	0.9697265625
1220.6103515625	0.00833333333333333	1	-30	-3.41666666666667	2	0.8173828125
1223.861328125	0.00833333333333333	1	30	11	2	0.662109375
1226.64453125	0.00833333333333333	1	NaN	2.79166666666667	2	0.53515625
1229.66015625	0.00833333333333333	1	30	10.875	2	0.927734375
1232.8271484375	0.00833333333333333	1	NaN	2.41666666666667	2	0.96875
1236.0693359375	0.00833333333333333	1	NaN	2.29166666666667	1	0.6708984375
1239.0263671875	0.00833333333333333	1	30	12.25	2	0.8740234375
1242.2275390625	0.00833333333333333	1	NaN	2.66666666666667	2	0.736328125
1245.302734375	0.00833333333333333	1	-30	-3.66666666666667	1	1.58984375
1249.427734375	0.00833333333333333	1	NaN	2.41666666666667	2	0.6328125
1252.4853515625	0.00833333333333333	1	NaN	2.54166666666667	2	1.3994140625
1256.40234375	0.00833333333333333	1	NaN	2.29166666666667	2	0.5380859375
1259.376953125	0.00833333333333333	1	-30	-3.54166666666667	2	0.7880859375
1262.619140625	0.00833333333333333	1	-30	-3.54166666666667	2	0.7939453125
1265.7353515625	0.00833333333333333	1	NaN	2.16666666666667	2	1.013671875
1268.90234375	0.00833333333333333	1	NaN	2.04166666666667	1	0.7666015625
1272.0009765625	0.00833333333333333	1	-30	-3.66666666666667	2	0.8681640625
1275.0107421875	0.00833333333333333	1	30	10.75	2	0.658203125
1277.767578125	0.00833333333333333	1	NaN	2.41666666666667	2	0.57421875
1280.876953125	0.00833333333333333	1	-30	-3.66666666666667	2	1.0244140625
1284.443359375	0.00833333333333333	1	-30	-3.79166666666667	2	0.810546875
1287.66015625	0.00833333333333333	1	-30	-3.91666666666667	2	0.7294921875
1290.9189453125	0.00833333333333333	1	30	10.625	2	0.6708984375
1293.8505859375	0.00833333333333333	1	-30	-4.04166666666667	2	1.5390625
1297.810546875	0.00833333333333333	1	-30	-3.79166666666667	2	1.2041015625
1301.126953125	0.00833333333333333	1	-30	-4.16666666666667	2	0.5908203125
1304.142578125	0.00833333333333333	1	NaN	2.29166666666667	1	0.8076171875
1307.03515625	0.00833333333333333	1	-30	-3.91666666666667	1	0.9951171875
1310.4345703125	0.00833333333333333	1	-30	-4.29166666666667	2	0.4921875
1313.3173828125	0.00833333333333333	1	30	10.5	2	0.625
1316.28515625	0.00833333333333333	1	NaN	2.41666666666667	2	1.10546875
1319.79296875	0.00833333333333333	1	30	10.375	1	0.75
1323.0849609375	0.00833333333333333	1	30	10.5	1	0.9619140625
1326.1181640625	0.00833333333333333	1	NaN	2.29166666666667	2	0.6171875
1328.9013671875	0.00833333333333333	1	NaN	2.16666666666667	1	1.42578125
1332.7509765625	0.00833333333333333	1	-30	-4.41666666666667	2	1.3603515625
1336.5595703125	0.00833333333333333	1	-30	-3.79166666666667	1	1.3916015625
1368.3173828125	0.00833333333333333	1	-30	-4.54166666666667	1	5.2509765625
1375.8427734375	0.00833333333333333	1	30	10.625	2	0.8701171875
1379.0009765625	0.00833333333333333	1	NaN	2.16666666666667	1	1.3515625
1382.6591796875	0.00833333333333333	1	-30	-4.41666666666667	2	0.7099609375
1385.5009765625	0.00833333333333333	1	-30	-3.66666666666667	2	0.66015625
1388.3173828125	0.00833333333333333	1	30	10.5	1	0.8837890625
1391.3837890625	0.00833333333333333	1	30	12.125	2	0.609375
1394.2587890625	0.00833333333333333	1	-30	-3.79166666666667	2	0.990234375
1397.458984375	0.00833333333333333	1	NaN	2.29166666666667	2	0.8466796875
1400.4423828125	0.00833333333333333	1	-30	-3.91666666666667	2	0.7353515625
1403.5087890625	0.00833333333333333	1	-30	-4.04166666666667	2	0.900390625
1406.7587890625	0.00833333333333333	1	-30	-4.54166666666667	1	1.115234375
1410.091796875	0.00833333333333333	1	30	12	1	0.837890625
1413.2421875	0.00833333333333333	1	30	10.625	1	0.7197265625
1416.3837890625	0.00833333333333333	1	30	12.125	1	0.826171875
1419.3837890625	0.00833333333333333	1	-30	-4.41666666666667	1	1.0498046875
1422.533203125	0.00833333333333333	1	30	12.25	1	1.0126953125
1425.94140625	0.00833333333333333	1	NaN	2.29166666666667	2	0.796875
1429.2255859375	0.00833333333333333	1	NaN	2.16666666666667	1	0.81640625
1432.1328125	0.00833333333333333	1	-30	-4.29166666666667	1	0.75
1435.1328125	0.00833333333333333	1	-30	-4.16666666666667	1	0.9423828125
1438.533203125	0.00833333333333333	1	-30	-4.04166666666667	1	0.8056640625
1441.8662109375	0.00833333333333333	1	-30	-4.16666666666667	1	0.736328125
1444.658203125	0.00833333333333333	1	30	12.375	1	1.072265625
1447.783203125	0.00833333333333333	1	NaN	2.16666666666667	1	1.1396484375
1450.9912109375	0.00833333333333333	1	-30	-3.91666666666667	1	0.7158203125
1453.8828125	0.00833333333333333	1	NaN	2.29166666666667	1	0.8642578125
1456.916015625	0.00833333333333333	1	NaN	2.29166666666667	1	0.798828125
1460.0078125	0.00833333333333333	1	30	12.5	1	0.7158203125
1462.9326171875	0.00833333333333333	1	NaN	2.41666666666667	1	0.8623046875
1466.06640625	0.00833333333333333	1	30	12.625	1	0.880859375
1469.1826171875	0.00833333333333333	1	NaN	2.41666666666667	1	0.6845703125
1472.44921875	0.00833333333333333	1	NaN	2.54166666666667	1	0.642578125
1475.5576171875	0.00833333333333333	1	30	12.75	2	0.638671875
1478.4580078125	0.00833333333333333	1	-30	-3.79166666666667	2	1.154296875
1482.0576171875	0.00833333333333333	1	30	12.625	2	0.642578125
1485.041015625	0.00833333333333333	1	NaN	2.66666666666667	2	0.68359375
1488.20703125	0.00833333333333333	1	30	10.75	1	0.7568359375
1491.20703125	0.00833333333333333	1	30	12.5	1	0.765625
1494.048828125	0.00833333333333333	1	NaN	2.54166666666667	1	0.68359375
1497.1650390625	0.00833333333333333	1	NaN	2.66666666666667	1	0.7109375
1500.2578125	0.00833333333333333	1	NaN	2.54166666666667	1	0.5947265625
1503.2734375	0.00833333333333333	1	NaN	2.79166666666667	1	0.603515625
1506.3232421875	0.00833333333333333	1	NaN	2.91666666666667	1	0.513671875
1509.265625	0.00833333333333333	1	NaN	2.66666666666667	1	0.595703125
1512.08203125	0.00833333333333333	1	NaN	3.04166666666667	1	0.7470703125
1515.08203125	0.00833333333333333	1	30	12.625	1	0.8505859375
1518.4150390625	0.00833333333333333	1	NaN	3.16666666666667	2	0.75
1521.5654296875	0.00833333333333333	1	30	12.75	2	0.759765625
1524.45703125	0.00833333333333333	1	NaN	2.79166666666667	1	0.7802734375
1527.298828125	0.00833333333333333	1	NaN	2.91666666666667	2	0.70703125
1530.46484375	0.00833333333333333	1	-30	-4.04166666666667	2	1.0927734375
1533.70703125	0.00833333333333333	1	-30	-4.16666666666667	1	0.73828125
1536.6318359375	0.00833333333333333	1	-30	-3.91666666666667	1	0.8623046875
1539.740234375	0.00833333333333333	1	30	10.875	2	0.59375
1542.546875	0.00833333333333333	1	-30	-3.79166666666667	2	0.7314453125
1545.58203125	0.00833333333333333	1	-30	-3.91666666666667	2	0.6083984375
1548.7236328125	0.00833333333333333	1	-30	-4.04166666666667	2	0.634765625
1551.4150390625	0.00833333333333333	1	-30	-4.16666666666667	1	0.6552734375
1554.22265625	0.00833333333333333	1	-30	-4.04166666666667	2	0.6474609375
1557.056640625	0.00833333333333333	1	-30	-4.16666666666667	1	0.8779296875
1560.1650390625	0.00833333333333333	1	-30	-4.04166666666667	1	0.8017578125
1563.0224609375	0.00833333333333333	1	-30	-3.91666666666667	2	0.8642578125
1566.189453125	0.00833333333333333	1	-30	-4.04166666666667	1	0.8896484375
1569.40625	0.00833333333333333	1	-30	-3.91666666666667	2	0.640625
1572.5400390625	0.00833333333333333	0	30	11.91875	1	0.7548828125
1575.4150390625	0.00833333333333333	0	-30	-3.74791666666667	2	0.6240234375
1578.3984375	0.00833333333333333	0	-30	-3.74791666666667	2	0.953125
1581.4892578125	0.00833333333333333	0	-30	-3.74791666666667	2	0.5986328125
1584.181640625	0.00833333333333333	0	-30	-3.74791666666667	1	0.673828125
1587.138671875	0.00833333333333333	0	-30	-3.74791666666667	1	0.869140625
1590.189453125	0.00833333333333333	0	30	11.91875	2	0.578125
1593.197265625	0.00833333333333333	0	30	11.91875	2	0.8349609375
1596.2216796875	0.00833333333333333	0	-30	-3.74791666666667	2	0.7783203125
1599.35546875	0.00833333333333333	0	-30	-3.74791666666667	1	0.6845703125
1602.4638671875	0.00833333333333333	0	30	11.91875	2	0.6318359375
1605.2890625	0.00833333333333333	0	30	11.91875	2	0.623046875
1608.130859375	0.00833333333333333	0	-30	-3.74791666666667	1	0.677734375
1610.9638671875	0.00833333333333333	0	-30	-3.74791666666667	1	0.66796875
1613.9638671875	0.00833333333333333	0	30	11.91875	2	0.5478515625
1616.8876953125	0.00833333333333333	0	-30	-3.74791666666667	1	1.3046875
1620.2216796875	0.00833333333333333	0	30	11.79375	1	0.658203125
1623.0966796875	0.00833333333333333	0	30	11.79375	1	0.8076171875
1626.2802734375	0.00833333333333333	0	-30	-3.74791666666667	1	0.640625
1629.2890625	0.00833333333333333	0	30	11.79375	2	0.5517578125
1632.0048828125	0.00833333333333333	0	-30	-3.62291666666667	1	1.2041015625
1635.271484375	0.00833333333333333	0	30	11.79375	1	0.7060546875
1638.10546875	0.00833333333333333	0	30	11.79375	1	0.7275390625
1641.322265625	0.00833333333333333	0	-30	-3.62291666666667	1	0.8544921875
1644.263671875	0.00833333333333333	0	30	11.79375	1	0.673828125
1647.2216796875	0.00833333333333333	0	-30	-3.62291666666667	1	0.8125
1650.4462890625	0.00833333333333333	0	-30	-3.62291666666667	1	0.8193359375
1653.837890625	0.00833333333333333	0	30	11.79375	1	1.083984375
1657.271484375	0.00833333333333333	0	30	11.79375	1	0.673828125
1660.462890625	0.00833333333333333	0	30	11.91875	2	0.4990234375
1663.3134765625	0.00833333333333333	0	30	11.91875	2	0.625
1666.220703125	0.00833333333333333	0	-30	-3.62291666666667	1	0.6689453125
1669.2216796875	0.00833333333333333	0	30	11.91875	1	0.740234375
1672.337890625	0.00833333333333333	0	-30	-3.49791666666667	1	0.6083984375
1675.0634765625	0.00833333333333333	0	30	11.91875	1	0.6103515625
1677.7705078125	0.00833333333333333	0	30	11.91875	1	0.767578125
1680.8466796875	0.00833333333333333	0	-30	-3.49791666666667	1	0.7802734375
1683.837890625	0.00833333333333333	0	-30	-3.49791666666667	1	0.6689453125
1686.6630859375	0.00833333333333333	0	-30	-3.49791666666667	1	0.66796875
1689.529296875	0.00833333333333333	0	30	11.91875	1	0.6416015625
1692.3876953125	0.00833333333333333	0	30	11.91875	1	0.623046875
1695.24609375	0.00833333333333333	0	30	12.04375	1	0.64453125
1697.970703125	0.00833333333333333	0	-30	-3.49791666666667	2	0.5517578125
1700.6875	0.00833333333333333	0	30	12.04375	2	0.5234375
1703.7041015625	0.00833333333333333	0	-30	-3.49791666666667	1	0.5791015625
1706.4375	0.00833333333333333	0	-30	-3.49791666666667	1	0.94921875
1709.8046875	0.00833333333333333	0	-30	-3.49791666666667	1	1.5751953125
1713.662109375	0.00833333333333333	0	30	12.04375	1	0.7978515625
1716.5703125	0.00833333333333333	0	-30	-3.49791666666667	1	0.873046875
1719.595703125	0.00833333333333333	0	-30	-3.49791666666667	1	0.8876953125
1722.6865234375	0.00833333333333333	0	-30	-3.37291666666667	1	0.6455078125
1725.5869140625	0.00833333333333333	0	-30	-3.37291666666667	1	0.544921875
1728.6708984375	0.00833333333333333	0	-30	-3.37291666666667	2	0.796875
1731.603515625	0.00833333333333333	0	-30	-3.37291666666667	2	1.2568359375
1735.4287109375	0.00833333333333333	0	30	12.04375	1	0.615234375
1738.3623046875	0.00833333333333333	0	30	12.04375	1	1.2255859375
1742.0537109375	0.00833333333333333	0	30	12.04375	2	0.56640625
1745.12890625	0.00833333333333333	0	-30	-3.37291666666667	1	1.259765625
1748.6787109375	0.00833333333333333	0	30	12.04375	1	0.7255859375
1751.5615234375	0.00833333333333333	0	-30	-3.37291666666667	1	0.619140625
1754.4697265625	0.00833333333333333	0	30	12.04375	1	0.55078125
1757.1201171875	0.00833333333333333	0	30	12.04375	2	0.9404296875
1760.537109375	0.00833333333333333	0	30	12.04375	2	1.076171875
1763.978515625	0.00833333333333333	0	-30	-3.37291666666667	1	0.90625
1767.236328125	0.00833333333333333	0	-30	-3.37291666666667	1	0.625
1770.103515625	0.00833333333333333	0	30	12.04375	1	0.7822265625
1773.328125	0.00833333333333333	0	-30	-3.37291666666667	1	0.9169921875
1776.486328125	0.00833333333333333	0	-30	-3.24791666666667	1	0.9833984375
1779.84375	0.00833333333333333	0	30	12.04375	1	0.681640625
1782.9697265625	0.00833333333333333	0	30	12.04375	1	0.7314453125
1786.1279296875	0.00833333333333333	0	30	12.04375	1	0.6376953125
1789.228515625	0.00833333333333333	0	-30	-3.24791666666667	1	0.529296875
1792.078125	0.00833333333333333	0	30	12.04375	1	0.736328125
1795.14453125	0.00833333333333333	0	-30	-3.24791666666667	1	0.7421875
1798.0859375	0.00833333333333333	0	30	12.16875	1	0.671875
1800.8359375	0.00833333333333333	0	30	12.16875	2	0.5859375
1803.4609375	0.00833333333333333	0	30	12.16875	1	1.2978515625
1807.0693359375	0.00833333333333333	0	30	12.16875	1	0.7216796875
1810.2021484375	0.00833333333333333	0	30	12.16875	2	0.556640625
1813.0693359375	0.00833333333333333	0	30	12.16875	2	1.2255859375
1863.59375	0.00833333333333333	0	30	12.16875	1	1.3349609375
1867.3759765625	0.00833333333333333	0	30	12.16875	2	0.6171875
1870.5087890625	0.00833333333333333	0	-30	-3.24791666666667	2	0.7001953125
1873.6767578125	0.00833333333333333	0	30	12.16875	2	0.64453125
1876.3681640625	0.00833333333333333	0	-30	-3.24791666666667	2	1.12109375
1879.5849609375	0.00833333333333333	0	-30	-3.24791666666667	2	0.759765625
1882.876953125	0.00833333333333333	0	30	12.16875	1	0.8759765625
1886.193359375	0.00833333333333333	0	-30	-3.24791666666667	1	1.4072265625
1889.91015625	0.00833333333333333	0	30	12.16875	2	0.947265625
1893.03515625	0.00833333333333333	0	30	12.16875	1	1.4140625
1896.693359375	0.00833333333333333	0	30	12.16875	2	0.892578125
1899.66796875	0.00833333333333333	0	30	12.16875	2	0.669921875
1902.3681640625	0.00833333333333333	0	30	12.16875	2	1.185546875
1905.9833984375	0.00833333333333333	0	-30	-3.24791666666667	2	0.650390625
1909.0927734375	0.00833333333333333	0	30	12.16875	2	0.6767578125
1912.1513671875	0.00833333333333333	0	-30	-3.24791666666667	2	0.650390625
1915.0751953125	0.00833333333333333	0	30	12.16875	2	0.71875
1918.076171875	0.00833333333333333	0	-30	-3.24791666666667	2	1.158203125
1921.359375	0.00833333333333333	0	30	12.04375	2	1.4755859375
1924.9423828125	0.00833333333333333	0	30	12.04375	2	0.908203125
1928.1845703125	0.00833333333333333	0	30	12.04375	2	0.9462890625
1931.484375	0.00833333333333333	0	30	12.04375	2	0.8701171875
1934.716796875	0.00833333333333333	0	30	12.04375	2	0.8701171875
1937.892578125	0.00833333333333333	0	-30	-3.24791666666667	1	0.9423828125
1941.3916015625	0.00833333333333333	0	30	11.91875	2	1.2109375
1944.8583984375	0.00833333333333333	0	-30	-3.24791666666667	1	0.6962890625
1947.8505859375	0.00833333333333333	0	-30	-3.24791666666667	1	0.5927734375
1950.900390625	0.00833333333333333	0	-30	-3.24791666666667	1	0.6865234375
1953.642578125	0.00833333333333333	0	30	11.91875	2	0.80078125
1956.8671875	0.00833333333333333	0	-30	-3.24791666666667	1	0.919921875
1959.8837890625	0.00833333333333333	0	30	11.91875	2	0.6318359375
1962.841796875	0.00833333333333333	0	-30	-3.12291666666667	1	0.9140625
1966.0751953125	0.00833333333333333	0	-30	-3.12291666666667	1	0.7529296875
1969.30859375	0.00833333333333333	0	-30	-3.12291666666667	1	1.1513671875
1972.8916015625	0.00833333333333333	0	-30	-3.12291666666667	1	0.96875
1975.9833984375	0.00833333333333333	0	30	11.91875	1	0.748046875
1979.2333984375	0.00833333333333333	0	-30	-3.12291666666667	1	0.72265625
1982.1005859375	0.00833333333333333	0	30	11.91875	1	1.0078125
1985.3837890625	0.00833333333333333	0	30	11.91875	1	0.7802734375
1988.525390625	0.00833333333333333	0	-30	-2.99791666666667	1	0.71875
1991.607421875	0.00833333333333333	0	-30	-2.99791666666667	1	0.63671875
1994.68359375	0.00833333333333333	0	-30	-2.99791666666667	1	0.7607421875
1997.5751953125	0.00833333333333333	0	-30	-2.99791666666667	1	0.7734375
2000.466796875	0.00833333333333333	0	30	11.91875	1	0.6337890625
2003.3916015625	0.00833333333333333	0	-30	-2.99791666666667	1	0.509765625
2006.44140625	0.00833333333333333	0	-30	-2.87291666666667	1	0.595703125
2009.4912109375	0.00833333333333333	0	-30	-2.87291666666667	1	0.5458984375
2012.1328125	0.00833333333333333	0	30	11.91875	2	0.82421875
2015.2001953125	0.00833333333333333	0	30	11.91875	2	1.3251953125
2018.658203125	0.00833333333333333	0	30	11.91875	1	1.2509765625
2022.3583984375	0.00833333333333333	0	30	11.91875	2	0.8154296875
2025.2412109375	0.00833333333333333	0	-30	-2.87291666666667	1	1.1962890625
2028.5	0.00833333333333333	0	-30	-2.87291666666667	2	1.521484375
2032.4912109375	0.00833333333333333	0	-30	-2.87291666666667	1	0.818359375
2035.3994140625	0.00833333333333333	0	30	11.91875	2	0.6943359375
2038.4248046875	0.00833333333333333	0	30	11.91875	2	0.5732421875
2041.3662109375	0.00833333333333333	0	30	11.91875	2	0.6240234375
2044.390625	0.00833333333333333	0	-30	-2.87291666666667	1	0.5361328125
2047.107421875	0.00833333333333333	0	30	11.91875	2	0.6669921875
2050.3076171875	0.00833333333333333	0	30	11.79375	2	0.6435546875
2053.4658203125	0.00833333333333333	0	-30	-2.87291666666667	1	0.484375
2056.3818359375	0.00833333333333333	0	-30	-2.87291666666667	1	0.6484375
2059.298828125	0.00833333333333333	0	-30	-2.87291666666667	1	0.6279296875
2062.306640625	0.00833333333333333	0	-30	-2.74791666666667	1	0.740234375
2065.5146484375	0.00833333333333333	0	-30	-2.74791666666667	1	0.732421875
2068.7158203125	0.00833333333333333	0	-30	-2.74791666666667	1	0.7314453125
2071.923828125	0.00833333333333333	0	30	11.79375	1	0.947265625
2075.07421875	0.00833333333333333	0	-30	-2.74791666666667	1	0.701171875
2077.865234375	0.00833333333333333	0	-30	-2.74791666666667	1	0.646484375
2080.615234375	0.00833333333333333	0	30	11.79375	2	0.9765625
2083.7724609375	0.00833333333333333	0	-30	-2.62291666666667	1	0.626953125
2086.8486328125	0.00833333333333333	0	30	11.79375	2	1.046875
2090.1904296875	0.00833333333333333	0	-30	-2.62291666666667	1	0.77734375
2093.2568359375	0.00833333333333333	0	30	11.79375	1	0.623046875
2095.890625	0.00833333333333333	0	30	11.79375	1	0.7333984375
2098.673828125	0.00833333333333333	0	30	11.79375	2	0.5341796875
2101.4404296875	0.00833333333333333	0	-30	-2.62291666666667	1	7.087890625
2110.673828125	0.00833333333333333	0	-30	-2.62291666666667	1	1.0146484375
2113.8818359375	0.00833333333333333	0	30	11.79375	2	0.4228515625
2116.498046875	0.00833333333333333	0	30	11.79375	2	0.638671875
2165.5146484375	0.00833333333333333	0	-30	-2.62291666666667	1	0.8310546875
2168.4892578125	0.00833333333333333	0	30	11.79375	2	0.47265625
2171.10546875	0.00833333333333333	0	30	11.79375	2	0.568359375
2174.1474609375	0.00833333333333333	0	-30	-2.49791666666667	2	0.5986328125
2177.23046875	0.00833333333333333	0	30	11.66875	2	0.6923828125
2180.0224609375	0.00833333333333333	0	30	11.66875	2	0.4677734375
2182.9208984375	0.00833333333333333	0	30	11.66875	2	0.857421875
2185.97265625	0.00833333333333333	0	-30	-2.49791666666667	2	0.7900390625
2189.0556640625	0.00833333333333333	0	-30	-2.49791666666667	2	0.771484375
2192.1962890625	0.00833333333333333	0	30	11.66875	2	0.5263671875
2194.9052734375	0.00833333333333333	0	30	11.66875	2	0.8818359375
2198.072265625	0.00833333333333333	0	-30	-2.49791666666667	2	0.6669921875
2201.3125	0.00833333333333333	0	30	11.54375	2	0.4990234375
2204.0556640625	0.00833333333333333	0	-30	-2.49791666666667	2	0.6591796875
2207.205078125	0.00833333333333333	0	30	11.54375	2	0.6943359375
2210.2802734375	0.00833333333333333	0	30	11.54375	2	0.771484375
2213.3134765625	0.00833333333333333	0	-30	-2.62291666666667	2	0.666015625
2216.25390625	0.00833333333333333	0	-30	-2.62291666666667	2	0.7255859375
2219.36328125	0.00833333333333333	0	30	11.54375	2	0.65625
2222.4638671875	0.00833333333333333	0	30	11.54375	2	1.01171875
2225.9716796875	0.00833333333333333	0	-30	-2.62291666666667	2	0.81640625
2228.9970703125	0.00833333333333333	0	30	11.41875	2	0.6953125
2231.763671875	0.00833333333333333	0	-30	-2.62291666666667	2	0.5849609375
2234.587890625	0.00833333333333333	0	30	11.41875	2	0.560546875
2237.36328125	0.00833333333333333	0	-30	-2.62291666666667	2	0.6015625
2240.5048828125	0.00833333333333333	0	30	11.41875	2	0.6279296875
2243.580078125	0.00833333333333333	0	30	11.41875	2	0.80078125
2246.6796875	0.00833333333333333	0	30	11.41875	1	0.869140625
2249.86328125	0.00833333333333333	0	-30	-2.74791666666667	1	0.7099609375
2253.0791015625	0.00833333333333333	0	30	11.41875	1	0.5576171875
2255.9716796875	0.00833333333333333	0	-30	-2.74791666666667	2	0.6494140625
2259.212890625	0.00833333333333333	0	-30	-2.74791666666667	2	0.65625
2262.4130859375	0.00833333333333333	0	-30	-2.74791666666667	1	0.8798828125
2265.703125	0.00833333333333333	0	-30	-2.74791666666667	1	0.7578125
2268.8876953125	0.00833333333333333	0	30	11.41875	1	1.173828125
2272.1708984375	0.00833333333333333	0	30	11.41875	2	0.578125
2274.970703125	0.00833333333333333	0	-30	-2.74791666666667	2	0.978515625
2278.3291015625	0.00833333333333333	0	-30	-2.74791666666667	2	0.7490234375
2281.6533203125	0.00833333333333333	0	30	11.41875	1	0.712890625
2284.6376953125	0.00833333333333333	0	-30	-2.74791666666667	2	0.7119140625
2287.4453125	0.00833333333333333	0	30	11.41875	1	0.7607421875
2290.287109375	0.00833333333333333	0	-30	-2.74791666666667	2	0.5986328125
2293.3291015625	0.00833333333333333	0	-30	-2.74791666666667	2	0.5966796875
2296.1875	0.00833333333333333	0	-30	-2.87291666666667	2	0.6669921875
2299.3955078125	0.00833333333333333	0	30	11.41875	1	0.7392578125
2302.5791015625	0.00833333333333333	0	-30	-2.87291666666667	1	0.771484375
2305.5703125	0.00833333333333333	0	-30	-2.87291666666667	1	0.7158203125
2308.6875	0.00833333333333333	0	-30	-2.87291666666667	2	0.5908203125
2311.603515625	0.00833333333333333	0	-30	-2.87291666666667	2	0.6513671875
2314.3623046875	0.00833333333333333	0	30	11.41875	2	0.908203125
2317.4873046875	0.00833333333333333	0	-30	-2.87291666666667	1	0.85546875
2320.4453125	0.00833333333333333	0	-30	-2.87291666666667	1	0.666015625
2323.228515625	0.00833333333333333	0	-30	-2.87291666666667	1	0.5546875
2326.1787109375	0.00833333333333333	0	-30	-2.87291666666667	2	0.6123046875
2328.9111328125	0.00833333333333333	0	-30	-2.87291666666667	2	0.6162109375
2332.01171875	0.00833333333333333	0	30	11.41875	2	0.5078125
2335.0537109375	0.00833333333333333	0	30	11.41875	2	0.5458984375
2337.9189453125	0.00833333333333333	0	-30	-2.87291666666667	1	0.865234375
2341.0205078125	0.00833333333333333	0	30	11.41875	1	0.779296875
2343.9775390625	0.00833333333333333	0	30	11.41875	2	0.9423828125
2347.0107421875	0.00833333333333333	0	30	11.41875	2	0.5732421875
2349.89453125	0.00833333333333333	0	30	11.41875	2	1.0810546875
2353.435546875	0.00833333333333333	0	30	11.41875	2	0.5166015625
2356.0361328125	0.00833333333333333	0	30	11.41875	2	0.6044921875
2358.927734375	0.00833333333333333	0	-30	-2.87291666666667	1	0.6806640625
2361.90234375	0.00833333333333333	0	30	11.29375	1	0.6416015625
2364.802734375	0.00833333333333333	0	-30	-2.87291666666667	1	0.693359375
2367.828125	0.00833333333333333	0	30	11.29375	1	0.828125
2370.986328125	0.00833333333333333	0	-30	-2.87291666666667	1	0.55078125
2374.01953125	0.00833333333333333	0	30	11.29375	2	0.7734375
2376.884765625	0.00833333333333333	0	30	11.29375	2	0.9404296875
2380.29296875	0.00833333333333333	0	-30	-2.87291666666667	1	0.755859375
2383.0859375	0.00833333333333333	0	30	11.29375	1	0.9228515625
2386.0771484375	0.00833333333333333	0	30	11.29375	1	0.828125
2389.2197265625	0.00833333333333333	0	30	11.29375	1	0.5498046875
2391.8935546875	0.00833333333333333	0	30	11.29375	1	0.6123046875
2394.927734375	0.00833333333333333	0	30	11.29375	2	0.841796875
2398.1943359375	0.00833333333333333	0	-30	-2.74791666666667	1	0.6318359375
2400.9853515625	0.00833333333333333	0	-30	-2.74791666666667	1	0.568359375
2403.9609375	0.00833333333333333	0	30	11.29375	1	0.6728515625
2527.8505859375	0.00833333333333333	0	-30	-2.74791666666667	1	0.009765625
2529.8173828125	0.00833333333333333	0	-30	-2.74791666666667	1	1.1806640625
2533.5	0.00833333333333333	0	-30	-2.74791666666667	1	1.1220703125
2537.017578125	0.00833333333333333	0	30	11.29375	2	0.62890625
2539.9912109375	0.00833333333333333	0	-30	-2.62291666666667	2	0.8388671875
2543.150390625	0.00833333333333333	0	30	11.29375	2	0.5439453125
2545.8505859375	0.00833333333333333	0	30	11.29375	2	0.6279296875
2548.7666015625	0.00833333333333333	0	30	11.29375	1	0.751953125
2551.966796875	0.00833333333333333	0	-30	-2.62291666666667	1	0.50390625
2554.93359375	0.00833333333333333	0	30	11.29375	2	0.47265625
2557.783203125	0.00833333333333333	0	30	11.29375	2	1.072265625
2561.341796875	0.00833333333333333	0	-30	-2.62291666666667	2	0.6572265625
2564.0751953125	0.00833333333333333	0	-30	-2.62291666666667	1	0.8037109375
2567.033203125	0.00833333333333333	0	30	11.29375	2	0.5419921875
2569.75	0.00833333333333333	0	30	11.29375	2	0.6650390625
2572.466796875	0.00833333333333333	0	30	11.29375	1	0.8046875
2575.7001953125	0.00833333333333333	0	-30	-2.62291666666667	2	0.794921875
2578.974609375	0.00833333333333333	0	-30	-2.62291666666667	2	1.0087890625
2582.3994140625	0.00833333333333333	0	-30	-2.62291666666667	2	0.8642578125
2585.7744140625	0.00833333333333333	0	30	11.29375	1	0.80078125
2588.7578125	0.00833333333333333	0	30	11.29375	1	0.8017578125
2591.7744140625	0.00833333333333333	0	30	11.29375	1	0.705078125
2594.783203125	0.00833333333333333	0	-30	-2.62291666666667	1	0.6171875
2597.673828125	0.00833333333333333	0	-30	-2.62291666666667	1	0.478515625
2600.2333984375	0.00833333333333333	0	30	11.29375	2	0.783203125
2603.56640625	0.00833333333333333	0	-30	-2.62291666666667	1	0.5615234375
2606.607421875	0.00833333333333333	0	30	11.29375	2	1.041015625
2609.732421875	0.00833333333333333	0	-30	-2.62291666666667	1	0.7080078125
2612.4912109375	0.00833333333333333	0	-30	-2.62291666666667	1	0.94140625
2615.724609375	0.00833333333333333	0	30	11.29375	2	0.595703125
2618.732421875	0.00833333333333333	0	30	11.29375	2	0.6201171875
2621.416015625	0.00833333333333333	0	-30	-2.49791666666667	1	1.09765625
2624.916015625	0.00833333333333333	0	-30	-2.49791666666667	1	0.94921875
2628.3818359375	0.00833333333333333	0	-30	-2.49791666666667	2	0.9873046875
2631.8818359375	0.00833333333333333	0	30	11.29375	2	0.8232421875
2635.2900390625	0.00833333333333333	0	-30	-2.49791666666667	2	0.8310546875
2638.673828125	0.00833333333333333	0	30	11.16875	2	0.53515625
2641.3486328125	0.00833333333333333	0	-30	-2.49791666666667	2	0.5810546875
2644.2978515625	0.00833333333333333	0	30	11.16875	2	0.5439453125
2647.3408203125	0.00833333333333333	0	30	11.16875	2	0.5009765625
2650.2568359375	0.00833333333333333	0	-30	-2.49791666666667	2	0.697265625
2653.5068359375	0.00833333333333333	0	-30	-2.49791666666667	2	0.5673828125
2656.5234375	0.00833333333333333	0	-30	-2.62291666666667	2	0.6708984375
2659.2822265625	0.00833333333333333	0	-30	-2.62291666666667	2	0.591796875
2662.115234375	0.00833333333333333	0	-30	-2.62291666666667	2	0.71875
2664.9560546875	0.00833333333333333	0	-30	-2.62291666666667	2	0.8857421875
2668.1064453125	0.00833333333333333	0	-30	-2.62291666666667	1	0.5595703125
2670.998046875	0.00833333333333333	0	30	11.16875	2	0.6201171875
2673.8388671875	0.00833333333333333	0	-30	-2.62291666666667	1	0.763671875
2676.9404296875	0.00833333333333333	0	30	11.16875	2	0.4384765625
2679.8232421875	0.00833333333333333	0	30	11.04375	2	0.4833984375
2682.681640625	0.00833333333333333	0	-30	-2.62291666666667	1	0.9453125
2686.123046875	0.00833333333333333	0	30	11.04375	1	1.0322265625
2689.3818359375	0.00833333333333333	0	30	11.04375	1	0.7490234375
2692.5478515625	0.00833333333333333	0	30	11.04375	1	0.759765625
2695.5068359375	0.00833333333333333	0	30	11.04375	1	0.6083984375
2698.5400390625	0.00833333333333333	0	30	11.04375	1	0.8955078125
2701.6142578125	0.00833333333333333	0	-30	-2.62291666666667	1	0.7333984375
2704.78125	0.00833333333333333	0	30	11.16875	1	0.57421875
2707.873046875	0.00833333333333333	0	-30	-2.62291666666667	1	0.578125
2710.931640625	0.00833333333333333	0	-30	-2.49791666666667	1	0.48046875
2713.880859375	0.00833333333333333	0	30	11.16875	1	0.5546875
2716.5810546875	0.00833333333333333	0	30	11.16875	1	0.5908203125
2719.2314453125	0.00833333333333333	0	30	11.16875	1	0.6767578125
2722.4306640625	0.00833333333333333	0	30	11.16875	2	0.6376953125
2725.146484375	0.00833333333333333	0	-30	-2.49791666666667	1	0.5380859375
2728.1640625	0.00833333333333333	0	-30	-2.49791666666667	1	0.7919921875
2731.1142578125	0.00833333333333333	0	-30	-2.49791666666667	1	0.5537109375
2733.78125	0.00833333333333333	0	30	11.16875	1	1.0712890625
2737.3134765625	0.00833333333333333	0	-30	-2.49791666666667	2	0.939453125
2740.4970703125	0.00833333333333333	0	30	11.16875	1	0.9072265625
2743.5810546875	0.00833333333333333	0	-30	-2.49791666666667	2	1.0478515625
2746.84765625	0.00833333333333333	0	30	11.16875	1	0.6689453125
2750.0810546875	0.00833333333333333	0	-30	-2.49791666666667	1	0.931640625
2753.1552734375	0.00833333333333333	0	30	11.16875	2	1.001953125
2756.5966796875	0.00833333333333333	0	-30	-2.49791666666667	1	0.904296875
2759.8642578125	0.00833333333333333	0	-30	-2.49791666666667	1	0.796875
2763.080078125	0.00833333333333333	0	-30	-2.49791666666667	2	0.8291015625
2766.3642578125	0.00833333333333333	0	30	11.16875	2	1.0732421875
2769.580078125	0.00833333333333333	0	-30	-2.49791666666667	2	0.8818359375
2850.62109375	0.00833333333333333	0	30	11.16875	2	1.8916015625
2854.6708984375	0.00833333333333333	0	-30	-2.49791666666667	2	0.78515625
2857.8876953125	0.00833333333333333	0	30	11.16875	1	0.9208984375
2860.8876953125	0.00833333333333333	0	30	11.16875	2	0.560546875
2863.9541015625	0.00833333333333333	0	-30	-2.49791666666667	2	0.7744140625
2867.2041015625	0.00833333333333333	0	30	11.16875	2	0.5244140625
2870.00390625	0.00833333333333333	0	-30	-2.49791666666667	1	1.0771484375
2873.470703125	0.00833333333333333	0	30	11.16875	1	0.9306640625
2876.6787109375	0.00833333333333333	0	-30	-2.49791666666667	2	0.5625
2879.4375	0.00833333333333333	0	30	11.16875	1	1.00390625
2882.5537109375	0.00833333333333333	0	-30	-2.49791666666667	2	0.5517578125
2885.26171875	0.00833333333333333	0	30	11.16875	2	0.6279296875
2888.1455078125	0.00833333333333333	0	-30	-2.49791666666667	2	0.7763671875
2891.0791015625	0.00833333333333333	0	-30	-2.49791666666667	2	0.634765625
2894.2451171875	0.00833333333333333	0	-30	-2.49791666666667	2	0.740234375
2897.3447265625	0.00833333333333333	0	30	11.16875	2	1.224609375
2900.8115234375	0.00833333333333333	0	-30	-2.62291666666667	2	0.91796875
2903.9951171875	0.00833333333333333	0	-30	-2.62291666666667	2	0.943359375
2907.1953125	0.00833333333333333	0	30	11.16875	2	0.6064453125
2910.1953125	0.00833333333333333	0	-30	-2.62291666666667	2	0.5751953125
2913.119140625	0.00833333333333333	0	-30	-2.62291666666667	2	0.5869140625
2916.1865234375	0.00833333333333333	0	-30	-2.62291666666667	2	0.5361328125
2919.228515625	0.00833333333333333	0	30	11.16875	2	0.814453125
2922.353515625	0.00833333333333333	0	30	11.16875	2	0.880859375
2925.453125	0.00833333333333333	0	30	11.04375	2	0.6455078125
2928.5029296875	0.00833333333333333	0	-30	-2.74791666666667	2	0.779296875
2931.544921875	0.00833333333333333	0	-30	-2.74791666666667	2	0.6982421875
2934.294921875	0.00833333333333333	0	30	11.04375	2	0.5322265625
2937.3525390625	0.00833333333333333	0	-30	-2.74791666666667	1	0.802734375
2940.369140625	0.00833333333333333	0	-30	-2.74791666666667	1	0.8662109375
2943.669921875	0.00833333333333333	0	30	11.04375	1	0.6376953125
2946.759765625	0.00833333333333333	0	-30	-2.74791666666667	1	0.84375
2949.8779296875	0.00833333333333333	0	-30	-2.74791666666667	2	1.0771484375
2953.3857421875	0.00833333333333333	0	30	11.04375	2	0.9853515625
2956.7021484375	0.00833333333333333	0	30	11.04375	2	0.93359375
2959.9443359375	0.00833333333333333	0	30	11.04375	1	0.8193359375
2963.2529296875	0.00833333333333333	0	-30	-2.74791666666667	2	0.55078125
2966.16015625	0.00833333333333333	0	30	11.04375	2	0.6201171875
2969.2861328125	0.00833333333333333	0	30	11.04375	2	0.517578125
2972.310546875	0.00833333333333333	0	-30	-2.74791666666667	1	0.8857421875
2975.4443359375	0.00833333333333333	0	30	11.04375	2	0.82421875
2978.3525390625	0.00833333333333333	0	30	11.04375	2	0.755859375
2981.40234375	0.00833333333333333	0	30	11.04375	2	0.7060546875
2984.4091796875	0.00833333333333333	0	30	10.91875	2	0.626953125
2987.1015625	0.00833333333333333	0	30	10.91875	2	0.806640625
2990.21875	0.00833333333333333	0	30	10.91875	2	0.658203125
2993.193359375	0.00833333333333333	0	-30	-2.74791666666667	1	1.03515625
2996.3271484375	0.00833333333333333	0	-30	-2.74791666666667	2	0.9580078125
2999.8017578125	0.00833333333333333	0	-30	-2.74791666666667	2	0.8115234375
3002.90234375	0.00833333333333333	0	30	10.91875	2	0.5986328125
3005.7841796875	0.00833333333333333	0	-30	-2.74791666666667	2	0.95703125
3008.810546875	0.00833333333333333	0	-30	-2.74791666666667	2	0.9150390625
3012.16015625	0.00833333333333333	0	30	10.91875	2	0.4853515625
3014.8681640625	0.00833333333333333	0	30	10.79375	2	0.625
3017.5849609375	0.00833333333333333	0	30	10.79375	2	0.78125
3020.693359375	0.00833333333333333	0	-30	-2.74791666666667	2	0.5048828125
3023.4755859375	0.00833333333333333	0	30	10.79375	1	1.0341796875
3026.6259765625	0.00833333333333333	0	30	10.79375	1	1.251953125
3029.984375	0.00833333333333333	0	-30	-2.87291666666667	1	0.662109375
3032.8681640625	0.00833333333333333	0	-30	-2.87291666666667	1	0.5703125
3035.759765625	0.00833333333333333	0	-30	-2.87291666666667	2	0.8466796875
3038.8515625	0.00833333333333333	0	-30	-2.87291666666667	2	0.6669921875
3041.9765625	0.00833333333333333	0	30	10.79375	2	0.5576171875
3045.05859375	0.00833333333333333	0	30	10.79375	2	0.595703125
3047.8681640625	0.00833333333333333	0	30	10.79375	2	0.498046875
3050.642578125	0.00833333333333333	0	-30	-2.87291666666667	1	1.0361328125
3054.2001953125	0.00833333333333333	0	30	10.79375	1	0.7666015625
3057.134765625	0.00833333333333333	0	-30	-2.87291666666667	1	5.984375
3065.56640625	0.00833333333333333	0	30	10.79375	2	0.6884765625
3068.734375	0.00833333333333333	0	30	10.79375	2	0.6083984375
3071.4912109375	0.00833333333333333	0	-30	-2.87291666666667	1	0.595703125
3074.1083984375	0.00833333333333333	0	-30	-2.87291666666667	2	0.8427734375
3077.1923828125	0.00833333333333333	0	30	10.79375	1	0.6396484375
3080.142578125	0.00833333333333333	0	-30	-2.87291666666667	1	1.3125
3083.6259765625	0.00833333333333333	0	-30	-2.87291666666667	1	0.693359375
3086.55078125	0.00833333333333333	0	-30	-2.87291666666667	2	0.76953125
3089.400390625	0.00833333333333333	0	-30	-2.87291666666667	2	0.83984375
3092.3251953125	0.00833333333333333	0	-30	-2.87291666666667	2	1.0908203125
3095.875	0.00833333333333333	0	30	10.79375	1	0.9892578125
3099.1591796875	0.00833333333333333	0	30	10.79375	1	0.712890625
3199.6650390625	0.00833333333333333	0	30	10.79375	1	0.009765625
3202.0732421875	0.00833333333333333	0	-30	-2.87291666666667	1	1.4580078125
3205.982421875	0.00833333333333333	0	30	10.79375	2	0.685546875
3208.8486328125	0.00833333333333333	0	30	10.79375	2	0.7548828125
3211.9990234375	0.00833333333333333	0	30	10.79375	2	0.5166015625
3214.84765625	0.00833333333333333	0	-30	-2.87291666666667	2	1.2041015625
3218.482421875	0.00833333333333333	0	30	10.79375	1	0.849609375
3221.6240234375	0.00833333333333333	0	-30	-2.87291666666667	2	0.84375
3224.7900390625	0.00833333333333333	0	-30	-2.87291666666667	2	0.91796875
3227.9736328125	0.00833333333333333	0	30	10.79375	2	0.7509765625
3230.9482421875	0.00833333333333333	0	30	10.79375	1	1.0244140625
3234.5400390625	0.00833333333333333	0	30	10.79375	2	1.13671875
3238.2900390625	0.00833333333333333	0	-30	-2.87291666666667	2	0.8515625
3241.6982421875	0.00833333333333333	0	-30	-2.87291666666667	2	0.72265625
3244.7646484375	0.00833333333333333	0	30	10.79375	2	0.83203125
3248.08984375	0.00833333333333333	0	-30	-2.99791666666667	1	0.794921875
3251.2314453125	0.00833333333333333	0	-30	-2.99791666666667	1	0.58203125
3253.9228515625	0.00833333333333333	0	-30	-2.99791666666667	1	0.658203125
3256.7734375	0.00833333333333333	0	-30	-2.99791666666667	1	0.888671875
3260.189453125	0.00833333333333333	0	30	10.79375	2	0.9521484375
3263.5234375	0.00833333333333333	0	30	10.79375	1	0.986328125
3267.005859375	0.00833333333333333	0	-30	-2.99791666666667	2	0.6640625
3269.7568359375	0.00833333333333333	0	30	10.79375	2	0.8251953125
3272.9384765625	0.00833333333333333	0	30	10.79375	2	0.5869140625
3275.646484375	0.00833333333333333	0	30	10.79375	1	0.87109375
3278.7880859375	0.00833333333333333	0	30	10.79375	2	0.521484375
3281.65625	0.00833333333333333	0	30	10.79375	2	0.525390625
3284.5302734375	0.00833333333333333	0	30	10.79375	1	0.7001953125
3287.59765625	0.00833333333333333	0	30	10.79375	2	0.6005859375
3290.3212890625	0.00833333333333333	0	-30	-2.99791666666667	1	0.8134765625
3293.4892578125	0.00833333333333333	0	-30	-2.99791666666667	1	0.765625
3296.748046875	0.00833333333333333	0	30	10.79375	1	0.962890625
3299.8974609375	0.00833333333333333	0	30	10.79375	2	0.5810546875
3302.8974609375	0.00833333333333333	0	-30	-2.99791666666667	1	1.1416015625
3306.5390625	0.00833333333333333	0	-30	-2.99791666666667	2	0.7314453125
3309.322265625	0.00833333333333333	0	-30	-2.99791666666667	1	0.62109375
3312.0380859375	0.00833333333333333	0	-30	-2.99791666666667	1	0.6728515625
3315.255859375	0.00833333333333333	0	30	10.79375	2	0.6708984375
3318.1376953125	0.00833333333333333	0	-30	-2.99791666666667	1	0.8857421875
3321.4892578125	0.00833333333333333	0	30	10.79375	2	0.55859375
3324.5390625	0.00833333333333333	0	-30	-2.99791666666667	1	0.548828125
3327.130859375	0.00833333333333333	0	-30	-2.99791666666667	1	1.3564453125
3330.8212890625	0.00833333333333333	0	-30	-2.87291666666667	1	0.6826171875
3333.8466796875	0.00833333333333333	0	-30	-2.87291666666667	2	0.8251953125
3336.86328125	0.00833333333333333	0	-30	-2.87291666666667	2	0.625
3339.5634765625	0.00833333333333333	0	-30	-2.87291666666667	1	1.0048828125
3342.61328125	0.00833333333333333	0	-30	-2.87291666666667	2	0.947265625
3345.796875	0.00833333333333333	0	-30	-2.87291666666667	2	0.66796875
3348.8720703125	0.00833333333333333	0	-30	-2.87291666666667	1	0.48828125
3351.4130859375	0.00833333333333333	0	30	10.79375	2	0.458984375
3354.0634765625	0.00833333333333333	0	-30	-2.87291666666667	2	0.537109375
3356.7880859375	0.00833333333333333	0	30	10.79375	1	0.8125
3359.9287109375	0.00833333333333333	0	-30	-2.87291666666667	2	0.759765625
3362.9716796875	0.00833333333333333	0	30	10.79375	2	0.4365234375
3365.6298828125	0.00833333333333333	0	-30	-2.87291666666667	2	0.794921875
3368.6953125	0.00833333333333333	0	30	10.79375	1	0.6337890625
3371.62890625	0.00833333333333333	0	-30	-2.87291666666667	2	0.67578125
3374.595703125	0.00833333333333333	0	30	10.79375	2	0.654296875
3377.5458984375	0.00833333333333333	0	-30	-2.87291666666667	1	0.4072265625
3380.0126953125	0.00833333333333333	0	-30	-2.87291666666667	2	0.97265625
3383.3046875	0.00833333333333333	0	30	10.79375	2	0.65625
3386.2626953125	0.00833333333333333	0	30	10.79375	2	0.6103515625
3389.345703125	0.00833333333333333	0	30	10.79375	2	1.17578125
3392.837890625	0.00833333333333333	0	30	10.79375	2	0.771484375
3395.9130859375	0.00833333333333333	0	30	10.66875	1	1.3203125
3399.5205078125	0.00833333333333333	0	-30	-2.87291666666667	2	0.8330078125
3402.62890625	0.00833333333333333	0	30	10.66875	1	1.189453125
3406.37109375	0.00833333333333333	0	30	10.66875	2	0.54296875
3408.986328125	0.00833333333333333	0	30	10.66875	1	0.6875
3411.837890625	0.00833333333333333	0	-30	-2.87291666666667	1	0.548828125
3414.5126953125	0.00833333333333333	0	30	10.66875	1	0.6572265625
3417.6953125	0.00833333333333333	0	30	10.66875	1	0.72265625
3420.7041015625	0.00833333333333333	0	-30	-2.87291666666667	2	0.74609375
3423.62890625	0.00833333333333333	0	-30	-2.87291666666667	1	0.59765625
3426.720703125	0.00833333333333333	0	-30	-2.87291666666667	1	0.578125
3429.5615234375	0.00833333333333333	0	30	10.66875	1	0.880859375
3432.63671875	0.00833333333333333	0	-30	-2.87291666666667	1	0.6064453125
3435.8291015625	0.00833333333333333	0	30	10.66875	1	0.6865234375
3438.927734375	0.00833333333333333	0	-30	-2.87291666666667	1	0.5791015625
3441.7373046875	0.00833333333333333	0	-30	-2.87291666666667	1	0.5537109375
3542.701171875	0.00833333333333333	0	-30	-2.74791666666667	1	0.9208984375
3545.7607421875	0.00833333333333333	0	-30	-2.74791666666667	1	0.662109375
3548.5517578125	0.00833333333333333	0	-30	-2.74791666666667	1	0.638671875
3551.5517578125	0.00833333333333333	0	30	10.79375	2	0.54296875
3554.359375	0.00833333333333333	0	30	10.79375	1	1.0712890625
3557.91015625	0.00833333333333333	0	30	10.79375	1	1.064453125
3561.310546875	0.00833333333333333	0	30	10.79375	2	0.48046875
3563.9267578125	0.00833333333333333	0	-30	-2.74791666666667	1	0.6884765625
3566.7509765625	0.00833333333333333	0	-30	-2.74791666666667	1	0.65625
3569.6689453125	0.00833333333333333	0	-30	-2.62291666666667	1	0.5947265625
3572.5009765625	0.00833333333333333	0	-30	-2.62291666666667	2	0.818359375
3575.5185546875	0.00833333333333333	0	30	10.79375	2	0.720703125
3578.4013671875	0.00833333333333333	0	-30	-2.62291666666667	2	0.6865234375
3581.1513671875	0.00833333333333333	0	-30	-2.62291666666667	2	0.7607421875
3584.2177734375	0.00833333333333333	0	-30	-2.62291666666667	1	0.421875
3586.826171875	0.00833333333333333	0	30	10.79375	2	0.4775390625
3589.626953125	0.00833333333333333	0	30	10.79375	1	0.724609375
3592.3173828125	0.00833333333333333	0	-30	-2.62291666666667	2	1.130859375
3595.7421875	0.00833333333333333	0	-30	-2.62291666666667	1	1.1298828125
3599.2421875	0.00833333333333333	0	30	10.79375	2	0.5498046875
3602.193359375	0.00833333333333333	0	-30	-2.62291666666667	2	0.5830078125
3605.0341796875	0.00833333333333333	0	-30	-2.62291666666667	2	0.9267578125
3608.076171875	0.00833333333333333	0	-30	-2.62291666666667	2	0.46875
3610.9013671875	0.00833333333333333	0	-30	-2.62291666666667	2	0.546875
3613.5263671875	0.00833333333333333	0	30	10.79375	2	0.5302734375
3616.4833984375	0.00833333333333333	0	-30	-2.62291666666667	2	0.701171875
3619.41796875	0.00833333333333333	0	-30	-2.74791666666667	2	0.71875
3622.451171875	0.00833333333333333	0	-30	-2.74791666666667	1	0.75
3625.3837890625	0.00833333333333333	0	30	10.79375	2	0.6416015625
3628.3837890625	0.00833333333333333	0	30	10.79375	2	0.76171875
3631.6005859375	0.00833333333333333	0	-30	-2.74791666666667	1	0.560546875
3634.4921875	0.00833333333333333	0	30	10.79375	2	0.78125
3637.6591796875	0.00833333333333333	0	-30	-2.74791666666667	1	0.7978515625
3640.9423828125	0.00833333333333333	0	-30	-2.74791666666667	1	0.71484375
3643.8173828125	0.00833333333333333	0	30	10.66875	2	0.48046875
3646.5087890625	0.00833333333333333	0	-30	-2.74791666666667	1	0.693359375
3649.5087890625	0.00833333333333333	0	-30	-2.62291666666667	1	1.220703125
3653.125	0.00833333333333333	0	30	10.66875	2	0.4853515625
3656.1259765625	0.00833333333333333	0	30	10.66875	2	0.5556640625
3659.0087890625	0.00833333333333333	0	30	10.66875	1	0.9375
3662.1171875	0.00833333333333333	0	-30	-2.62291666666667	2	1.357421875
3665.7421875	0.00833333333333333	0	30	10.66875	2	0.5400390625
3668.6748046875	0.00833333333333333	0	30	10.66875	1	0.82421875
3671.650390625	0.00833333333333333	0	-30	-2.62291666666667	1	1.48828125
3675.31640625	0.00833333333333333	0	30	10.66875	2	0.509765625
3678.0419921875	0.00833333333333333	0	30	10.66875	2	0.4892578125
3680.8916015625	0.00833333333333333	0	-30	-2.62291666666667	1	0.798828125
3684.1416015625	0.00833333333333333	0	30	10.66875	2	0.5654296875
3687.05859375	0.00833333333333333	0	-30	-2.62291666666667	2	0.6650390625
3689.8076171875	0.00833333333333333	0	30	10.66875	1	1.083984375
3693.19921875	0.00833333333333333	0	30	10.66875	2	0.5244140625
3695.8828125	0.00833333333333333	0	30	10.66875	1	1.12109375
3699.416015625	0.00833333333333333	0	30	10.66875	2	0.5712890625
3702.3408203125	0.00833333333333333	0	-30	-2.62291666666667	2	1.3671875
3705.8740234375	0.00833333333333333	0	30	10.66875	2	0.7216796875
3708.8828125	0.00833333333333333	0	-30	-2.62291666666667	1	0.544921875
3711.7666015625	0.00833333333333333	0	30	10.66875	1	0.189453125
3714.2080078125	0.00833333333333333	0	30	10.66875	2	0.587890625
3716.8330078125	0.00833333333333333	0	30	10.66875	2	0.802734375
3719.83203125	0.00833333333333333	0	30	10.66875	2	0.6357421875
3722.6083984375	0.00833333333333333	0	-30	-2.62291666666667	2	1.01171875
3726.1494140625	0.00833333333333333	0	-30	-2.62291666666667	1	0.52734375
3728.9072265625	0.00833333333333333	0	-30	-2.62291666666667	2	0.8330078125
3732.1416015625	0.00833333333333333	0	-30	-2.62291666666667	1	0.86328125
3735.0732421875	0.00833333333333333	0	30	10.66875	2	0.619140625
3737.783203125	0.00833333333333333	0	30	10.66875	2	0.58203125
3740.765625	0.00833333333333333	0	-30	-2.62291666666667	1	0.3828125
3743.3408203125	0.00833333333333333	0	30	10.54375	2	0.408203125
3745.8662109375	0.00833333333333333	0	30	10.54375	2	0.6904296875
3748.9404296875	0.00833333333333333	0	30	10.54375	2	0.6416015625
3751.6318359375	0.00833333333333333	0	30	10.54375	2	0.7333984375
3754.732421875	0.00833333333333333	0	-30	-2.62291666666667	1	0.9609375
3757.7744140625	0.00833333333333333	0	30	10.54375	2	0.6953125
3760.6572265625	0.00833333333333333	0	-30	-2.62291666666667	1	0.4921875
3763.4072265625	0.00833333333333333	0	30	10.41875	2	0.7021484375
3766.46484375	0.00833333333333333	0	-30	-2.62291666666667	1	0.884765625
3769.4990234375	0.00833333333333333	0	-30	-2.49791666666667	1	0.8505859375
3772.57421875	0.00833333333333333	0	-30	-2.49791666666667	1	0.6640625
3775.365234375	0.00833333333333333	0	30	10.41875	2	0.44921875
3778.3818359375	0.00833333333333333	0	30	10.41875	2	0.46484375
3812.873046875	0.00833333333333333	0	30	10.41875	1	2.57421875
3817.8310546875	0.00833333333333333	0	30	10.41875	1	0.6083984375
3820.6728515625	0.00833333333333333	0	30	10.41875	2	0.5830078125
3823.34765625	0.00833333333333333	0	-30	-2.49791666666667	1	0.580078125
3826.2060546875	0.00833333333333333	0	30	10.41875	2	0.513671875
3829.248046875	0.00833333333333333	0	-30	-2.49791666666667	1	1.423828125
3833.09765625	0.00833333333333333	0	30	10.41875	2	0.8544921875
3836.1806640625	0.00833333333333333	0	-30	-2.49791666666667	1	1.35546875
3839.86328125	0.00833333333333333	0	-30	-2.37291666666667	1	0.544921875
3842.7392578125	0.00833333333333333	0	-30	-2.37291666666667	1	0.5166015625
3845.796875	0.00833333333333333	0	30	10.41875	2	0.611328125
3848.6396484375	0.00833333333333333	0	-30	-2.37291666666667	1	0.5849609375
3851.421875	0.00833333333333333	0	-30	-2.37291666666667	1	0.5703125
3854.447265625	0.00833333333333333	0	-30	-2.37291666666667	1	0.513671875
3857.2138671875	0.00833333333333333	0	30	10.41875	2	0.619140625
3860.013671875	0.00833333333333333	0	30	10.29375	1	1.1875
3863.638671875	0.00833333333333333	0	-30	-2.24791666666667	1	0.6025390625
3866.6142578125	0.00833333333333333	0	30	10.29375	2	0.37109375
3869.10546875	0.00833333333333333	0	30	10.29375	2	1.19140625
3872.638671875	0.00833333333333333	0	-30	-2.24791666666667	1	0.4267578125
3875.23046875	0.00833333333333333	0	30	10.29375	2	0.5869140625
3877.9638671875	0.00833333333333333	0	30	10.29375	2	0.4931640625
3880.8642578125	0.00833333333333333	0	30	10.29375	2	0.521484375
3883.6474609375	0.00833333333333333	0	-30	-2.24791666666667	1	0.818359375
3886.572265625	0.00833333333333333	0	-30	-2.24791666666667	1	0.6611328125
3889.48828125	0.00833333333333333	0	30	10.16875	2	0.76953125
3892.7470703125	0.00833333333333333	0	-30	-2.24791666666667	1	0.54296875
3895.48046875	0.00833333333333333	0	30	10.16875	2	0.76953125
3898.455078125	0.00833333333333333	0	-30	-2.12291666666667	1	0.37109375
3901.021484375	0.00833333333333333	0	-30	-2.12291666666667	2	0.748046875
3904.3466796875	0.00833333333333333	0	-30	-2.12291666666667	1	0.447265625
3907.0634765625	0.00833333333333333	0	-30	-2.12291666666667	1	0.5068359375
3909.5966796875	0.00833333333333333	0	30	10.16875	2	0.7099609375
3912.421875	0.00833333333333333	0	-30	-2.12291666666667	1	0.5087890625
3915.263671875	0.00833333333333333	0	-30	-2.12291666666667	1	0.4345703125
3918.138671875	0.00833333333333333	0	-30	-2.12291666666667	1	0.408203125
3920.62890625	0.00833333333333333	0	30	10.16875	2	0.7099609375
3923.7626953125	0.00833333333333333	0	-30	-1.99791666666667	1	0.568359375
3926.7880859375	0.00833333333333333	0	30	10.16875	2	0.5185546875
3929.4052734375	0.00833333333333333	0	-30	-1.99791666666667	1	0.830078125
3932.337890625	0.00833333333333333	0	-30	-1.99791666666667	1	0.7451171875
3935.2958984375	0.00833333333333333	0	30	10.04375	2	0.5869140625
3938.37109375	0.00833333333333333	0	-30	-1.99791666666667	1	0.576171875
3941.287109375	0.00833333333333333	0	-30	-1.99791666666667	1	0.6044921875
3944.0048828125	0.00833333333333333	0	-30	-1.87291666666667	1	0.5341796875
3946.62109375	0.00833333333333333	0	30	10.04375	2	0.91015625
3949.7548828125	0.00833333333333333	0	-30	-1.87291666666667	1	0.224609375
3952.24609375	0.00833333333333333	0	-30	-1.87291666666667	1	0.6455078125
3955.2880859375	0.00833333333333333	0	30	10.04375	1	0.5478515625
3958.3369140625	0.00833333333333333	0	-30	-1.87291666666667	1	0.5625
3961.37109375	0.00833333333333333	0	30	10.04375	2	0.5205078125
3963.99609375	0.00833333333333333	0	30	10.04375	2	0.6318359375
3966.837890625	0.00833333333333333	0	30	10.04375	1	0.89453125
3970.0625	0.00833333333333333	0	30	10.04375	2	0.4453125
3972.845703125	0.00833333333333333	0	-30	-1.87291666666667	1	0.54296875
3975.87109375	0.00833333333333333	0	-30	-1.74791666666667	1	0.59765625
3978.5791015625	0.00833333333333333	0	-30	-1.74791666666667	1	0.4892578125
3981.4365234375	0.00833333333333333	0	-30	-1.74791666666667	1	0.5283203125
3984.1708984375	0.00833333333333333	0	30	10.04375	1	1.0576171875
3987.51171875	0.00833333333333333	0	-30	-1.74791666666667	1	0.5966796875
3990.3876953125	0.00833333333333333	0	30	10.04375	2	0.5849609375
3993.1708984375	0.00833333333333333	0	-30	-1.74791666666667	1	0.7138671875
3996.103515625	0.00833333333333333	0	-30	-1.62291666666667	2	0.91796875
3999.478515625	0.00833333333333333	0	-30	-1.62291666666667	1	0.55078125
4002.4951171875	0.00833333333333333	0	30	10.04375	2	0.9580078125
4005.5693359375	0.00833333333333333	0	30	10.04375	2	0.6845703125
4008.345703125	0.00833333333333333	0	-30	-1.62291666666667	1	1.5244140625
4012.361328125	0.00833333333333333	0	30	10.04375	2	0.7802734375
4015.3369140625	0.00833333333333333	0	-30	-1.62291666666667	1	0.564453125
4018.0771484375	0.00833333333333333	0	-30	-1.62291666666667	1	0.48046875
4020.728515625	0.00833333333333333	0	30	10.04375	2	0.7412109375
4023.7607421875	0.00833333333333333	0	-30	-1.62291666666667	1	0.5576171875
4026.5869140625	0.00833333333333333	0	-30	-1.49791666666667	1	0.603515625
4029.228515625	0.00833333333333333	0	30	9.91875	2	0.90625
4032.2197265625	0.00833333333333333	0	30	9.91875	2	0.73046875
4035.244140625	0.00833333333333333	0	-30	-1.49791666666667	1	0.4736328125
4037.8203125	0.00833333333333333	0	-30	-1.49791666666667	1	0.5380859375
4040.71875	0.00833333333333333	0	30	9.91875	2	0.5517578125
4043.611328125	0.00833333333333333	0	-30	-1.49791666666667	1	0.7236328125
4046.51171875	0.00833333333333333	0	30	9.91875	2	0.52734375
4091.4775390625	0.00833333333333333	0	30	9.91875	2	1.2265625
4095.185546875	0.00833333333333333	0	-30	-1.49791666666667	1	0.4306640625
4098.0517578125	0.00833333333333333	0	-30	-1.37291666666667	2	0.6845703125
4100.84375	0.00833333333333333	0	-30	-1.37291666666667	2	0.5966796875
4103.6357421875	0.00833333333333333	0	30	9.79375	1	1.1650390625
4106.9609375	0.00833333333333333	0	-30	-1.37291666666667	2	0.7197265625
4109.7685546875	0.00833333333333333	0	-30	-1.37291666666667	2	0.5205078125
4112.5185546875	0.00833333333333333	0	-30	-1.37291666666667	2	0.5380859375
4115.4267578125	0.00833333333333333	0	-30	-1.49791666666667	2	0.9658203125
4118.7099609375	0.00833333333333333	0	30	9.79375	2	0.794921875
4121.77734375	0.00833333333333333	0	30	9.79375	2	0.6474609375
4124.4931640625	0.00833333333333333	0	-30	-1.49791666666667	2	0.66796875
4127.3681640625	0.00833333333333333	0	30	9.79375	1	1.017578125
4130.435546875	0.00833333333333333	0	-30	-1.49791666666667	2	0.6142578125
4133.2177734375	0.00833333333333333	0	-30	-1.49791666666667	2	0.6796875
4136.0517578125	0.00833333333333333	0	30	9.79375	1	0.8779296875
4139.376953125	0.00833333333333333	0	30	9.79375	1	1.0009765625
4142.876953125	0.00833333333333333	0	-30	-1.49791666666667	2	0.7724609375
4146.001953125	0.00833333333333333	0	-30	-1.62291666666667	2	0.6396484375
4149.1015625	0.00833333333333333	0	-30	-1.62291666666667	2	0.65234375
4151.8427734375	0.00833333333333333	0	30	9.79375	1	0.6953125
4155.091796875	0.00833333333333333	0	30	9.79375	1	0.8623046875
4158.201171875	0.00833333333333333	0	-30	-1.62291666666667	1	0.46484375
4161.0263671875	0.00833333333333333	0	30	9.91875	2	0.51171875
4163.6015625	0.00833333333333333	0	-30	-1.62291666666667	1	0.6484375
4166.30859375	0.00833333333333333	0	-30	-1.62291666666667	1	0.7099609375
4169.16015625	0.00833333333333333	0	30	9.91875	2	0.4501953125
4171.9169921875	0.00833333333333333	0	30	9.91875	2	0.75
4175.0341796875	0.00833333333333333	0	30	9.91875	2	0.5927734375
4177.734375	0.00833333333333333	0	30	9.91875	2	0.732421875
4180.79296875	0.00833333333333333	0	-30	-1.62291666666667	2	0.5625
4183.8671875	0.00833333333333333	0	30	9.79375	1	1.2880859375
4187.2333984375	0.00833333333333333	0	-30	-1.62291666666667	1	0.7060546875
4189.9677734375	0.00833333333333333	0	-30	-1.62291666666667	2	0.779296875
4193.2255859375	0.00833333333333333	0	30	9.79375	2	0.75390625
4196.41796875	0.00833333333333333	0	30	9.79375	1	0.8818359375
4199.66796875	0.00833333333333333	0	-30	-1.62291666666667	2	1.015625
4203.17578125	0.00833333333333333	0	30	9.79375	1	0.8115234375
4206.1171875	0.00833333333333333	0	30	9.79375	1	0.7421875
4209.2001953125	0.00833333333333333	0	-30	-1.62291666666667	2	0.771484375
4212.2412109375	0.00833333333333333	0	30	9.79375	1	0.6826171875
4215.3251953125	0.00833333333333333	0	-30	-1.62291666666667	2	0.5908203125
4218.142578125	0.00833333333333333	0	30	9.79375	2	0.861328125
4221.2001953125	0.00833333333333333	0	30	9.79375	1	0.5322265625
4224.091796875	0.00833333333333333	0	30	9.79375	2	0.5849609375
4227.0908203125	0.00833333333333333	0	30	9.79375	1	0.8974609375
4230.091796875	0.00833333333333333	0	-30	-1.62291666666667	2	0.880859375
4233.18359375	0.00833333333333333	0	-30	-1.74791666666667	2	0.7490234375
4236.3837890625	0.00833333333333333	0	30	9.79375	2	0.556640625
4239.30859375	0.00833333333333333	0	-30	-1.74791666666667	1	0.65625
4242.033203125	0.00833333333333333	0	-30	-1.74791666666667	2	0.603515625
4244.7998046875	0.00833333333333333	0	-30	-1.74791666666667	2	0.8369140625
4247.7998046875	0.00833333333333333	0	30	9.79375	1	0.5810546875
4250.68359375	0.00833333333333333	0	-30	-1.74791666666667	2	0.5380859375
4253.6240234375	0.00833333333333333	0	30	9.79375	2	0.5576171875
4256.7080078125	0.00833333333333333	0	-30	-1.74791666666667	1	0.77734375
4259.783203125	0.00833333333333333	0	-30	-1.74791666666667	2	0.5263671875
4262.666015625	0.00833333333333333	0	30	9.79375	1	0.939453125
4266.0576171875	0.00833333333333333	0	-30	-1.74791666666667	2	0.7802734375
4269.3330078125	0.00833333333333333	0	-30	-1.74791666666667	1	0.4970703125
4271.9912109375	0.00833333333333333	0	30	9.79375	1	0.7666015625
4274.849609375	0.00833333333333333	0	-30	-1.74791666666667	2	0.6201171875
4277.8408203125	0.00833333333333333	0	30	9.79375	1	0.884765625
4281.2578125	0.00833333333333333	0	30	9.79375	2	0.5087890625
4284.2998046875	0.00833333333333333	0	-30	-1.74791666666667	1	0.6904296875
4287.099609375	0.00833333333333333	0	-30	-1.74791666666667	2	0.72265625
4289.982421875	0.00833333333333333	0	30	9.79375	1	0.8876953125
4293.19140625	0.00833333333333333	0	30	9.79375	2	0.599609375
4296.0830078125	0.00833333333333333	0	30	9.79375	2	0.66796875
4298.9912109375	0.00833333333333333	0	30	9.79375	2	0.7197265625
4301.9990234375	0.00833333333333333	0	30	9.79375	1	0.6875
4304.8662109375	0.00833333333333333	0	-30	-1.74791666666667	2	0.8525390625
4307.9404296875	0.00833333333333333	0	-30	-1.74791666666667	2	0.546875
4310.7412109375	0.00833333333333333	0	-30	-1.74791666666667	2	0.8017578125
4313.640625	0.00833333333333333	0	-30	-1.74791666666667	2	0.646484375
4316.5478515625	0.00833333333333333	0	30	9.79375	2	0.619140625
4319.4326171875	0.00833333333333333	0	-30	-1.87291666666667	1	0.54296875
4322.1572265625	0.00833333333333333	0	30	9.79375	2	0.5146484375
4324.8984375	0.00833333333333333	0	-30	-1.87291666666667	1	0.4375
4327.8486328125	0.00833333333333333	0	-30	-1.87291666666667	1	0.470703125
4366.3818359375	0.00833333333333333	0	30	9.79375	2	0.5546875
4369.1318359375	0.00833333333333333	0	30	9.79375	2	0.62890625
4372.1728515625	0.00833333333333333	0	30	9.79375	1	1.00390625
4375.4736328125	0.00833333333333333	0	30	9.79375	2	0.9755859375
4378.5234375	0.00833333333333333	0	30	9.79375	2	0.509765625
4381.5400390625	0.00833333333333333	0	-30	-1.87291666666667	1	0.685546875
4384.5068359375	0.00833333333333333	0	30	9.79375	1	0.8466796875
4387.623046875	0.00833333333333333	0	30	9.79375	2	0.5390625
4390.53125	0.00833333333333333	0	30	9.79375	2	1.9423828125
4394.748046875	0.00833333333333333	0	30	9.79375	2	0.7333984375
4397.5634765625	0.00833333333333333	0	30	9.79375	2	0.654296875
4400.296875	0.00833333333333333	0	-30	-1.87291666666667	1	0.8330078125
4403.34765625	0.00833333333333333	0	30	9.79375	1	0.966796875
4406.7646484375	0.00833333333333333	0	-30	-1.74791666666667	2	0.533203125
4409.697265625	0.00833333333333333	0	30	9.79375	2	0.43359375
4412.2978515625	0.00833333333333333	0	-30	-1.74791666666667	1	0.6484375
4415.146484375	0.00833333333333333	0	-30	-1.74791666666667	1	0.568359375
4417.9140625	0.00833333333333333	0	30	9.79375	2	0.5361328125
4420.7890625	0.00833333333333333	0	30	9.79375	2	1.4052734375
4424.572265625	0.00833333333333333	0	-30	-1.74791666666667	1	0.494140625
4427.4140625	0.00833333333333333	0	30	9.79375	2	0.541015625
4430.029296875	0.00833333333333333	0	-30	-1.74791666666667	1	0.61328125
4433.064453125	0.00833333333333333	0	30	9.79375	2	0.5703125
4436.1474609375	0.00833333333333333	0	-30	-1.74791666666667	1	0.1357421875
4438.4560546875	0.00833333333333333	0	30	9.66875	2	0.6669921875
4441.37109375	0.00833333333333333	0	30	9.66875	2	0.9130859375
4444.447265625	0.00833333333333333	0	30	9.66875	2	0.572265625
4447.1474609375	0.00833333333333333	0	-30	-1.62291666666667	1	0.431640625
4450.11328125	0.00833333333333333	0	30	9.66875	2	0.578125
4452.8388671875	0.00833333333333333	0	30	9.66875	1	1.3251953125
4456.24609375	0.00833333333333333	0	-30	-1.62291666666667	1	0.837890625
4459.296875	0.00833333333333333	0	-30	-1.62291666666667	1	0.5869140625
4461.9716796875	0.00833333333333333	0	-30	-1.62291666666667	1	0.6240234375
4464.73046875	0.00833333333333333	0	-30	-1.62291666666667	1	0.6259765625
4467.830078125	0.00833333333333333	0	-30	-1.49791666666667	2	0.6865234375
4471.0888671875	0.00833333333333333	0	30	9.66875	2	0.5400390625
4473.896484375	0.00833333333333333	0	30	9.66875	1	0.763671875
4476.9462890625	0.00833333333333333	0	30	9.66875	1	0.6982421875
4479.8955078125	0.00833333333333333	0	30	9.66875	1	0.62890625
4482.8466796875	0.00833333333333333	0	30	9.66875	1	0.6298828125
4485.7294921875	0.00833333333333333	0	-30	-1.49791666666667	2	0.9794921875
4488.9619140625	0.00833333333333333	0	30	9.66875	2	0.5146484375
4491.73828125	0.00833333333333333	0	30	9.66875	1	0.5947265625
4494.3466796875	0.00833333333333333	0	30	9.66875	2	0.7705078125
4497.6630859375	0.00833333333333333	0	30	9.66875	2	0.58203125
4500.5458984375	0.00833333333333333	0	30	9.66875	1	0.7158203125
4503.4462890625	0.00833333333333333	0	30	9.66875	2	0.9833984375
4506.5712890625	0.00833333333333333	0	30	9.66875	2	0.8017578125
4509.6630859375	0.00833333333333333	0	-30	-1.49791666666667	1	0.9267578125
4512.86328125	0.00833333333333333	0	-30	-1.49791666666667	1	0.56640625
4515.7041015625	0.00833333333333333	0	-30	-1.49791666666667	1	0.669921875
4518.419921875	0.00833333333333333	0	-30	-1.49791666666667	1	0.8818359375
4521.49609375	0.00833333333333333	0	30	9.66875	1	0.6455078125
4524.5869140625	0.00833333333333333	0	30	9.66875	2	0.6591796875
4527.5380859375	0.00833333333333333	0	-30	-1.49791666666667	2	0.7568359375
4530.6708984375	0.00833333333333333	0	-30	-1.49791666666667	1	0.6708984375
4533.6123046875	0.00833333333333333	0	-30	-1.49791666666667	1	0.8583984375
4536.99609375	0.00833333333333333	0	30	9.66875	2	0.5146484375
4539.62109375	0.00833333333333333	0	30	9.66875	2	0.5771484375
4542.5537109375	0.00833333333333333	0	-30	-1.49791666666667	2	0.7646484375
4545.75390625	0.00833333333333333	0	-30	-1.49791666666667	2	0.5888671875
4548.728515625	0.00833333333333333	0	30	9.66875	2	0.669921875
4551.7197265625	0.00833333333333333	0	-30	-1.49791666666667	2	0.6630859375
4554.8291015625	0.00833333333333333	0	-30	-1.49791666666667	2	0.7138671875
4557.6875	0.00833333333333333	0	-30	-1.49791666666667	2	0.751953125
4560.9443359375	0.00833333333333333	0	-30	-1.62291666666667	2	0.8466796875
4563.8701171875	0.00833333333333333	0	30	9.66875	2	0.537109375
4566.8525390625	0.00833333333333333	0	30	9.54375	2	0.634765625
4569.9619140625	0.00833333333333333	0	30	9.54375	2	0.6220703125
4572.9873046875	0.00833333333333333	0	-30	-1.62291666666667	2	0.5966796875
4575.919921875	0.00833333333333333	0	-30	-1.62291666666667	2	0.7353515625
4579.1357421875	0.00833333333333333	0	-30	-1.62291666666667	2	0.671875
4582.111328125	0.00833333333333333	0	30	9.54375	1	0.544921875
4585.1201171875	0.00833333333333333	0	30	9.54375	1	0.6484375
4587.9619140625	0.00833333333333333	0	-30	-1.62291666666667	2	1.2138671875
4591.2783203125	0.00833333333333333	0	30	9.54375	1	0.626953125
4594.0615234375	0.00833333333333333	0	-30	-1.74791666666667	2	0.6748046875
4596.912109375	0.00833333333333333	0	30	9.54375	1	0.9287109375
4599.9619140625	0.00833333333333333	0	-30	-1.74791666666667	1	0.654296875
4603.03515625	0.00833333333333333	0	30	9.54375	2	0.9736328125
