onset	duration	titr	surround	centre	response	rt
12.384765625	0.00833333333333333	1	30	15	2	0.8974609375
15.66796875	0.00833333333333333	1	NaN	15	2	0.8544921875
18.5263671875	0.00833333333333333	1	NaN	14	2	0.755859375
21.392578125	0.00833333333333333	1	-30	-15	1	0.505859375
24.3857421875	0.00833333333333333	1	30	-15	1	0.79296875
27.6259765625	0.00833333333333333	1	NaN	-15	1	1.0322265625
31.05078125	0.00833333333333333	1	NaN	13	2	0.7197265625
33.8505859375	0.00833333333333333	1	30	14	2	1.4248046875
37.2509765625	0.00833333333333333	1	-30	15	2	0.7763671875
40.400390625	0.00833333333333333	1	30	-14	1	0.626953125
43.0419921875	0.00833333333333333	1	-30	-14	1	0.857421875
46.1669921875	0.00833333333333333	1	NaN	12	2	0.564453125
48.7666015625	0.00833333333333333	1	NaN	11	2	0.8203125
51.734375	0.00833333333333333	1	NaN	10	2	0.7333984375
54.625	0.00833333333333333	1	30	-13	1	0.5703125
57.2587890625	0.00833333333333333	1	30	13	2	0.65625
60.0341796875	0.00833333333333333	1	-30	-13	1	0.6572265625
62.875	0.00833333333333333	1	-30	-12	1	0.9130859375
65.80078125	0.00833333333333333	1	NaN	-14	1	0.603515625
68.6923828125	0.00833333333333333	1	30	12	2	0.7431640625
71.6591796875	0.00833333333333333	1	NaN	-13	1	0.6806640625
74.5087890625	0.00833333333333333	1	-30	-11	1	1.53515625
78.1171875	0.00833333333333333	1	-30	14	2	0.798828125
81.2998046875	0.00833333333333333	1	NaN	9	2	0.728515625
84.5	0.00833333333333333	1	30	-12	1	0.6962890625
87.18359375	0.00833333333333333	1	NaN	-12	1	0.6845703125
90.2236328125	0.00833333333333333	1	NaN	8	2	0.7568359375
93.400390625	0.00833333333333333	1	-30	13	2	0.7001953125
96.44140625	0.00833333333333333	1	NaN	7	2	0.7392578125
99.2578125	0.00833333333333333	1	30	-11	1	0.603515625
102.0244140625	0.00833333333333333	1	NaN	6	2	0.62890625
104.974609375	0.00833333333333333	1	30	11	2	0.7509765625
107.783203125	0.00833333333333333	1	30	10	2	1.341796875
111.216796875	0.00833333333333333	1	NaN	-11	1	1.4921875
114.9912109375	0.00833333333333333	1	30	9	2	1.40625
118.5576171875	0.00833333333333333	1	30	-10	1	1.16796875
122.0986328125	0.00833333333333333	1	NaN	-10	1	0.8427734375
124.974609375	0.00833333333333333	1	NaN	5	2	2.4794921875
129.5244140625	0.00833333333333333	1	NaN	-9	1	0.857421875
132.498046875	0.00833333333333333	1	NaN	4	2	0.580078125
135.3828125	0.00833333333333333	1	NaN	-8	1	0.4951171875
137.890625	0.00833333333333333	1	-30	-10	1	1.291015625
141.5068359375	0.00833333333333333	1	NaN	-7	1	1.1318359375
145.03125	0.00833333333333333	1	30	-9	1	0.87109375
147.94921875	0.00833333333333333	1	-30	12	2	0.80078125
150.982421875	0.00833333333333333	1	-30	11	2	0.84765625
153.9072265625	0.00833333333333333	1	-30	-9	1	1.3310546875
157.2822265625	0.00833333333333333	1	30	-8	1	0.9970703125
160.5576171875	0.00833333333333333	1	30	-7	1	0.8095703125
163.4736328125	0.00833333333333333	1	NaN	-6	1	0.708984375
166.2490234375	0.00833333333333333	1	-30	10	2	0.8779296875
169.2900390625	0.00833333333333333	1	-30	9	2	0.7568359375
172.2060546875	0.00833333333333333	1	-30	8	2	0.79296875
175.390625	0.00833333333333333	1	30	-6	1	0.873046875
178.20703125	0.00833333333333333	1	-30	-8	2	2.6640625
183.048828125	0.00833333333333333	1	-30	7	2	0.87890625
186.265625	0.00833333333333333	1	NaN	-5	1	1.1181640625
189.7822265625	0.00833333333333333	1	NaN	3	2	0.7060546875
192.5068359375	0.00833333333333333	1	NaN	2	2	0.685546875
195.306640625	0.00833333333333333	1	30	8	2	1.1572265625
198.7900390625	0.00833333333333333	1	-30	-9	2	1.7060546875
202.65625	0.00833333333333333	1	-30	-10	1	1.3681640625
206.115234375	0.00833333333333333	1	30	-5	1	1.27734375
209.8564453125	0.00833333333333333	1	30	7	2	1.34375
213.431640625	0.00833333333333333	1	-30	6	2	0.8564453125
216.72265625	0.00833333333333333	1	-30	5	2	0.830078125
219.8310546875	0.00833333333333333	1	30	6	2	1.41796875
223.5634765625	0.00833333333333333	1	NaN	-4	2	1.8212890625
227.796875	0.00833333333333333	1	30	5	2	1.1796875
231.3388671875	0.00833333333333333	1	30	-4	1	1.0224609375
234.4716796875	0.00833333333333333	1	NaN	-5	1	0.9775390625
237.9140625	0.00833333333333333	1	-30	4	2	0.6318359375
240.5556640625	0.00833333333333333	1	30	-3	1	0.91796875
243.4716796875	0.00833333333333333	1	-30	3	2	1.0419921875
246.5224609375	0.00833333333333333	1	-30	-9	1	1.3349609375
250.1396484375	0.00833333333333333	1	NaN	-4	1	1.8701171875
254.072265625	0.00833333333333333	1	30	-2	1	0.9775390625
257.1298828125	0.00833333333333333	1	-30	2	2	0.7998046875
260.0224609375	0.00833333333333333	1	NaN	1	2	1.1396484375
263.1474609375	0.00833333333333333	1	30	4	2	1.21484375
266.4052734375	0.00833333333333333	1	30	3	2	1.0615234375
269.7294921875	0.00833333333333333	1	30	2	2	1.376953125
273.087890625	0.00833333333333333	1	NaN	0	1	2.1865234375
277.447265625	0.00833333333333333	1	NaN	-3	1	0.9716796875
280.697265625	0.00833333333333333	1	-30	1	2	0.7060546875
283.6474609375	0.00833333333333333	1	-30	-8	2	1.3076171875
286.9541015625	0.00833333333333333	1	-30	-9	1	1.705078125
291.10546875	0.00833333333333333	1	NaN	-2	2	1.009765625
294.546875	0.00833333333333333	1	-30	-8	2	1.4638671875
298.3388671875	0.00833333333333333	1	30	-1	1	1.583984375
301.9296875	0.00833333333333333	1	-30	0	2	0.9375
304.9794921875	0.00833333333333333	1	NaN	-3	2	1.6796875
308.955078125	0.00833333333333333	1	NaN	1	2	0.9208984375
312.3466796875	0.00833333333333333	1	30	0	1	2.216796875
459.9853515625	0.00833333333333333	1	NaN	0	2	1.4794921875
463.8017578125	0.00833333333333333	1	-30	-9	2	1.4072265625
467.501953125	0.00833333333333333	1	30	1	1	0.8349609375
470.4931640625	0.00833333333333333	1	NaN	-1	1	0.9794921875
473.8271484375	0.00833333333333333	1	-30	-10	1	1.2216796875
477.1181640625	0.00833333333333333	1	-30	-9	1	1.1787109375
480.4443359375	0.00833333333333333	1	30	2	1	1.3251953125
483.8857421875	0.00833333333333333	1	-30	-8	1	1.267578125
487.4521484375	0.00833333333333333	1	30	3	2	1.212890625
490.65234375	0.00833333333333333	1	30	1	1	0.9970703125
493.994140625	0.00833333333333333	1	-30	-1	2	0.6875
496.7275390625	0.00833333333333333	1	NaN	0	2	0.9140625
499.96875	0.00833333333333333	1	30	2	1	0.7373046875
503.0185546875	0.00833333333333333	1	30	2	1	0.630859375
506.109375	0.00833333333333333	1	30	3	1	1.4931640625
509.8271484375	0.00833333333333333	1	NaN	-4	1	0.71875
512.78515625	0.00833333333333333	1	NaN	-1	2	0.9052734375
515.71875	0.00833333333333333	1	30	4	1	0.8359375
518.7587890625	0.00833333333333333	1	NaN	-3	1	0.8515625
521.78515625	0.00833333333333333	1	NaN	-2	1	0.6416015625
524.6005859375	0.00833333333333333	1	-30	-7	1	0.73828125
527.79296875	0.00833333333333333	1	NaN	-2	1	0.75390625
530.4931640625	0.00833333333333333	1	30	3	1	0.7900390625
533.384765625	0.00833333333333333	1	30	5	2	0.8740234375
536.2265625	0.00833333333333333	1	30	4	2	1.728515625
540.1181640625	0.00833333333333333	1	30	3	2	1.1884765625
543.767578125	0.00833333333333333	1	NaN	-1	2	1.267578125
547.2265625	0.00833333333333333	1	30	2	1	2.2646484375
551.8671875	0.00833333333333333	1	30	3	1	1.072265625
554.984375	0.00833333333333333	1	30	4	1	1.34765625
558.658203125	0.00833333333333333	1	30	5	2	0.77734375
561.642578125	0.00833333333333333	1	30	4	2	0.75390625
564.4580078125	0.00833333333333333	1	-30	-2	2	0.75390625
567.3427734375	0.00833333333333333	1	30	3	2	0.861328125
570.1923828125	0.00833333333333333	1	NaN	-2	2	1.091796875
573.267578125	0.00833333333333333	1	NaN	-1	2	0.9287109375
576.3505859375	0.00833333333333333	1	-30	-6	2	0.7177734375
579.349609375	0.00833333333333333	1	-30	-3	2	0.5986328125
582.4169921875	0.00833333333333333	1	-30	-4	2	0.67578125
585.517578125	0.00833333333333333	1	NaN	-2	2	1.6787109375
589.6669921875	0.00833333333333333	1	30	2	1	0.8818359375
592.9423828125	0.00833333333333333	1	-30	-5	2	0.87890625
595.8759765625	0.00833333333333333	1	-30	-7	1	0.9453125
599.0673828125	0.00833333333333333	1	30	3	2	0.9375
602.0673828125	0.00833333333333333	1	30	4	2	0.833984375
605.025390625	0.00833333333333333	1	-30	-6	2	0.740234375
607.8173828125	0.00833333333333333	1	-30	-6	2	0.923828125
610.7587890625	0.00833333333333333	1	NaN	-3	1	0.8544921875
613.81640625	0.00833333333333333	1	30	3	2	0.8369140625
616.6748046875	0.00833333333333333	1	NaN	-3	1	0.7392578125
619.8251953125	0.00833333333333333	1	NaN	-2	2	0.6923828125
622.5419921875	0.00833333333333333	1	30	2	1	0.7998046875
625.400390625	0.00833333333333333	1	-30	-7	1	1.3095703125
629	0.00833333333333333	1	-30	-7	1	1.5185546875
632.68359375	0.00833333333333333	1	-30	-6	2	0.8662109375
636.0166015625	0.00833333333333333	1	30	3	2	1.5654296875
640.0166015625	0.00833333333333333	1	-30	-7	1	1.1416015625
643.416015625	0.00833333333333333	1	30	2	1	1.3984375
646.875	0.00833333333333333	1	-30	-6	2	1.01953125
649.916015625	0.00833333333333333	1	30	2	2	2.0029296875
654.0498046875	0.00833333333333333	1	30	3	2	1.9326171875
658.0908203125	0.00833333333333333	1	30	2	1	1.1962890625
661.3916015625	0.00833333333333333	1	NaN	-3	1	1.2158203125
664.990234375	0.00833333333333333	1	30	1	1	0.888671875
667.8994140625	0.00833333333333333	1	-30	-7	1	0.7802734375
671.1494140625	0.00833333333333333	1	NaN	-2	1	0.75390625
673.8916015625	0.00833333333333333	1	NaN	-1	1	1.267578125
677.19921875	0.00833333333333333	1	NaN	0	2	1.0087890625
680.607421875	0.00833333333333333	1	NaN	-1	2	0.6728515625
683.298828125	0.00833333333333333	1	30	2	1	0.8134765625
686.3740234375	0.00833333333333333	1	NaN	-2	1	0.986328125
689.640625	0.00833333333333333	1	NaN	-2	2	0.85546875
692.498046875	0.00833333333333333	1	-30	-6	1	1.89453125
696.4404296875	0.00833333333333333	1	NaN	-1	1	2.4326171875
701.1904296875	0.00833333333333333	1	NaN	0	2	0.6904296875
704.1826171875	0.00833333333333333	1	NaN	-3	1	0.818359375
707.0908203125	0.00833333333333333	1	-30	-5	2	1.173828125
710.5810546875	0.00833333333333333	1	30	3	1	0.9873046875
713.5908203125	0.00833333333333333	1	30	4	1	1.1064453125
716.8896484375	0.00833333333333333	1	-30	-6	2	0.791015625
719.82421875	0.00833333333333333	1	-30	-7	2	0.9443359375
723.1064453125	0.00833333333333333	1	30	5	2	0.9345703125
726.3154296875	0.00833333333333333	1	30	4	1	1.837890625
730.248046875	0.00833333333333333	1	30	5	2	0.78515625
733.4560546875	0.00833333333333333	1	30	4	2	0.865234375
736.623046875	0.00833333333333333	1	-30	-8	1	0.978515625
739.806640625	0.00833333333333333	1	-30	-7	1	1.0986328125
743.314453125	0.00833333333333333	1	-30	-6	2	0.87109375
746.189453125	0.00833333333333333	1	30	3	1	0.716796875
749.08203125	0.00833333333333333	1	-30	-7	1	1.1279296875
752.248046875	0.00833333333333333	1	NaN	-2	1	0.9384765625
755.3564453125	0.00833333333333333	1	-30	-6	2	1.021484375
758.7314453125	0.00833333333333333	1	NaN	-1	1	0.943359375
771.84765625	0.00833333333333333	1	30	4	1	0.8427734375
774.873046875	0.00833333333333333	1	30	5	2	0.697265625
777.755859375	0.00833333333333333	1	NaN	0	2	0.6953125
780.9140625	0.00833333333333333	1	NaN	-1	2	1.392578125
784.73828125	0.00833333333333333	1	NaN	-2	1	0.7607421875
787.4892578125	0.00833333333333333	1	NaN	-1.16666666666667	1	0.90625
790.580078125	0.00833333333333333	1	-30	-6.41666666666667	2	0.703125
793.6728515625	0.00833333333333333	1	30	3.83333333333333	2	1.1708984375
797.0146484375	0.00833333333333333	1	-30	-6.54166666666667	1	1.533203125
801.015625	0.00833333333333333	1	30	3.70833333333333	2	0.9638671875
803.9560546875	0.00833333333333333	1	-30	-7.41666666666667	1	1.095703125
807.2548828125	0.00833333333333333	1	-30	-6.41666666666667	1	1.1015625
810.3388671875	0.00833333333333333	1	30	2.83333333333333	1	1.265625
813.7060546875	0.00833333333333333	1	-30	-7.29166666666667	1	1.05859375
816.779296875	0.00833333333333333	1	30	3.58333333333333	1	1.15234375
820.380859375	0.00833333333333333	1	30	2.95833333333333	1	0.927734375
823.61328125	0.00833333333333333	1	-30	-7.16666666666667	1	2.294921875
828.1298828125	0.00833333333333333	1	-30	-6.29166666666667	2	0.84375
831.046875	0.00833333333333333	1	30	3.70833333333333	1	1.5576171875
834.646484375	0.00833333333333333	1	NaN	-2.16666666666667	1	1.7099609375
838.5625	0.00833333333333333	1	-30	-7.04166666666667	2	0.890625
841.6298828125	0.00833333333333333	1	-30	-7.16666666666667	1	0.935546875
844.9052734375	0.00833333333333333	1	NaN	-2.04166666666667	2	0.724609375
847.8720703125	0.00833333333333333	1	-30	-6.41666666666667	1	0.8447265625
851.0126953125	0.00833333333333333	1	NaN	-1.04166666666667	2	1.888671875
855.2548828125	0.00833333333333333	1	-30	-6.29166666666667	1	1.1826171875
858.5966796875	0.00833333333333333	1	-30	-6.16666666666667	1	1.0009765625
861.671875	0.00833333333333333	1	NaN	-1.16666666666667	2	0.8134765625
864.61328125	0.00833333333333333	1	NaN	-2.16666666666667	1	1.14453125
868.0205078125	0.00833333333333333	1	NaN	-1.29166666666667	2	1.8896484375
872.087890625	0.00833333333333333	1	30	3.83333333333333	2	0.765625
875.021484375	0.00833333333333333	1	-30	-6.04166666666667	2	0.7763671875
877.8876953125	0.00833333333333333	1	30	3.08333333333333	1	1.2783203125
881.2880859375	0.00833333333333333	1	NaN	-1.41666666666667	2	0.822265625
884.521484375	0.00833333333333333	1	30	3.20833333333333	2	0.8447265625
887.5380859375	0.00833333333333333	1	30	3.70833333333333	1	0.748046875
890.36328125	0.00833333333333333	1	-30	-7.04166666666667	2	1.0029296875
893.8291015625	0.00833333333333333	1	-30	-7.16666666666667	1	1.498046875
897.4453125	0.00833333333333333	1	NaN	-1.54166666666667	1	1.0810546875
900.5380859375	0.00833333333333333	1	NaN	-1.41666666666667	1	0.7177734375
903.62890625	0.00833333333333333	1	NaN	-1.29166666666667	1	0.7705078125
906.4130859375	0.00833333333333333	1	30	3.83333333333333	2	1.59375
910.1630859375	0.00833333333333333	1	-30	-7.04166666666667	1	1.33984375
913.8046875	0.00833333333333333	1	-30	-6.16666666666667	2	1.138671875
917.1123046875	0.00833333333333333	1	-30	-6.29166666666667	2	0.9990234375
920.4287109375	0.00833333333333333	1	-30	-6.41666666666667	2	1.0029296875
923.74609375	0.00833333333333333	1	-30	-6.91666666666667	1	0.9580078125
926.654296875	0.00833333333333333	1	30	3.08333333333333	1	1.193359375
930.0126953125	0.00833333333333333	1	30	3.70833333333333	2	2.2197265625
934.4375	0.00833333333333333	1	-30	-6.79166666666667	1	0.7548828125
937.353515625	0.00833333333333333	1	-30	-6.54166666666667	1	0.791015625
940.24609375	0.00833333333333333	1	30	3.20833333333333	1	0.90625
943.27734375	0.00833333333333333	1	NaN	-2.04166666666667	2	0.8349609375
946.3037109375	0.00833333333333333	1	-30	-6.41666666666667	1	0.8330078125
949.236328125	0.00833333333333333	1	30	3.58333333333333	2	1.15625
952.7451171875	0.00833333333333333	1	-30	-6.66666666666667	2	0.86328125
956.0693359375	0.00833333333333333	1	-30	-6.29166666666667	1	1.84375
960.37890625	0.00833333333333333	1	30	3.45833333333333	2	1.1982421875
963.6455078125	0.00833333333333333	1	-30	-6.16666666666667	1	0.740234375
966.8369140625	0.00833333333333333	1	-30	-6.04166666666667	1	0.8837890625
969.7197265625	0.00833333333333333	1	30	3.33333333333333	1	0.7373046875
972.794921875	0.00833333333333333	1	NaN	-2.16666666666667	1	0.7021484375
975.5361328125	0.00833333333333333	1	30	3.45833333333333	1	0.705078125
978.26171875	0.00833333333333333	1	NaN	-1.16666666666667	1	1.3076171875
981.9287109375	0.00833333333333333	1	30	3.33333333333333	1	0.75390625
985.044921875	0.00833333333333333	1	NaN	-1.04166666666667	1	0.64453125
987.6533203125	0.00833333333333333	1	-30	-5.91666666666667	1	0.65234375
990.3525390625	0.00833333333333333	1	-30	-6.79166666666667	1	0.8896484375
993.3701171875	0.00833333333333333	1	-30	-6.66666666666667	1	0.9755859375
996.3115234375	0.00833333333333333	1	-30	-6.54166666666667	1	1.0029296875
999.328125	0.00833333333333333	1	30	3.45833333333333	2	2.6337890625
1004.310546875	0.00833333333333333	1	NaN	-0.916666666666667	2	1.3955078125
1007.828125	0.00833333333333333	1	30	3.33333333333333	1	0.7900390625
1011.001953125	0.00833333333333333	1	-30	-6.41666666666667	1	1.0400390625
1014.1357421875	0.00833333333333333	1	30	3.58333333333333	1	0.9873046875
1017.494140625	0.00833333333333333	1	NaN	-1.04166666666667	2	0.6767578125
1020.28515625	0.00833333333333333	1	30	3.70833333333333	1	0.62109375
1023.3779296875	0.00833333333333333	1	-30	-6.29166666666667	1	0.865234375
1026.27734375	0.00833333333333333	1	30	3.83333333333333	2	1.013671875
1029.5439453125	0.00833333333333333	1	NaN	-2.04166666666667	1	0.70703125
1032.3193359375	0.00833333333333333	1	NaN	-1.16666666666667	2	0.66796875
1034.9775390625	0.00833333333333333	1	30	3.70833333333333	1	0.9140625
1038.1357421875	0.00833333333333333	1	-30	-5.79166666666667	2	0.8759765625
1041.4775390625	0.00833333333333333	1	-30	-5.91666666666667	1	0.837890625
1044.5107421875	0.00833333333333333	1	NaN	-1.29166666666667	2	1.068359375
1048.0107421875	0.00833333333333333	1	30	3.83333333333333	1	0.6572265625
1050.9609375	0.00833333333333333	1	NaN	-1.41666666666667	1	1.03515625
1054.1103515625	0.00833333333333333	1	NaN	-1.29166666666667	1	0.9013671875
1057.2353515625	0.00833333333333333	1	30	3.45833333333333	1	0.79296875
1060.060546875	0.00833333333333333	1	NaN	-1.91666666666667	1	0.53515625
1062.9189453125	0.00833333333333333	1	-30	-6.16666666666667	2	0.6376953125
1065.9599609375	0.00833333333333333	1	30	3.58333333333333	2	1.0126953125
1069.41015625	0.00833333333333333	1	30	3.95833333333333	1	0.6259765625
1139.984375	0.00833333333333333	1	NaN	-1.79166666666667	1	0.966796875
1142.9091796875	0.00833333333333333	1	-30	-6.29166666666667	2	1.193359375
1146.56640625	0.00833333333333333	1	-30	-6.41666666666667	2	0.751953125
1149.3173828125	0.00833333333333333	1	NaN	-1.66666666666667	2	0.849609375
1152.5009765625	0.00833333333333333	1	NaN	-1.16666666666667	2	0.6982421875
1155.2587890625	0.00833333333333333	1	-30	-6.54166666666667	2	0.6123046875
1157.9755859375	0.00833333333333333	1	-30	-5.79166666666667	2	0.751953125
1161.083984375	0.00833333333333333	1	30	4.08333333333333	1	0.69921875
1163.767578125	0.00833333333333333	1	-30	-6.66666666666667	2	0.583984375
1166.5419921875	0.00833333333333333	1	30	3.45833333333333	2	0.849609375
1169.7490234375	0.00833333333333333	1	NaN	-1.79166666666667	2	1.3466796875
1173.2919921875	0.00833333333333333	1	NaN	-1.91666666666667	2	1.5322265625
1176.8583984375	0.00833333333333333	1	NaN	-1.29166666666667	2	1.6455078125
1180.8994140625	0.00833333333333333	1	30	3.33333333333333	1	0.8603515625
1184.0751953125	0.00833333333333333	1	NaN	-2.04166666666667	1	1.373046875
1187.7421875	0.00833333333333333	1	30	4.20833333333333	1	0.8017578125
1190.6669921875	0.00833333333333333	1	30	4.33333333333333	2	0.7490234375
1193.7998046875	0.00833333333333333	1	NaN	-1.41666666666667	2	0.7685546875
1197.0322265625	0.00833333333333333	1	-30	-6.79166666666667	2	0.7607421875
1200.091796875	0.00833333333333333	1	30	3.45833333333333	2	0.7646484375
1203.2578125	0.00833333333333333	1	NaN	-1.91666666666667	1	0.734375
1206.2001953125	0.00833333333333333	1	NaN	-1.54166666666667	1	1.1845703125
1209.5078125	0.00833333333333333	1	-30	-5.91666666666667	2	1.044921875
1212.974609375	0.00833333333333333	1	30	3.33333333333333	1	0.6748046875
1215.81640625	0.00833333333333333	1	-30	-6.91666666666667	1	1.12109375
1219	0.00833333333333333	1	-30	-6.04166666666667	1	1.2099609375
1222.4658203125	0.00833333333333333	1	NaN	-1.79166666666667	2	1
1225.916015625	0.00833333333333333	1	30	4.20833333333333	2	0.8291015625
1229.033203125	0.00833333333333333	1	NaN	-1.91666666666667	2	1.16796875
1232.6748046875	0.00833333333333333	1	30	4.08333333333333	2	1.462890625
1236.5244140625	0.00833333333333333	1	NaN	-2.04166666666667	1	2.3251953125
1241.0830078125	0.00833333333333333	1	30	3.95833333333333	2	0.6865234375
1244.0576171875	0.00833333333333333	1	-30	-6.79166666666667	1	0.6884765625
1246.8076171875	0.00833333333333333	1	30	3.45833333333333	2	0.794921875
1249.890625	0.00833333333333333	1	NaN	-1.91666666666667	1	0.783203125
1252.673828125	0.00833333333333333	1	-30	-5.91666666666667	1	1.82421875
1256.857421875	0.00833333333333333	1	30	3.83333333333333	1	2.2333984375
1261.5654296875	0.00833333333333333	1	NaN	-1.41666666666667	1	1.2939453125
1264.9658203125	0.00833333333333333	1	NaN	-1.79166666666667	1	1.1171875
1268.0908203125	0.00833333333333333	1	NaN	-1.29166666666667	1	0.83984375
1271.07421875	0.00833333333333333	1	NaN	-1.66666666666667	2	0.744140625
1274.2236328125	0.00833333333333333	1	30	3.95833333333333	1	2.3232421875
1278.982421875	0.00833333333333333	1	30	4.08333333333333	2	1.8046875
1282.9658203125	0.00833333333333333	1	NaN	-1.16666666666667	2	1.6220703125
1286.9072265625	0.00833333333333333	1	-30	-6.66666666666667	1	0.9365234375
1290.2568359375	0.00833333333333333	1	-30	-6.54166666666667	1	1.123046875
1293.7734375	0.00833333333333333	1	NaN	-1.79166666666667	2	1.1904296875
1296.95703125	0.00833333333333333	1	-30	-6.41666666666667	1	1.798828125
1301.1572265625	0.00833333333333333	1	NaN	-1.91666666666667	1	1.4951171875
1304.83203125	0.00833333333333333	1	30	3.95833333333333	1	0.916015625
1308.1484375	0.00833333333333333	1	-30	-6.29166666666667	2	0.7119140625
1310.9736328125	0.00833333333333333	1	30	3.33333333333333	2	0.982421875
1314.0654296875	0.00833333333333333	1	-30	-5.79166666666667	2	0.9072265625
1316.96484375	0.00833333333333333	1	30	4.08333333333333	1	1.0556640625
1320.123046875	0.00833333333333333	1	-30	-6.41666666666667	2	0.76171875
1323.03125	0.00833333333333333	1	NaN	-1.29166666666667	2	0.92578125
1326.3564453125	0.00833333333333333	1	30	4.20833333333333	1	0.744140625
1329.5732421875	0.00833333333333333	1	NaN	-1.79166666666667	2	0.935546875
1332.921875	0.00833333333333333	1	NaN	-1.91666666666667	1	0.7548828125
1335.6484375	0.00833333333333333	1	30	3.20833333333333	1	0.9169921875
1338.931640625	0.00833333333333333	1	NaN	-1.41666666666667	1	0.6650390625
1341.939453125	0.00833333333333333	1	-30	-5.91666666666667	2	0.8017578125
1344.96484375	0.00833333333333333	1	NaN	-1.29166666666667	2	0.6806640625
1347.796875	0.00833333333333333	1	NaN	-1.41666666666667	2	0.6962890625
1350.623046875	0.00833333333333333	1	30	3.33333333333333	1	0.7421875
1353.748046875	0.00833333333333333	1	-30	-6.04166666666667	2	1.09765625
1356.9140625	0.00833333333333333	1	NaN	-1.54166666666667	2	1.03515625
1359.947265625	0.00833333333333333	1	-30	-6.54166666666667	2	0.7861328125
1362.9560546875	0.00833333333333333	1	-30	-6.66666666666667	2	0.8173828125
1365.873046875	0.00833333333333333	1	-30	-6.79166666666667	2	0.95703125
1369.2138671875	0.00833333333333333	1	30	3.45833333333333	2	1.240234375
1372.755859375	0.00833333333333333	1	NaN	-1.66666666666667	2	0.833984375
1375.6474609375	0.00833333333333333	1	30	3.33333333333333	1	0.775390625
1378.546875	0.00833333333333333	1	NaN	-1.79166666666667	2	0.7314453125
1381.3974609375	0.00833333333333333	1	30	4.33333333333333	2	3.4169921875
1387.0888671875	0.00833333333333333	1	30	4.20833333333333	2	1.3095703125
1390.572265625	0.00833333333333333	1	NaN	-1.79166666666667	1	1.05859375
1393.8134765625	0.00833333333333333	1	NaN	-1.91666666666667	2	1.505859375
1397.6220703125	0.00833333333333333	1	NaN	-2.04166666666667	1	0.8486328125
1400.85546875	0.00833333333333333	1	30	4.08333333333333	1	0.7431640625
1403.6962890625	0.00833333333333333	1	-30	-6.16666666666667	2	0.6865234375
1406.3974609375	0.00833333333333333	1	30	4.20833333333333	1	0.658203125
1409.130859375	0.00833333333333333	1	-30	-6.29166666666667	2	1.4921875
1413.046875	0.00833333333333333	1	NaN	-1.91666666666667	2	0.9130859375
1416.197265625	0.00833333333333333	1	30	4.33333333333333	1	1.3701171875
1419.86328125	0.00833333333333333	1	30	4.45833333333333	2	0.712890625
1422.7138671875	0.00833333333333333	1	-30	-6.41666666666667	2	0.7666015625
1425.888671875	0.00833333333333333	1	-30	-6.91666666666667	2	0.6953125
1428.7802734375	0.00833333333333333	1	NaN	-1.66666666666667	2	0.66015625
1431.6298828125	0.00833333333333333	1	30	4.33333333333333	2	0.73828125
1434.6630859375	0.00833333333333333	1	-30	-6.54166666666667	2	0.880859375
1437.888671875	0.00833333333333333	1	NaN	-1.79166666666667	2	0.8955078125
1578.1025390625	0.00833333333333333	1	-30	-6.66666666666667	2	0.7265625
1581.0361328125	0.00833333333333333	1	-30	-7.04166666666667	1	1.873046875
1585.0439453125	0.00833333333333333	1	-30	-6.91666666666667	2	0.873046875
1588.3271484375	0.00833333333333333	1	NaN	-1.91666666666667	1	0.765625
1591.111328125	0.00833333333333333	1	-30	-7.04166666666667	2	0.59765625
1593.9521484375	0.00833333333333333	1	-30	-7.16666666666667	2	0.62890625
1597.01953125	0.00833333333333333	1	30	4.20833333333333	1	0.681640625
1599.91796875	0.00833333333333333	1	30	4.33333333333333	2	0.6953125
1602.8359375	0.00833333333333333	1	NaN	-1.79166666666667	1	0.8818359375
1605.9521484375	0.00833333333333333	1	-30	-7.29166666666667	2	0.669921875
1608.7939453125	0.00833333333333333	1	-30	-7.41666666666667	1	0.68359375
1611.751953125	0.00833333333333333	1	-30	-7.29166666666667	2	0.734375
1614.66015625	0.00833333333333333	1	-30	-6.79166666666667	1	2.2177734375
1619.3515625	0.00833333333333333	1	NaN	-1.66666666666667	1	0.8623046875
1622.2939453125	0.00833333333333333	1	NaN	-1.54166666666667	2	0.9443359375
1625.2021484375	0.00833333333333333	1	-30	-7.41666666666667	1	0.6767578125
1628.318359375	0.00833333333333333	1	NaN	-1.66666666666667	2	0.6318359375
1631.2607421875	0.00833333333333333	1	NaN	-1.79166666666667	2	1.2822265625
1634.501953125	0.00833333333333333	1	NaN	-1.91666666666667	1	0.568359375
1637.244140625	0.00833333333333333	1	NaN	-1.79166666666667	2	0.5224609375
1639.84375	0.00833333333333333	1	-30	-6.66666666666667	1	0.6591796875
1642.7763671875	0.00833333333333333	1	-30	-7.29166666666667	1	0.7421875
1645.6015625	0.00833333333333333	1	30	4.20833333333333	1	0.9892578125
1648.935546875	0.00833333333333333	1	-30	-7.16666666666667	2	0.744140625
1651.7353515625	0.00833333333333333	1	30	4.33333333333333	1	0.81640625
1654.80859375	0.00833333333333333	1	30	4.45833333333333	2	0.7109375
1657.8349609375	0.00833333333333333	1	-30	-6.54166666666667	2	1.1005859375
1661.134765625	0.00833333333333333	1	-30	-6.66666666666667	2	1.880859375
1665.4677734375	0.00833333333333333	1	-30	-6.79166666666667	1	1.2119140625
1669.0595703125	0.00833333333333333	1	-30	-6.66666666666667	1	1.076171875
1672.2841796875	0.00833333333333333	1	-30	-6.54166666666667	2	0.6279296875
1674.9765625	0.00833333333333333	1	-30	-6.66666666666667	1	1.3193359375
1678.634765625	0.00833333333333333	0	30	3.79583333333333	2	0.685546875
1681.7177734375	0.00833333333333333	0	-30	-6.60416666666667	2	0.8984375
1685.05078125	0.00833333333333333	0	-30	-6.60416666666667	1	0.6787109375
1687.9345703125	0.00833333333333333	0	30	3.79583333333333	2	0.7060546875
1691.126953125	0.00833333333333333	0	30	3.79583333333333	2	1.2177734375
1694.583984375	0.00833333333333333	0	30	3.79583333333333	2	2.6416015625
1699.30078125	0.00833333333333333	0	30	3.79583333333333	1	1.2119140625
1702.525390625	0.00833333333333333	0	30	3.79583333333333	1	0.7958984375
1705.400390625	0.00833333333333333	0	30	3.79583333333333	1	0.6484375
1708.1748046875	0.00833333333333333	0	30	3.79583333333333	1	0.90625
1711.30859375	0.00833333333333333	0	-30	-6.60416666666667	1	0.796875
1714.392578125	0.00833333333333333	0	-30	-6.60416666666667	2	1.041015625
1717.7841796875	0.00833333333333333	0	30	3.79583333333333	1	0.841796875
1720.8251953125	0.00833333333333333	0	30	3.92083333333333	2	0.65625
1723.775390625	0.00833333333333333	0	30	3.92083333333333	1	0.642578125
1726.666015625	0.00833333333333333	0	30	3.92083333333333	2	0.6240234375
1729.333984375	0.00833333333333333	0	-30	-6.60416666666667	2	0.9794921875
1732.5673828125	0.00833333333333333	0	-30	-6.60416666666667	1	0.818359375
1735.6337890625	0.00833333333333333	0	30	3.92083333333333	1	0.744140625
1738.658203125	0.00833333333333333	0	30	3.92083333333333	1	0.6962890625
1741.4423828125	0.00833333333333333	0	30	3.92083333333333	2	0.6396484375
1744.466796875	0.00833333333333333	0	-30	-6.60416666666667	2	0.8076171875
1747.4248046875	0.00833333333333333	0	-30	-6.60416666666667	2	1.9697265625
1751.4755859375	0.00833333333333333	0	-30	-6.60416666666667	1	0.8876953125
1754.5751953125	0.00833333333333333	0	-30	-6.60416666666667	2	0.7236328125
1757.341796875	0.00833333333333333	0	30	3.92083333333333	2	1.2685546875
1760.6748046875	0.00833333333333333	0	-30	-6.60416666666667	2	0.81640625
1763.7080078125	0.00833333333333333	0	-30	-6.60416666666667	2	1.0625
1767.158203125	0.00833333333333333	0	-30	-6.60416666666667	1	0.7333984375
1770.140625	0.00833333333333333	0	30	3.92083333333333	2	0.7109375
1773.0078125	0.00833333333333333	0	30	3.92083333333333	2	1.0751953125
1776.3916015625	0.00833333333333333	0	30	3.92083333333333	1	0.763671875
1779.3828125	0.00833333333333333	0	-30	-6.60416666666667	2	0.7490234375
1782.5732421875	0.00833333333333333	0	30	3.92083333333333	2	0.814453125
1785.791015625	0.00833333333333333	0	30	3.92083333333333	2	0.9326171875
1788.7744140625	0.00833333333333333	0	30	3.92083333333333	2	0.708984375
1791.916015625	0.00833333333333333	0	-30	-6.60416666666667	1	1.1201171875
1795.240234375	0.00833333333333333	0	-30	-6.60416666666667	2	0.9873046875
1798.4990234375	0.00833333333333333	0	30	3.92083333333333	1	1.3212890625
1801.857421875	0.00833333333333333	0	-30	-6.60416666666667	1	0.962890625
1804.9658203125	0.00833333333333333	0	-30	-6.60416666666667	2	0.662109375
1807.6328125	0.00833333333333333	0	-30	-6.60416666666667	1	0.931640625
1810.791015625	0.00833333333333333	0	-30	-6.60416666666667	2	0.5576171875
1813.349609375	0.00833333333333333	0	30	3.92083333333333	1	0.6630859375
1816.4912109375	0.00833333333333333	0	-30	-6.60416666666667	1	0.8173828125
1819.6826171875	0.00833333333333333	0	-30	-6.60416666666667	1	0.8017578125
1822.4912109375	0.00833333333333333	0	30	3.92083333333333	2	0.9453125
1825.82421875	0.00833333333333333	0	-30	-6.60416666666667	2	0.8134765625
1828.765625	0.00833333333333333	0	-30	-6.60416666666667	2	1.0390625
1831.8310546875	0.00833333333333333	0	30	3.92083333333333	2	0.8857421875
1834.916015625	0.00833333333333333	0	30	3.92083333333333	2	0.9775390625
1838.015625	0.00833333333333333	0	-30	-6.60416666666667	2	0.94140625
1841.0400390625	0.00833333333333333	0	-30	-6.60416666666667	2	1.3095703125
1844.515625	0.00833333333333333	0	-30	-6.60416666666667	1	0.857421875
1847.4482421875	0.00833333333333333	0	-30	-6.60416666666667	2	1.6298828125
1851.1396484375	0.00833333333333333	0	30	3.92083333333333	2	1.25
1854.53125	0.00833333333333333	0	-30	-6.60416666666667	1	0.8583984375
1857.498046875	0.00833333333333333	0	30	3.92083333333333	1	0.748046875
1860.4072265625	0.00833333333333333	0	30	3.92083333333333	1	1.0869140625
1863.5810546875	0.00833333333333333	0	30	3.92083333333333	2	1.0966796875
1866.865234375	0.00833333333333333	0	-30	-6.60416666666667	1	1.1728515625
1870.447265625	0.00833333333333333	0	30	3.92083333333333	1	0.7353515625
1873.58984375	0.00833333333333333	0	30	3.92083333333333	1	0.80078125
1876.4736328125	0.00833333333333333	0	-30	-6.60416666666667	2	0.8046875
1879.2978515625	0.00833333333333333	0	30	3.92083333333333	1	1.0048828125
1882.5810546875	0.00833333333333333	0	30	3.92083333333333	1	0.75390625
1885.6640625	0.00833333333333333	0	30	3.92083333333333	1	0.615234375
1888.2900390625	0.00833333333333333	0	30	4.04583333333333	2	0.8212890625
1891.123046875	0.00833333333333333	0	30	4.04583333333333	2	0.908203125
1894.505859375	0.00833333333333333	0	30	4.04583333333333	2	1.5810546875
1898.189453125	0.00833333333333333	0	30	4.04583333333333	1	0.74609375
1901.373046875	0.00833333333333333	0	-30	-6.60416666666667	2	0.74609375
1904.3564453125	0.00833333333333333	0	-30	-6.60416666666667	2	0.8671875
1907.3642578125	0.00833333333333333	0	-30	-6.60416666666667	2	0.7392578125
1910.248046875	0.00833333333333333	0	30	4.04583333333333	1	1.19140625
1913.6142578125	0.00833333333333333	0	-30	-6.60416666666667	2	0.74609375
1916.380859375	0.00833333333333333	0	30	4.04583333333333	1	0.7548828125
1919.3056640625	0.00833333333333333	0	-30	-6.72916666666667	2	0.5986328125
1922.2060546875	0.00833333333333333	0	30	4.04583333333333	1	0.8818359375
1925.5224609375	0.00833333333333333	0	-30	-6.72916666666667	2	0.7099609375
2035.1962890625	0.00833333333333333	0	-30	-6.72916666666667	1	1.103515625
2038.4296875	0.00833333333333333	0	30	4.04583333333333	1	0.814453125
2041.654296875	0.00833333333333333	0	-30	-6.72916666666667	2	0.60546875
2044.595703125	0.00833333333333333	0	-30	-6.72916666666667	2	1.14453125
2048.0625	0.00833333333333333	0	-30	-6.72916666666667	1	0.60546875
2050.9453125	0.00833333333333333	0	-30	-6.72916666666667	2	0.810546875
2053.8623046875	0.00833333333333333	0	-30	-6.72916666666667	2	0.58203125
2056.412109375	0.00833333333333333	0	-30	-6.72916666666667	2	0.919921875
2059.603515625	0.00833333333333333	0	30	4.17083333333333	1	0.8251953125
2062.7783203125	0.00833333333333333	0	30	4.17083333333333	1	0.802734375
2065.6787109375	0.00833333333333333	0	30	4.17083333333333	2	0.91015625
2068.5615234375	0.00833333333333333	0	30	4.17083333333333	1	1.6669921875
2072.51171875	0.00833333333333333	0	30	4.17083333333333	2	1.2294921875
2075.9951171875	0.00833333333333333	0	30	4.17083333333333	1	1.76953125
2080.220703125	0.00833333333333333	0	-30	-6.72916666666667	1	2.1845703125
2084.662109375	0.00833333333333333	0	-30	-6.72916666666667	2	0.958984375
2087.8037109375	0.00833333333333333	0	-30	-6.72916666666667	1	0.9541015625
2090.828125	0.00833333333333333	0	-30	-6.72916666666667	1	2.0654296875
2095.26953125	0.00833333333333333	0	-30	-6.72916666666667	1	1.736328125
2099.01171875	0.00833333333333333	0	30	4.17083333333333	1	0.6982421875
2101.953125	0.00833333333333333	0	-30	-6.72916666666667	1	0.9482421875
2105.0283203125	0.00833333333333333	0	30	4.17083333333333	1	1.7939453125
2109.1943359375	0.00833333333333333	0	-30	-6.72916666666667	2	0.9716796875
2112.4443359375	0.00833333333333333	0	-30	-6.72916666666667	1	0.841796875
2115.63671875	0.00833333333333333	0	30	4.17083333333333	2	1.2099609375
2118.927734375	0.00833333333333333	0	30	4.17083333333333	2	0.7666015625
2121.7275390625	0.00833333333333333	0	30	4.17083333333333	2	0.8076171875
2124.669921875	0.00833333333333333	0	30	4.17083333333333	1	0.736328125
2127.5439453125	0.00833333333333333	0	-30	-6.72916666666667	2	0.615234375
2130.40234375	0.00833333333333333	0	30	4.17083333333333	1	0.748046875
2133.419921875	0.00833333333333333	0	30	4.17083333333333	1	1.7548828125
2137.2431640625	0.00833333333333333	0	-30	-6.72916666666667	2	1.5478515625
2141.2275390625	0.00833333333333333	0	30	4.17083333333333	1	0.763671875
2144.0947265625	0.00833333333333333	0	30	4.17083333333333	2	1.1201171875
2147.46875	0.00833333333333333	0	-30	-6.72916666666667	2	1.0986328125
2151.0595703125	0.00833333333333333	0	30	4.17083333333333	1	0.939453125
2154.2275390625	0.00833333333333333	0	30	4.17083333333333	2	2.6123046875
2159.2353515625	0.00833333333333333	0	-30	-6.72916666666667	2	0.916015625
2162.3759765625	0.00833333333333333	0	-30	-6.72916666666667	1	0.8876953125
2165.28515625	0.00833333333333333	0	-30	-6.72916666666667	2	0.8505859375
2168.6357421875	0.00833333333333333	0	30	4.17083333333333	1	0.587890625
2171.244140625	0.00833333333333333	0	-30	-6.72916666666667	2	0.67578125
2174.2685546875	0.00833333333333333	0	-30	-6.72916666666667	1	0.947265625
2177.46875	0.00833333333333333	0	-30	-6.72916666666667	2	0.8271484375
2180.2939453125	0.00833333333333333	0	30	4.17083333333333	1	0.875
2183.3017578125	0.00833333333333333	0	30	4.17083333333333	2	0.8505859375
2186.2021484375	0.00833333333333333	0	-30	-6.72916666666667	2	0.88671875
2189.0849609375	0.00833333333333333	0	-30	-6.72916666666667	1	1.099609375
2192.2099609375	0.00833333333333333	0	30	4.17083333333333	2	1.03125
2195.685546875	0.00833333333333333	0	30	4.17083333333333	1	0.8994140625
2199.04296875	0.00833333333333333	0	-30	-6.72916666666667	2	0.765625
2201.8017578125	0.00833333333333333	0	-30	-6.72916666666667	2	1.8955078125
2206.09375	0.00833333333333333	0	30	4.17083333333333	1	0.8515625
2209.126953125	0.00833333333333333	0	-30	-6.72916666666667	2	0.6748046875
2211.9345703125	0.00833333333333333	0	-30	-6.72916666666667	2	1.2431640625
2215.29296875	0.00833333333333333	0	30	4.17083333333333	2	0.7802734375
2218.1513671875	0.00833333333333333	0	-30	-6.72916666666667	2	0.76171875
2221.09375	0.00833333333333333	0	-30	-6.85416666666667	2	0.763671875
2224.1181640625	0.00833333333333333	0	30	4.17083333333333	1	0.939453125
2227.3759765625	0.00833333333333333	0	30	4.17083333333333	1	0.849609375
2230.6845703125	0.00833333333333333	0	30	4.17083333333333	1	0.6533203125
2233.767578125	0.00833333333333333	0	30	4.17083333333333	2	0.71484375
2236.6845703125	0.00833333333333333	0	-30	-6.85416666666667	2	0.998046875
2240.076171875	0.00833333333333333	0	-30	-6.85416666666667	2	0.5986328125
2242.9423828125	0.00833333333333333	0	-30	-6.85416666666667	1	1.6201171875
2246.6845703125	0.00833333333333333	0	-30	-6.85416666666667	2	0.677734375
2249.6083984375	0.00833333333333333	0	-30	-6.85416666666667	2	0.72265625
2252.4921875	0.00833333333333333	0	-30	-6.85416666666667	2	0.630859375
2255.2841796875	0.00833333333333333	0	30	4.17083333333333	1	0.7587890625
2258.4423828125	0.00833333333333333	0	-30	-6.85416666666667	2	0.7763671875
2261.359375	0.00833333333333333	0	30	4.17083333333333	2	1.5634765625
2264.93359375	0.00833333333333333	0	-30	-6.85416666666667	2	0.8857421875
2268.0927734375	0.00833333333333333	0	30	4.17083333333333	2	1.8623046875
2272.19140625	0.00833333333333333	0	-30	-6.97916666666667	2	1.00390625
2275.3828125	0.00833333333333333	0	30	4.17083333333333	1	1.46875
2278.9423828125	0.00833333333333333	0	30	4.17083333333333	1	0.8056640625
2281.9921875	0.00833333333333333	0	-30	-6.97916666666667	2	0.7392578125
2284.7919921875	0.00833333333333333	0	-30	-6.97916666666667	1	1.3154296875
2288.4833984375	0.00833333333333333	0	30	4.17083333333333	2	1.552734375
2292.5087890625	0.00833333333333333	0	-30	-6.97916666666667	1	1.439453125
2317.6494140625	0.00833333333333333	0	-30	-6.97916666666667	1	1.03515625
2320.9833984375	0.00833333333333333	0	30	4.17083333333333	2	1.27734375
2324.7412109375	0.00833333333333333	0	-30	-6.97916666666667	1	2.19140625
2329.216796875	0.00833333333333333	0	-30	-6.97916666666667	1	2.63671875
2334.107421875	0.00833333333333333	0	-30	-6.85416666666667	1	1.3056640625
2337.865234375	0.00833333333333333	0	-30	-6.85416666666667	2	0.740234375
2340.599609375	0.00833333333333333	0	30	4.17083333333333	1	1.5576171875
2344.1494140625	0.00833333333333333	0	-30	-6.85416666666667	2	0.7451171875
2347.32421875	0.00833333333333333	0	-30	-6.85416666666667	2	0.9853515625
2350.3486328125	0.00833333333333333	0	30	4.17083333333333	1	0.7939453125
2353.1328125	0.00833333333333333	0	-30	-6.85416666666667	1	0.9541015625
2356.0654296875	0.00833333333333333	0	-30	-6.85416666666667	1	0.9326171875
2358.9912109375	0.00833333333333333	0	-30	-6.85416666666667	2	0.8466796875
2362.0078125	0.00833333333333333	0	30	4.17083333333333	1	1.830078125
2366.07421875	0.00833333333333333	0	30	4.17083333333333	1	0.99609375
2369.474609375	0.00833333333333333	0	-30	-6.85416666666667	2	1.068359375
2372.541015625	0.00833333333333333	0	-30	-6.85416666666667	1	0.689453125
2375.6240234375	0.00833333333333333	0	30	4.17083333333333	1	2.126953125
2380.0146484375	0.00833333333333333	0	30	4.29583333333333	1	0.912109375
2383.0576171875	0.00833333333333333	0	30	4.29583333333333	1	0.765625
2385.8486328125	0.00833333333333333	0	30	4.29583333333333	2	0.998046875
2388.990234375	0.00833333333333333	0	30	4.29583333333333	1	1.2412109375
2392.32421875	0.00833333333333333	0	-30	-6.85416666666667	2	0.8115234375
2395.357421875	0.00833333333333333	0	30	4.29583333333333	1	1.3857421875
2399.0908203125	0.00833333333333333	0	-30	-6.85416666666667	1	1.1005859375
2402.6484375	0.00833333333333333	0	-30	-6.85416666666667	2	1.599609375
2406.5322265625	0.00833333333333333	0	-30	-6.85416666666667	1	0.763671875
2409.2734375	0.00833333333333333	0	30	4.29583333333333	1	0.814453125
2412.2568359375	0.00833333333333333	0	-30	-6.85416666666667	2	1.0068359375
2415.2734375	0.00833333333333333	0	30	4.29583333333333	2	1.302734375
2418.865234375	0.00833333333333333	0	30	4.29583333333333	1	2.6953125
2423.9736328125	0.00833333333333333	0	-30	-6.85416666666667	2	1.7548828125
2427.8232421875	0.00833333333333333	0	-30	-6.85416666666667	1	0.9130859375
2431.123046875	0.00833333333333333	0	-30	-6.85416666666667	2	0.9013671875
2434.1982421875	0.00833333333333333	0	30	4.29583333333333	1	0.71484375
2437.2900390625	0.00833333333333333	0	30	4.29583333333333	2	2.0703125
2441.78125	0.00833333333333333	0	-30	-6.85416666666667	2	1.1396484375
2445.4228515625	0.00833333333333333	0	-30	-6.85416666666667	1	0.833984375
2448.572265625	0.00833333333333333	0	-30	-6.85416666666667	1	0.9248046875
2451.623046875	0.00833333333333333	0	-30	-6.85416666666667	1	1.0263671875
2454.7978515625	0.00833333333333333	0	-30	-6.85416666666667	1	0.8837890625
2457.71484375	0.00833333333333333	0	30	4.29583333333333	1	0.990234375
2460.7646484375	0.00833333333333333	0	-30	-6.85416666666667	1	0.9248046875
2464.072265625	0.00833333333333333	0	30	4.29583333333333	2	0.7216796875
2467.1474609375	0.00833333333333333	0	-30	-6.72916666666667	2	0.806640625
2470.22265625	0.00833333333333333	0	30	4.29583333333333	1	0.68359375
2472.939453125	0.00833333333333333	0	-30	-6.72916666666667	1	0.91015625
2476.072265625	0.00833333333333333	0	30	4.29583333333333	1	0.74609375
2478.814453125	0.00833333333333333	0	-30	-6.72916666666667	2	1.267578125
2482.2138671875	0.00833333333333333	0	30	4.29583333333333	1	0.908203125
2485.3974609375	0.00833333333333333	0	-30	-6.72916666666667	1	0.8203125
2488.3720703125	0.00833333333333333	0	-30	-6.72916666666667	2	1.158203125
2491.689453125	0.00833333333333333	0	-30	-6.72916666666667	2	1.041015625
2494.888671875	0.00833333333333333	0	30	4.29583333333333	1	0.681640625
2497.6376953125	0.00833333333333333	0	30	4.29583333333333	2	1.044921875
2501.1806640625	0.00833333333333333	0	-30	-6.72916666666667	1	1.24609375
2504.85546875	0.00833333333333333	0	30	4.29583333333333	1	0.8916015625
2507.9130859375	0.00833333333333333	0	-30	-6.72916666666667	2	0.9140625
2510.880859375	0.00833333333333333	0	30	4.29583333333333	1	0.841796875
2514.0546875	0.00833333333333333	0	30	4.29583333333333	2	1.1162109375
2517.4306640625	0.00833333333333333	0	-30	-6.72916666666667	1	1.4443359375
2521.1474609375	0.00833333333333333	0	30	4.29583333333333	1	0.83984375
2524.23828125	0.00833333333333333	0	30	4.29583333333333	1	1.2060546875
2527.6220703125	0.00833333333333333	0	-30	-6.72916666666667	2	0.62109375
2530.712890625	0.00833333333333333	0	-30	-6.72916666666667	2	0.978515625
2534.021484375	0.00833333333333333	0	30	4.29583333333333	1	0.8544921875
2536.9638671875	0.00833333333333333	0	30	4.29583333333333	1	1.072265625
2540.4130859375	0.00833333333333333	0	30	4.29583333333333	1	0.9267578125
2543.4208984375	0.00833333333333333	0	30	4.42083333333333	1	0.951171875
2546.5966796875	0.00833333333333333	0	30	4.42083333333333	1	1.0556640625
2550.0048828125	0.00833333333333333	0	-30	-6.72916666666667	2	0.6552734375
2552.6962890625	0.00833333333333333	0	-30	-6.72916666666667	1	1.060546875
2556.1796875	0.00833333333333333	0	30	4.42083333333333	1	0.7763671875
2559.2548828125	0.00833333333333333	0	30	4.42083333333333	2	1.517578125
2563.3046875	0.00833333333333333	0	-30	-6.72916666666667	1	1.4443359375
2567.1533203125	0.00833333333333333	0	30	4.42083333333333	1	1.923828125
2571.25390625	0.00833333333333333	0	-30	-6.72916666666667	2	0.89453125
2574.3798828125	0.00833333333333333	0	-30	-6.72916666666667	1	1.857421875
2578.478515625	0.00833333333333333	0	30	4.42083333333333	1	0.7265625
2581.6533203125	0.00833333333333333	0	30	4.42083333333333	1	1.4638671875
2600.8203125	0.00833333333333333	0	30	4.42083333333333	1	0.8740234375
2603.9697265625	0.00833333333333333	0	-30	-6.72916666666667	2	0.6123046875
2606.76171875	0.00833333333333333	0	30	4.42083333333333	1	0.8291015625
2609.728515625	0.00833333333333333	0	30	4.54583333333333	1	0.59765625
2612.3955078125	0.00833333333333333	0	-30	-6.72916666666667	1	1.115234375
2615.76953125	0.00833333333333333	0	30	4.54583333333333	1	1.0048828125
2618.9697265625	0.00833333333333333	0	-30	-6.72916666666667	2	0.7890625
2621.9951171875	0.00833333333333333	0	-30	-6.72916666666667	1	0.9150390625
2625.095703125	0.00833333333333333	0	-30	-6.72916666666667	1	1.19140625
2628.412109375	0.00833333333333333	0	30	4.54583333333333	1	1.138671875
2631.619140625	0.00833333333333333	0	30	4.54583333333333	1	0.6435546875
2634.4375	0.00833333333333333	0	30	4.54583333333333	1	0.6494140625
2637.361328125	0.00833333333333333	0	-30	-6.72916666666667	2	0.677734375
2640.3203125	0.00833333333333333	0	30	4.67083333333333	1	0.607421875
2642.9033203125	0.00833333333333333	0	30	4.67083333333333	1	0.599609375
2645.787109375	0.00833333333333333	0	30	4.67083333333333	2	0.9326171875
2649.0537109375	0.00833333333333333	0	30	4.67083333333333	2	0.8984375
2652.103515625	0.00833333333333333	0	-30	-6.72916666666667	2	0.671875
2655.044921875	0.00833333333333333	0	-30	-6.72916666666667	2	1.4033203125
2658.578125	0.00833333333333333	0	30	4.67083333333333	1	2.1337890625
2662.9951171875	0.00833333333333333	0	30	4.67083333333333	2	3.173828125
2668.6279296875	0.00833333333333333	0	30	4.67083333333333	1	1.3486328125
2672.2451171875	0.00833333333333333	0	-30	-6.72916666666667	2	0.7314453125
2675.1533203125	0.00833333333333333	0	-30	-6.72916666666667	1	1.0869140625
2678.5439453125	0.00833333333333333	0	-30	-6.72916666666667	2	0.7841796875
2681.3935546875	0.00833333333333333	0	30	4.67083333333333	1	0.7431640625
2684.203125	0.00833333333333333	0	30	4.67083333333333	1	1.2060546875
2687.6533203125	0.00833333333333333	0	-30	-6.72916666666667	2	0.787109375
2690.5283203125	0.00833333333333333	0	30	4.67083333333333	1	0.7763671875
2693.703125	0.00833333333333333	0	-30	-6.72916666666667	1	0.857421875
2696.8115234375	0.00833333333333333	0	-30	-6.72916666666667	2	0.7978515625
2700.02734375	0.00833333333333333	0	30	4.67083333333333	2	0.94140625
2703.0107421875	0.00833333333333333	0	-30	-6.72916666666667	1	0.8701171875
2706.1611328125	0.00833333333333333	0	-30	-6.72916666666667	1	0.904296875
2709.2021484375	0.00833333333333333	0	-30	-6.72916666666667	2	0.6630859375
2712.2275390625	0.00833333333333333	0	-30	-6.72916666666667	1	1.2705078125
2715.8359375	0.00833333333333333	0	30	4.67083333333333	2	0.78125
2718.9853515625	0.00833333333333333	0	-30	-6.72916666666667	2	0.80078125
2721.9931640625	0.00833333333333333	0	30	4.67083333333333	1	0.78515625
2725.2353515625	0.00833333333333333	0	30	4.67083333333333	1	0.654296875
2728.09375	0.00833333333333333	0	30	4.67083333333333	2	1.052734375
2731.6259765625	0.00833333333333333	0	-30	-6.72916666666667	2	1.064453125
2734.8525390625	0.00833333333333333	0	-30	-6.72916666666667	1	1.3662109375
2738.53515625	0.00833333333333333	0	-30	-6.72916666666667	1	0.8837890625
2741.54296875	0.00833333333333333	0	30	4.67083333333333	1	1.5791015625
2745.443359375	0.00833333333333333	0	30	4.67083333333333	1	0.7587890625
2748.5849609375	0.00833333333333333	0	30	4.67083333333333	1	0.6982421875
2751.6103515625	0.00833333333333333	0	30	4.67083333333333	1	0.6884765625
2754.4189453125	0.00833333333333333	0	-30	-6.72916666666667	1	0.896484375
2757.3857421875	0.00833333333333333	0	30	4.67083333333333	1	1.4091796875
2761.2265625	0.00833333333333333	0	30	4.79583333333333	1	0.79296875
2764.076171875	0.00833333333333333	0	30	4.79583333333333	1	0.6875
2766.7939453125	0.00833333333333333	0	-30	-6.72916666666667	1	0.77734375
2769.8603515625	0.00833333333333333	0	-30	-6.72916666666667	1	0.8388671875
2772.9013671875	0.00833333333333333	0	-30	-6.60416666666667	2	1.166015625
2776.0849609375	0.00833333333333333	0	-30	-6.60416666666667	2	1.0712890625
2779.5595703125	0.00833333333333333	0	-30	-6.60416666666667	2	1.32421875
2783.03515625	0.00833333333333333	0	30	4.79583333333333	1	0.7529296875
2786.134765625	0.00833333333333333	0	-30	-6.60416666666667	2	0.6455078125
2789.076171875	0.00833333333333333	0	-30	-6.60416666666667	2	1.416015625
2792.79296875	0.00833333333333333	0	-30	-6.72916666666667	2	1.546875
2796.67578125	0.00833333333333333	0	-30	-6.72916666666667	1	1.0888671875
2800.25	0.00833333333333333	0	-30	-6.72916666666667	2	1.37890625
2804.0263671875	0.00833333333333333	0	-30	-6.72916666666667	1	1.08203125
2807.201171875	0.00833333333333333	0	30	4.79583333333333	1	1.7158203125
2811.0263671875	0.00833333333333333	0	30	4.79583333333333	1	0.8740234375
2814.0087890625	0.00833333333333333	0	-30	-6.72916666666667	2	0.9404296875
2816.9677734375	0.00833333333333333	0	30	4.92083333333333	1	0.9013671875
2819.849609375	0.00833333333333333	0	30	4.92083333333333	2	1.4521484375
2823.80078125	0.00833333333333333	0	30	4.92083333333333	2	0.7802734375
2826.91796875	0.00833333333333333	0	30	4.92083333333333	1	0.7109375
2829.92578125	0.00833333333333333	0	-30	-6.72916666666667	2	0.6953125
2833.0087890625	0.00833333333333333	0	30	4.92083333333333	2	1.0205078125
2836.392578125	0.00833333333333333	0	30	4.92083333333333	2	0.95703125
2839.474609375	0.00833333333333333	0	-30	-6.72916666666667	2	0.71484375
2842.55078125	0.00833333333333333	0	30	4.92083333333333	1	0.703125
2845.591796875	0.00833333333333333	0	-30	-6.72916666666667	2	0.677734375
2848.525390625	0.00833333333333333	0	-30	-6.72916666666667	2	0.640625
2851.18359375	0.00833333333333333	0	30	4.92083333333333	1	0.7421875
2854.0751953125	0.00833333333333333	0	-30	-6.85416666666667	2	0.779296875
2960.548828125	0.00833333333333333	0	-30	-6.85416666666667	2	0.693359375
2963.4482421875	0.00833333333333333	0	-30	-6.85416666666667	2	0.5771484375
2966.20703125	0.00833333333333333	0	30	4.92083333333333	1	0.5625
2968.990234375	0.00833333333333333	0	30	4.92083333333333	1	0.580078125
2971.607421875	0.00833333333333333	0	-30	-6.85416666666667	2	0.5302734375
2974.58984375	0.00833333333333333	0	30	4.92083333333333	1	0.65234375
2977.4736328125	0.00833333333333333	0	30	5.04583333333333	2	0.6484375
2980.2734375	0.00833333333333333	0	30	5.04583333333333	1	0.6962890625
2983.0322265625	0.00833333333333333	0	30	5.04583333333333	2	0.8662109375
2986.005859375	0.00833333333333333	0	30	5.04583333333333	2	2.2529296875
2990.365234375	0.00833333333333333	0	30	5.04583333333333	2	1.173828125
2993.888671875	0.00833333333333333	0	-30	-6.85416666666667	2	0.75390625
2996.998046875	0.00833333333333333	0	30	5.04583333333333	2	0.63671875
2999.7646484375	0.00833333333333333	0	-30	-6.97916666666667	2	0.982421875
3002.7978515625	0.00833333333333333	0	-30	-6.97916666666667	2	0.6611328125
3005.53125	0.00833333333333333	0	-30	-6.97916666666667	2	0.6162109375
3008.615234375	0.00833333333333333	0	-30	-6.97916666666667	2	0.8203125
3011.5478515625	0.00833333333333333	0	30	5.04583333333333	1	0.7119140625
3014.7314453125	0.00833333333333333	0	-30	-6.97916666666667	2	0.65625
3017.5966796875	0.00833333333333333	0	-30	-7.10416666666667	2	1.958984375
3021.9560546875	0.00833333333333333	0	30	5.04583333333333	2	0.791015625
3025.1396484375	0.00833333333333333	0	30	5.04583333333333	2	1.15234375
3028.5400390625	0.00833333333333333	0	-30	-7.10416666666667	1	0.84765625
3031.630859375	0.00833333333333333	0	30	5.04583333333333	2	0.6845703125
3034.7470703125	0.00833333333333333	0	30	5.04583333333333	2	1.064453125
3038.1396484375	0.00833333333333333	0	30	5.04583333333333	1	1.0244140625
3041.2392578125	0.00833333333333333	0	-30	-7.10416666666667	2	1.021484375
3044.4638671875	0.00833333333333333	0	30	5.04583333333333	2	1.732421875
3048.2646484375	0.00833333333333333	0	30	5.04583333333333	2	0.68359375
3051.1474609375	0.00833333333333333	0	30	5.04583333333333	1	1.033203125
3054.564453125	0.00833333333333333	0	30	5.04583333333333	1	0.6962890625
3057.60546875	0.00833333333333333	0	30	5.04583333333333	2	0.71875
3060.8056640625	0.00833333333333333	0	-30	-7.10416666666667	2	0.767578125
3063.921875	0.00833333333333333	0	30	5.04583333333333	2	1.1552734375
3067.10546875	0.00833333333333333	0	30	5.04583333333333	2	1.02734375
3070.1708984375	0.00833333333333333	0	30	5.04583333333333	2	1.73828125
3074.0302734375	0.00833333333333333	0	30	5.04583333333333	2	0.806640625
3077.10546875	0.00833333333333333	0	-30	-7.10416666666667	1	1.00390625
3080.2724609375	0.00833333333333333	0	-30	-7.10416666666667	1	0.8935546875
3083.255859375	0.00833333333333333	0	-30	-7.10416666666667	2	1.4052734375
3087.1220703125	0.00833333333333333	0	30	4.92083333333333	1	0.7158203125
3089.9638671875	0.00833333333333333	0	30	4.92083333333333	2	0.8095703125
3093.1376953125	0.00833333333333333	0	-30	-7.10416666666667	2	0.8359375
3096.11328125	0.00833333333333333	0	-30	-7.10416666666667	2	1.0205078125
3099.4052734375	0.00833333333333333	0	-30	-7.10416666666667	1	2.0009765625
3103.4130859375	0.00833333333333333	0	30	4.92083333333333	1	0.865234375
3106.3466796875	0.00833333333333333	0	-30	-7.10416666666667	1	0.8193359375
3109.5712890625	0.00833333333333333	0	-30	-7.10416666666667	1	1.626953125
3113.36328125	0.00833333333333333	0	30	4.92083333333333	1	0.771484375
3116.2294921875	0.00833333333333333	0	-30	-7.10416666666667	2	0.9775390625
3119.6376953125	0.00833333333333333	0	-30	-7.10416666666667	2	1.216796875
3123.205078125	0.00833333333333333	0	-30	-7.10416666666667	1	0.9697265625
3126.171875	0.00833333333333333	0	30	4.92083333333333	2	0.8115234375
3129.2294921875	0.00833333333333333	0	-30	-7.10416666666667	2	1.857421875
3133.3466796875	0.00833333333333333	0	30	4.92083333333333	1	0.7568359375
3136.1376953125	0.00833333333333333	0	-30	-7.10416666666667	2	1.0859375
3139.6708984375	0.00833333333333333	0	-30	-7.10416666666667	1	1.5283203125
3143.220703125	0.00833333333333333	0	30	4.92083333333333	1	1.115234375
3146.7880859375	0.00833333333333333	0	-30	-7.10416666666667	2	0.7001953125
3149.6630859375	0.00833333333333333	0	-30	-7.10416666666667	2	1.0166015625
3153.146484375	0.00833333333333333	0	30	4.92083333333333	1	0.8369140625
3156.3955078125	0.00833333333333333	0	30	4.92083333333333	1	0.8046875
3159.212890625	0.00833333333333333	0	-30	-7.10416666666667	2	0.802734375
3162.0703125	0.00833333333333333	0	-30	-7.10416666666667	1	1.1220703125
3165.5712890625	0.00833333333333333	0	30	4.92083333333333	1	0.693359375
3168.6044921875	0.00833333333333333	0	30	5.04583333333333	1	0.7646484375
3171.4287109375	0.00833333333333333	0	30	5.04583333333333	1	0.8837890625
3174.404296875	0.00833333333333333	0	30	5.04583333333333	2	0.740234375
3177.1875	0.00833333333333333	0	-30	-7.10416666666667	1	1.0693359375
3180.5615234375	0.00833333333333333	0	30	5.04583333333333	2	0.943359375
3183.5869140625	0.00833333333333333	0	30	5.04583333333333	2	0.7578125
3186.4287109375	0.00833333333333333	0	-30	-7.10416666666667	2	0.8603515625
3189.478515625	0.00833333333333333	0	30	5.04583333333333	1	0.7548828125
3192.544921875	0.00833333333333333	0	-30	-7.10416666666667	2	0.7919921875
3195.6455078125	0.00833333333333333	0	30	5.04583333333333	2	1.1796875
3199.0869140625	0.00833333333333333	0	30	5.04583333333333	2	0.890625
3202.27734375	0.00833333333333333	0	-30	-7.10416666666667	2	0.7158203125
3205.38671875	0.00833333333333333	0	-30	-7.10416666666667	2	1.2470703125
3208.8203125	0.00833333333333333	0	-30	-7.10416666666667	1	0.869140625
3211.7119140625	0.00833333333333333	0	-30	-7.10416666666667	2	1.1142578125
3219.3193359375	0.00833333333333333	0	30	5.04583333333333	1	0.9306640625
3222.544921875	0.00833333333333333	0	30	5.04583333333333	1	0.79296875
3225.51953125	0.00833333333333333	0	30	5.04583333333333	1	0.6904296875
3228.6865234375	0.00833333333333333	0	-30	-7.10416666666667	2	0.7001953125
3231.419921875	0.00833333333333333	0	30	5.04583333333333	1	1.0380859375
3234.544921875	0.00833333333333333	0	-30	-7.10416666666667	2	0.666015625
3237.203125	0.00833333333333333	0	-30	-7.10416666666667	1	1.3193359375
3240.9521484375	0.00833333333333333	0	-30	-7.10416666666667	2	0.7626953125
3244.1865234375	0.00833333333333333	0	-30	-7.10416666666667	1	0.984375
3247.4033203125	0.00833333333333333	0	-30	-7.10416666666667	2	0.751953125
3250.3359375	0.00833333333333333	0	-30	-7.10416666666667	1	1.71484375
3254.236328125	0.00833333333333333	0	-30	-7.10416666666667	2	1.478515625
3258.1181640625	0.00833333333333333	0	30	5.04583333333333	1	0.9248046875
3261.15234375	0.00833333333333333	0	-30	-7.10416666666667	1	0.955078125
3264.435546875	0.00833333333333333	0	30	5.17083333333333	2	0.935546875
3267.544921875	0.00833333333333333	0	-30	-7.10416666666667	1	0.962890625
3270.7353515625	0.00833333333333333	0	-30	-7.10416666666667	1	0.908203125
3274.1025390625	0.00833333333333333	0	-30	-7.10416666666667	1	0.78125
3276.9775390625	0.00833333333333333	0	30	5.17083333333333	2	0.8984375
3279.9677734375	0.00833333333333333	0	-30	-7.10416666666667	1	0.7158203125
3282.677734375	0.00833333333333333	0	-30	-6.97916666666667	1	1.150390625
3286.02734375	0.00833333333333333	0	30	5.17083333333333	2	0.9365234375
3289.34375	0.00833333333333333	0	-30	-6.97916666666667	1	2.0283203125
3293.869140625	0.00833333333333333	0	-30	-6.97916666666667	1	0.7109375
3297.076171875	0.00833333333333333	0	30	5.17083333333333	2	1.1123046875
3300.501953125	0.00833333333333333	0	-30	-6.97916666666667	1	0.7587890625
3303.7265625	0.00833333333333333	0	-30	-6.97916666666667	1	0.8701171875
3306.6689453125	0.00833333333333333	0	-30	-6.85416666666667	1	0.8642578125
3309.634765625	0.00833333333333333	0	-30	-6.85416666666667	1	0.73046875
3312.6435546875	0.00833333333333333	0	30	5.17083333333333	2	0.9697265625
3315.7939453125	0.00833333333333333	0	30	5.04583333333333	2	0.8349609375
3319.0439453125	0.00833333333333333	0	30	5.04583333333333	2	0.953125
3322.443359375	0.00833333333333333	0	-30	-6.85416666666667	1	1.7216796875
3326.4267578125	0.00833333333333333	0	30	5.04583333333333	2	0.970703125
3329.79296875	0.00833333333333333	0	30	5.04583333333333	2	0.7568359375
3332.7099609375	0.00833333333333333	0	30	5.04583333333333	2	0.6953125
3335.6767578125	0.00833333333333333	0	30	4.92083333333333	2	0.9453125
3339.0263671875	0.00833333333333333	0	-30	-6.85416666666667	2	0.8671875
3342.3427734375	0.00833333333333333	0	30	4.92083333333333	1	0.9189453125
3345.359375	0.00833333333333333	0	30	4.92083333333333	2	1.287109375
3349.1181640625	0.00833333333333333	0	30	4.92083333333333	1	0.767578125
3352.0849609375	0.00833333333333333	0	30	4.92083333333333	1	0.8017578125
3355.134765625	0.00833333333333333	0	30	4.92083333333333	1	0.6552734375
3358.1005859375	0.00833333333333333	0	30	4.92083333333333	2	1.1943359375
3361.517578125	0.00833333333333333	0	30	4.92083333333333	2	1.056640625
3364.634765625	0.00833333333333333	0	-30	-6.85416666666667	2	0.9716796875
3367.7509765625	0.00833333333333333	0	30	4.92083333333333	1	0.80859375
3370.4931640625	0.00833333333333333	0	-30	-6.85416666666667	2	1.2978515625
3373.7841796875	0.00833333333333333	0	-30	-6.85416666666667	2	1.0546875
3377.2841796875	0.00833333333333333	0	30	4.92083333333333	2	0.9150390625
3380.42578125	0.00833333333333333	0	30	4.92083333333333	2	0.9814453125
3383.6259765625	0.00833333333333333	0	-30	-6.85416666666667	1	1.8134765625
3387.8671875	0.00833333333333333	0	30	4.92083333333333	2	1.060546875
3391.359375	0.00833333333333333	0	30	4.92083333333333	1	0.912109375
3394.5673828125	0.00833333333333333	0	-30	-6.85416666666667	2	0.7841796875
3397.3828125	0.00833333333333333	0	-30	-6.85416666666667	2	0.857421875
3400.326171875	0.00833333333333333	0	30	4.92083333333333	1	1.185546875
3403.7177734375	0.00833333333333333	0	30	4.92083333333333	2	0.7060546875
3406.517578125	0.00833333333333333	0	30	4.92083333333333	1	1.3544921875
3410.359375	0.00833333333333333	0	30	4.92083333333333	1	3.8251953125
3416.4833984375	0.00833333333333333	0	-30	-6.85416666666667	2	0.724609375
3419.4833984375	0.00833333333333333	0	30	4.92083333333333	1	0.7734375
3422.3583984375	0.00833333333333333	0	-30	-6.85416666666667	2	0.73828125
3425.30859375	0.00833333333333333	0	30	4.92083333333333	1	0.65234375
3428.1669921875	0.00833333333333333	0	-30	-6.85416666666667	2	0.681640625
3431.2333984375	0.00833333333333333	0	30	4.92083333333333	1	0.671875
3433.9580078125	0.00833333333333333	0	30	5.04583333333333	2	0.69140625
3436.7919921875	0.00833333333333333	0	-30	-6.97916666666667	2	0.625
3439.474609375	0.00833333333333333	0	30	5.04583333333333	2	1.0703125
3442.591796875	0.00833333333333333	0	-30	-6.97916666666667	2	0.705078125
3445.7001953125	0.00833333333333333	0	-30	-6.97916666666667	2	0.796875
3448.7333984375	0.00833333333333333	0	-30	-6.97916666666667	2	0.6044921875
3451.69140625	0.00833333333333333	0	30	5.04583333333333	1	1.1259765625
3455.0419921875	0.00833333333333333	0	-30	-6.97916666666667	2	0.7275390625
3457.81640625	0.00833333333333333	0	-30	-7.10416666666667	1	0.9453125
3460.791015625	0.00833333333333333	0	30	5.04583333333333	1	0.7626953125
3463.666015625	0.00833333333333333	0	-30	-7.10416666666667	2	0.599609375
3466.7080078125	0.00833333333333333	0	-30	-7.10416666666667	2	0.92578125
3469.640625	0.00833333333333333	0	30	5.04583333333333	1	2.666015625
3474.341796875	0.00833333333333333	0	30	5.04583333333333	2	1.236328125
3517.8994140625	0.00833333333333333	0	30	5.04583333333333	1	1.16015625
3521.048828125	0.00833333333333333	0	30	5.04583333333333	1	0.73046875
3524.08203125	0.00833333333333333	0	-30	-7.10416666666667	2	0.6416015625
3526.8486328125	0.00833333333333333	0	30	5.04583333333333	1	0.619140625
3529.5234375	0.00833333333333333	0	-30	-7.10416666666667	2	1.3603515625
3533.1318359375	0.00833333333333333	0	30	5.04583333333333	1	0.6318359375
3536.056640625	0.00833333333333333	0	30	5.04583333333333	2	0.5634765625
3538.9736328125	0.00833333333333333	0	-30	-7.10416666666667	2	0.638671875
3541.6240234375	0.00833333333333333	0	-30	-7.22916666666667	1	1.7001953125
3545.7890625	0.00833333333333333	0	30	5.04583333333333	1	0.6552734375
3548.6240234375	0.00833333333333333	0	30	5.04583333333333	1	0.62890625
3551.3564453125	0.00833333333333333	0	30	5.04583333333333	2	0.744140625
3554.5234375	0.00833333333333333	0	30	5.04583333333333	1	0.705078125
3557.6650390625	0.00833333333333333	0	30	5.04583333333333	1	0.779296875
3560.7470703125	0.00833333333333333	0	-30	-7.22916666666667	2	0.7626953125
3563.9736328125	0.00833333333333333	0	-30	-7.22916666666667	2	1.34375
3567.638671875	0.00833333333333333	0	-30	-7.22916666666667	2	1.5341796875
3571.28125	0.00833333333333333	0	-30	-7.22916666666667	1	2.2041015625
3575.947265625	0.00833333333333333	0	30	5.04583333333333	2	0.8505859375
3578.96484375	0.00833333333333333	0	-30	-7.22916666666667	2	1.8017578125
3582.7724609375	0.00833333333333333	0	30	5.04583333333333	2	2.0810546875
3587.21484375	0.00833333333333333	0	30	5.04583333333333	2	0.8955078125
3590.306640625	0.00833333333333333	0	30	5.04583333333333	2	0.8115234375
3593.556640625	0.00833333333333333	0	-30	-7.22916666666667	2	0.7216796875
3596.5224609375	0.00833333333333333	0	30	5.04583333333333	2	0.7158203125
3599.59765625	0.00833333333333333	0	-30	-7.22916666666667	1	0.8173828125
3602.84765625	0.00833333333333333	0	-30	-7.22916666666667	2	0.7265625
3605.755859375	0.00833333333333333	0	30	4.92083333333333	1	0.8583984375
3608.630859375	0.00833333333333333	0	30	4.92083333333333	1	0.935546875
3611.5810546875	0.00833333333333333	0	-30	-7.22916666666667	2	0.9140625
3614.5146484375	0.00833333333333333	0	-30	-7.22916666666667	2	0.748046875
3617.4638671875	0.00833333333333333	0	30	4.92083333333333	1	0.7109375
3620.49609375	0.00833333333333333	0	30	4.92083333333333	1	0.71875
3623.322265625	0.00833333333333333	0	30	4.92083333333333	1	0.7412109375
3626.48046875	0.00833333333333333	0	-30	-7.22916666666667	2	0.6630859375
3629.130859375	0.00833333333333333	0	30	5.04583333333333	1	0.7802734375
3632.34765625	0.00833333333333333	0	30	5.04583333333333	1	1.01171875
3635.380859375	0.00833333333333333	0	-30	-7.22916666666667	2	0.826171875
3638.3388671875	0.00833333333333333	0	30	5.04583333333333	2	1.3642578125
3641.9130859375	0.00833333333333333	0	30	5.04583333333333	1	0.6708984375
3644.822265625	0.00833333333333333	0	-30	-7.35416666666667	2	0.8251953125
3647.755859375	0.00833333333333333	0	30	5.04583333333333	1	0.7001953125
3650.671875	0.00833333333333333	0	30	5.04583333333333	2	0.6962890625
3653.3876953125	0.00833333333333333	0	30	5.04583333333333	2	1.388671875
3657.197265625	0.00833333333333333	0	30	5.04583333333333	2	0.955078125
3660.205078125	0.00833333333333333	0	30	5.04583333333333	1	0.6591796875
3663.0546875	0.00833333333333333	0	-30	-7.35416666666667	1	1.0654296875
3666.388671875	0.00833333333333333	0	-30	-7.35416666666667	1	1.02734375
3669.6796875	0.00833333333333333	0	-30	-7.35416666666667	2	0.8173828125
3672.9287109375	0.00833333333333333	0	-30	-7.35416666666667	1	1.583984375
3676.7216796875	0.00833333333333333	0	30	5.04583333333333	1	0.9345703125
3679.896484375	0.00833333333333333	0	30	5.04583333333333	2	0.912109375
3683.087890625	0.00833333333333333	0	30	5.04583333333333	1	0.9853515625
3686.24609375	0.00833333333333333	0	-30	-7.35416666666667	1	1.04296875
3689.5126953125	0.00833333333333333	0	-30	-7.35416666666667	2	0.896484375
3692.87109375	0.00833333333333333	0	30	5.04583333333333	1	0.6025390625
3695.587890625	0.00833333333333333	0	30	5.04583333333333	1	0.6689453125
3698.3544921875	0.00833333333333333	0	-30	-7.35416666666667	2	0.9345703125
3701.73828125	0.00833333333333333	0	30	5.04583333333333	1	0.615234375
3704.654296875	0.00833333333333333	0	-30	-7.35416666666667	2	0.67578125
3707.6796875	0.00833333333333333	0	30	5.04583333333333	1	0.7138671875
3710.529296875	0.00833333333333333	0	-30	-7.35416666666667	2	0.6650390625
3713.4375	0.00833333333333333	0	30	5.17083333333333	1	0.6044921875
3716.4541015625	0.00833333333333333	0	-30	-7.35416666666667	2	0.6435546875
3719.2705078125	0.00833333333333333	0	-30	-7.47916666666667	1	1.5712890625
3722.8544921875	0.00833333333333333	0	30	5.17083333333333	1	0.755859375
3725.9619140625	0.00833333333333333	0	30	5.17083333333333	1	0.7763671875
3728.8115234375	0.00833333333333333	0	-30	-7.47916666666667	2	0.703125
3731.9375	0.00833333333333333	0	-30	-7.47916666666667	1	0.9052734375
3734.99609375	0.00833333333333333	0	-30	-7.47916666666667	1	1.20703125
3738.2626953125	0.00833333333333333	0	-30	-7.47916666666667	2	0.587890625
3741.3291015625	0.00833333333333333	0	30	5.17083333333333	1	0.76171875
3744.4453125	0.00833333333333333	0	30	5.17083333333333	1	0.677734375
3747.26171875	0.00833333333333333	0	30	5.29583333333333	1	0.93359375
3750.6123046875	0.00833333333333333	0	30	5.29583333333333	1	0.8154296875
3753.8359375	0.00833333333333333	0	30	5.29583333333333	1	0.9033203125
3756.8125	0.00833333333333333	0	-30	-7.47916666666667	2	0.9189453125
3760.0205078125	0.00833333333333333	0	-30	-7.47916666666667	1	1.279296875
3763.6953125	0.00833333333333333	0	30	5.29583333333333	2	1.0927734375
3767.1123046875	0.00833333333333333	0	-30	-7.47916666666667	2	0.962890625
3775.828125	0.00833333333333333	0	30	5.29583333333333	1	1.263671875
3779.3955078125	0.00833333333333333	0	-30	-7.47916666666667	2	0.880859375
3782.39453125	0.00833333333333333	0	-30	-7.47916666666667	1	2.3056640625
3786.9111328125	0.00833333333333333	0	-30	-7.47916666666667	2	0.796875
3790.0869140625	0.00833333333333333	0	30	5.29583333333333	1	0.7578125
3793.0361328125	0.00833333333333333	0	30	5.29583333333333	1	0.82421875
3795.88671875	0.00833333333333333	0	30	5.29583333333333	2	0.822265625
3798.9619140625	0.00833333333333333	0	-30	-7.47916666666667	1	0.7626953125
3802.0693359375	0.00833333333333333	0	-30	-7.47916666666667	1	0.7197265625
3805.1025390625	0.00833333333333333	0	30	5.29583333333333	2	0.638671875
3807.8447265625	0.00833333333333333	0	30	5.29583333333333	1	1.1201171875
3811.044921875	0.00833333333333333	0	-30	-7.47916666666667	2	1.1923828125
3814.4033203125	0.00833333333333333	0	30	5.29583333333333	1	1.09765625
3817.9111328125	0.00833333333333333	0	30	5.29583333333333	2	1.23828125
3821.65234375	0.00833333333333333	0	-30	-7.47916666666667	1	0.8974609375
3824.5693359375	0.00833333333333333	0	30	5.29583333333333	1	1.8837890625
3828.669921875	0.00833333333333333	0	-30	-7.47916666666667	1	0.9833984375
3831.703125	0.00833333333333333	0	-30	-7.47916666666667	1	0.783203125
3834.6767578125	0.00833333333333333	0	30	5.29583333333333	2	0.78515625
3837.90234375	0.00833333333333333	0	30	5.29583333333333	1	0.83984375
3840.96875	0.00833333333333333	0	-30	-7.47916666666667	1	0.876953125
3843.9609375	0.00833333333333333	0	30	5.29583333333333	1	1.0849609375
3847.16796875	0.00833333333333333	0	30	5.29583333333333	1	0.8544921875
3850.4443359375	0.00833333333333333	0	30	5.29583333333333	2	0.7705078125
3853.3271484375	0.00833333333333333	0	-30	-7.47916666666667	2	1.0712890625
3856.6103515625	0.00833333333333333	0	-30	-7.47916666666667	1	0.98828125
3859.8525390625	0.00833333333333333	0	-30	-7.47916666666667	1	2.833984375
3864.9609375	0.00833333333333333	0	30	5.29583333333333	1	1.333984375
3868.626953125	0.00833333333333333	0	-30	-7.47916666666667	1	1.2841796875
3872.09375	0.00833333333333333	0	-30	-7.47916666666667	1	0.8896484375
3875.119140625	0.00833333333333333	0	-30	-7.47916666666667	2	0.6162109375
3877.92578125	0.00833333333333333	0	-30	-7.47916666666667	2	0.8095703125
3881.2021484375	0.00833333333333333	0	30	5.29583333333333	1	0.701171875
3883.9765625	0.00833333333333333	0	-30	-7.47916666666667	2	1.5830078125
3887.9599609375	0.00833333333333333	0	30	5.29583333333333	1	0.759765625
3891.126953125	0.00833333333333333	0	-30	-7.47916666666667	2	0.6328125
3894.1103515625	0.00833333333333333	0	-30	-7.47916666666667	2	0.8896484375
3897.4853515625	0.00833333333333333	0	30	5.29583333333333	1	0.7548828125
3900.3095703125	0.00833333333333333	0	-30	-7.60416666666667	1	1.0029296875
3903.6435546875	0.00833333333333333	0	30	5.29583333333333	2	0.6767578125
3906.41015625	0.00833333333333333	0	-30	-7.60416666666667	2	0.9423828125
3909.67578125	0.00833333333333333	0	30	5.29583333333333	1	0.8203125
3912.7177734375	0.00833333333333333	0	-30	-7.60416666666667	2	1.322265625
3916.1845703125	0.00833333333333333	0	30	5.29583333333333	1	0.671875
3918.9501953125	0.00833333333333333	0	30	5.29583333333333	2	0.71484375
3921.826171875	0.00833333333333333	0	-30	-7.60416666666667	2	0.89453125
3925.1259765625	0.00833333333333333	0	30	5.29583333333333	1	0.5390625
3927.951171875	0.00833333333333333	0	30	5.29583333333333	2	0.697265625
3930.7763671875	0.00833333333333333	0	30	5.29583333333333	1	0.7451171875
3933.66796875	0.00833333333333333	0	-30	-7.60416666666667	2	1.8212890625
3937.8759765625	0.00833333333333333	0	-30	-7.60416666666667	2	0.61328125
3940.6748046875	0.00833333333333333	0	30	5.29583333333333	2	0.8544921875
3943.5673828125	0.00833333333333333	0	-30	-7.72916666666667	2	0.994140625
3946.9755859375	0.00833333333333333	0	-30	-7.72916666666667	2	0.658203125
3949.984375	0.00833333333333333	0	30	5.29583333333333	1	0.6328125
3952.9423828125	0.00833333333333333	0	-30	-7.72916666666667	1	0.8515625
3956.1923828125	0.00833333333333333	0	-30	-7.72916666666667	2	0.6494140625
3959.1845703125	0.00833333333333333	0	-30	-7.72916666666667	1	0.8017578125
3962.083984375	0.00833333333333333	0	-30	-7.72916666666667	2	0.669921875
3964.892578125	0.00833333333333333	0	-30	-7.72916666666667	2	0.6689453125
3967.7255859375	0.00833333333333333	0	-30	-7.72916666666667	2	0.708984375
3970.6337890625	0.00833333333333333	0	30	5.29583333333333	1	0.744140625
3973.5009765625	0.00833333333333333	0	30	5.29583333333333	1	0.7333984375
3976.4833984375	0.00833333333333333	0	30	5.29583333333333	1	0.703125
3979.4423828125	0.00833333333333333	0	30	5.29583333333333	2	0.8642578125
3982.341796875	0.00833333333333333	0	30	5.29583333333333	1	0.6689453125
3985.416015625	0.00833333333333333	0	30	5.29583333333333	1	0.71484375
3988.216796875	0.00833333333333333	0	-30	-7.72916666666667	1	0.986328125
3991.6083984375	0.00833333333333333	0	-30	-7.72916666666667	2	1.0986328125
3994.900390625	0.00833333333333333	0	30	5.29583333333333	1	1.87109375
3998.8173828125	0.00833333333333333	0	-30	-7.72916666666667	1	0.9453125
4002.2001953125	0.00833333333333333	0	30	5.29583333333333	1	0.7548828125
4005.2421875	0.00833333333333333	0	-30	-7.72916666666667	2	0.8408203125
4008.216796875	0.00833333333333333	0	30	5.29583333333333	1	0.8427734375
4011.4921875	0.00833333333333333	0	30	5.42083333333333	1	0.6953125
4014.466796875	0.00833333333333333	0	-30	-7.72916666666667	1	1.1533203125
4017.625	0.00833333333333333	0	-30	-7.72916666666667	1	0.9462890625
4020.68359375	0.00833333333333333	0	-30	-7.72916666666667	1	0.9365234375
4023.81640625	0.00833333333333333	0	-30	-7.72916666666667	1	1.6435546875
4027.740234375	0.00833333333333333	0	30	5.42083333333333	1	1.19921875
4124.3974609375	0.00833333333333333	0	30	5.42083333333333	1	0.921875
4127.5234375	0.00833333333333333	0	30	5.42083333333333	1	0.580078125
4130.564453125	0.00833333333333333	0	-30	-7.72916666666667	2	0.5625
4133.546875	0.00833333333333333	0	30	5.42083333333333	1	0.5087890625
4136.4150390625	0.00833333333333333	0	-30	-7.72916666666667	2	0.576171875
4139.064453125	0.00833333333333333	0	-30	-7.72916666666667	2	0.5751953125
4141.748046875	0.00833333333333333	0	-30	-7.72916666666667	1	0.7001953125
4144.8818359375	0.00833333333333333	0	-30	-7.72916666666667	2	0.7021484375
4148.005859375	0.00833333333333333	0	30	5.54583333333333	1	0.5947265625
4150.623046875	0.00833333333333333	0	-30	-7.72916666666667	2	0.953125
4153.5810546875	0.00833333333333333	0	-30	-7.72916666666667	2	0.642578125
4156.4228515625	0.00833333333333333	0	30	5.54583333333333	2	0.7216796875
4159.4306640625	0.00833333333333333	0	30	5.54583333333333	1	0.697265625
4162.4892578125	0.00833333333333333	0	-30	-7.72916666666667	2	0.630859375
4165.46484375	0.00833333333333333	0	-30	-7.72916666666667	2	0.6240234375
4168.3310546875	0.00833333333333333	0	-30	-7.85416666666667	1	0.8935546875
4171.28125	0.00833333333333333	0	30	5.54583333333333	1	0.7509765625
4174.123046875	0.00833333333333333	0	30	5.54583333333333	1	0.9580078125
4177.5390625	0.00833333333333333	0	-30	-7.85416666666667	2	0.8857421875
4180.5302734375	0.00833333333333333	0	30	5.54583333333333	2	0.8466796875
4183.40625	0.00833333333333333	0	30	5.54583333333333	2	0.802734375
4186.5390625	0.00833333333333333	0	-30	-7.85416666666667	1	0.9736328125
4189.5224609375	0.00833333333333333	0	30	5.54583333333333	1	0.86328125
4192.60546875	0.00833333333333333	0	30	5.54583333333333	1	1.3076171875
4196.197265625	0.00833333333333333	0	30	5.54583333333333	2	0.8125
4199.2470703125	0.00833333333333333	0	30	5.54583333333333	2	1.04296875
4202.6220703125	0.00833333333333333	0	30	5.54583333333333	2	1.02734375
4205.7138671875	0.00833333333333333	0	-30	-7.85416666666667	1	0.8076171875
4208.61328125	0.00833333333333333	0	30	5.54583333333333	2	0.66015625
4211.49609375	0.00833333333333333	0	-30	-7.85416666666667	1	0.7138671875
4214.513671875	0.00833333333333333	0	30	5.54583333333333	2	0.640625
4217.1796875	0.00833333333333333	0	-30	-7.85416666666667	1	0.806640625
4220.138671875	0.00833333333333333	0	30	5.42083333333333	2	0.6318359375
4223.095703125	0.00833333333333333	0	30	5.42083333333333	2	1.322265625
4226.4638671875	0.00833333333333333	0	30	5.42083333333333	2	0.8828125
4229.48046875	0.00833333333333333	0	-30	-7.85416666666667	2	0.6337890625
4232.2548828125	0.00833333333333333	0	30	5.42083333333333	1	0.6513671875
4235.35546875	0.00833333333333333	0	-30	-7.85416666666667	2	0.6953125
4238.2216796875	0.00833333333333333	0	30	5.42083333333333	2	0.7578125
4241.3134765625	0.00833333333333333	0	-30	-7.85416666666667	2	0.7216796875
4244.396484375	0.00833333333333333	0	30	5.42083333333333	2	0.9912109375
4247.5634765625	0.00833333333333333	0	-30	-7.85416666666667	2	0.8076171875
4250.4208984375	0.00833333333333333	0	30	5.42083333333333	2	0.8388671875
4253.37109375	0.00833333333333333	0	30	5.42083333333333	2	0.7919921875
4256.455078125	0.00833333333333333	0	-30	-7.85416666666667	2	0.63671875
4259.462890625	0.00833333333333333	0	-30	-7.97916666666667	2	0.62109375
4262.4208984375	0.00833333333333333	0	30	5.42083333333333	2	0.6865234375
4265.5126953125	0.00833333333333333	0	-30	-7.97916666666667	2	0.70703125
4268.646484375	0.00833333333333333	0	-30	-7.97916666666667	2	0.9091796875
4271.587890625	0.00833333333333333	0	30	5.29583333333333	2	0.728515625
4274.7041015625	0.00833333333333333	0	-30	-7.97916666666667	2	0.7001953125
4277.5712890625	0.00833333333333333	0	30	5.29583333333333	2	0.689453125
4280.5126953125	0.00833333333333333	0	-30	-7.97916666666667	2	0.5478515625
4283.49609375	0.00833333333333333	0	30	5.29583333333333	1	0.748046875
4286.3955078125	0.00833333333333333	0	-30	-8.10416666666666	2	0.6650390625
4289.095703125	0.00833333333333333	0	30	5.29583333333333	1	0.708984375
4292.2041015625	0.00833333333333333	0	30	5.29583333333333	1	1.2890625
4295.537109375	0.00833333333333333	0	-30	-8.10416666666666	2	0.66796875
4298.537109375	0.00833333333333333	0	-30	-8.10416666666666	2	0.7958984375
4301.779296875	0.00833333333333333	0	30	5.29583333333333	1	0.5693359375
4304.39453125	0.00833333333333333	0	-30	-8.10416666666666	2	0.658203125
4307.1875	0.00833333333333333	0	-30	-8.10416666666666	1	0.76171875
4310.01171875	0.00833333333333333	0	-30	-8.10416666666666	1	0.78515625
4313.26171875	0.00833333333333333	0	30	5.29583333333333	1	0.943359375
4316.50390625	0.00833333333333333	0	-30	-8.10416666666666	2	0.7890625
4319.544921875	0.00833333333333333	0	-30	-8.10416666666666	1	0.64453125
4322.412109375	0.00833333333333333	0	-30	-8.10416666666666	1	1.009765625
4325.8291015625	0.00833333333333333	0	-30	-8.10416666666666	2	0.6884765625
4328.5283203125	0.00833333333333333	0	30	5.42083333333333	1	0.669921875
4331.5869140625	0.00833333333333333	0	30	5.42083333333333	1	0.6826171875
4334.50390625	0.00833333333333333	0	30	5.42083333333333	1	0.6064453125
4337.1953125	0.00833333333333333	0	30	5.42083333333333	1	0.8984375
4340.1953125	0.00833333333333333	0	30	5.42083333333333	1	0.642578125
4343.037109375	0.00833333333333333	0	-30	-8.10416666666666	2	0.6015625
4346.01171875	0.00833333333333333	0	30	5.54583333333333	1	0.6748046875
4348.9111328125	0.00833333333333333	0	-30	-8.10416666666666	1	0.7353515625
4351.9453125	0.00833333333333333	0	-30	-8.10416666666666	1	0.6767578125
4354.9697265625	0.00833333333333333	0	-30	-8.10416666666666	2	0.7490234375
4358.15234375	0.00833333333333333	0	-30	-8.10416666666666	1	0.75
4360.89453125	0.00833333333333333	0	-30	-8.10416666666666	2	0.744140625
4374.236328125	0.00833333333333333	0	-30	-8.10416666666666	1	1.4345703125
4377.9443359375	0.00833333333333333	0	-30	-8.10416666666666	1	0.85546875
4380.9609375	0.00833333333333333	0	30	5.54583333333333	2	0.8701171875
4383.8857421875	0.00833333333333333	0	-30	-8.10416666666666	1	1.4580078125
4387.39453125	0.00833333333333333	0	-30	-8.10416666666666	1	0.716796875
4390.1943359375	0.00833333333333333	0	-30	-8.10416666666666	1	0.7333984375
4393.0693359375	0.00833333333333333	0	30	5.54583333333333	2	1.0830078125
4396.236328125	0.00833333333333333	0	30	5.54583333333333	2	0.8837890625
4399.310546875	0.00833333333333333	0	30	5.54583333333333	2	0.6572265625
4401.9775390625	0.00833333333333333	0	-30	-7.97916666666666	1	0.654296875
4404.9609375	0.00833333333333333	0	30	5.54583333333333	2	0.7353515625
4407.7607421875	0.00833333333333333	0	30	5.42083333333333	2	0.7998046875
4410.9111328125	0.00833333333333333	0	30	5.42083333333333	2	0.9931640625
4414.2109375	0.00833333333333333	0	30	5.42083333333333	2	0.7734375
4417.244140625	0.00833333333333333	0	30	5.42083333333333	2	0.7568359375
4420.29296875	0.00833333333333333	0	30	5.42083333333333	2	0.67578125
4423.068359375	0.00833333333333333	0	-30	-7.97916666666666	1	0.7880859375
4426.1025390625	0.00833333333333333	0	-30	-7.97916666666666	1	0.650390625
4429.1435546875	0.00833333333333333	0	-30	-7.97916666666666	1	1.09765625
4432.6015625	0.00833333333333333	0	-30	-7.97916666666666	1	0.6552734375
4435.3173828125	0.00833333333333333	0	-30	-7.85416666666666	1	0.7001953125
4438.3857421875	0.00833333333333333	0	-30	-7.85416666666666	1	0.623046875
4441.376953125	0.00833333333333333	0	-30	-7.85416666666666	1	0.751953125
4444.4345703125	0.00833333333333333	0	30	5.29583333333333	2	0.638671875
4447.40234375	0.00833333333333333	0	-30	-7.85416666666666	1	0.623046875
4450.083984375	0.00833333333333333	0	30	5.29583333333333	2	0.7255859375
4453.0185546875	0.00833333333333333	0	-30	-7.85416666666666	1	0.7509765625
4456.0263671875	0.00833333333333333	0	30	5.29583333333333	2	0.5927734375
4458.751953125	0.00833333333333333	0	30	5.29583333333333	2	0.6826171875
4461.4765625	0.00833333333333333	0	30	5.29583333333333	2	0.693359375
4464.5263671875	0.00833333333333333	0	-30	-7.72916666666666	1	0.6201171875
4467.318359375	0.00833333333333333	0	-30	-7.72916666666666	1	0.68359375
4470.2099609375	0.00833333333333333	0	30	5.17083333333333	1	0.6005859375
4473.1259765625	0.00833333333333333	0	-30	-7.72916666666666	1	0.580078125
4475.7685546875	0.00833333333333333	0	30	5.17083333333333	2	0.650390625
4478.650390625	0.00833333333333333	0	30	5.17083333333333	2	0.591796875
4481.3603515625	0.00833333333333333	0	30	5.17083333333333	2	0.634765625
4484.3759765625	0.00833333333333333	0	-30	-7.72916666666666	1	0.70703125
4487.2099609375	0.00833333333333333	0	30	5.17083333333333	2	0.6083984375
4489.826171875	0.00833333333333333	0	30	5.17083333333333	2	0.7529296875
4492.859375	0.00833333333333333	0	-30	-7.72916666666666	1	0.7353515625
4495.900390625	0.00833333333333333	0	30	5.04583333333333	2	0.703125
4498.7763671875	0.00833333333333333	0	30	5.04583333333333	2	0.5634765625
4501.4931640625	0.00833333333333333	0	30	5.04583333333333	2	0.58984375
4504.30078125	0.00833333333333333	0	30	5.04583333333333	2	0.6953125
4507.0673828125	0.00833333333333333	0	30	5.04583333333333	2	0.583984375
4509.625	0.00833333333333333	0	-30	-7.60416666666666	1	0.7705078125
4512.7763671875	0.00833333333333333	0	30	4.92083333333333	2	0.619140625
4515.8671875	0.00833333333333333	0	-30	-7.60416666666666	1	0.640625
4518.609375	0.00833333333333333	0	30	4.92083333333333	2	0.642578125
4521.5419921875	0.00833333333333333	0	-30	-7.60416666666666	1	0.734375
4524.708984375	0.00833333333333333	0	30	4.92083333333333	2	0.5830078125
4527.3759765625	0.00833333333333333	0	-30	-7.60416666666666	1	0.748046875
4530.2255859375	0.00833333333333333	0	-30	-7.60416666666666	2	0.490234375
4532.9501953125	0.00833333333333333	0	-30	-7.60416666666666	1	0.5498046875
4535.8505859375	0.00833333333333333	0	30	4.92083333333333	2	0.521484375
4538.6337890625	0.00833333333333333	0	-30	-7.60416666666666	1	0.5703125
4541.2333984375	0.00833333333333333	0	-30	-7.60416666666666	1	0.8115234375
4544.0673828125	0.00833333333333333	0	30	4.92083333333333	2	0.865234375
4547.083984375	0.00833333333333333	0	-30	-7.60416666666666	1	0.384765625
4549.7666015625	0.00833333333333333	0	-30	-7.60416666666666	1	0.58203125
4552.6005859375	0.00833333333333333	0	-30	-7.47916666666666	1	1.0126953125
4555.94921875	0.00833333333333333	0	-30	-7.47916666666666	1	1.328125
4559.30859375	0.00833333333333333	0	-30	-7.47916666666666	1	0.82421875
4562.5078125	0.00833333333333333	0	30	4.79583333333333	2	0.537109375
4565.3837890625	0.00833333333333333	0	30	4.79583333333333	2	0.4453125
4568.2822265625	0.00833333333333333	0	30	4.79583333333333	2	0.5791015625
4571.1083984375	0.00833333333333333	0	-30	-7.47916666666666	1	0.689453125
4574.1416015625	0.00833333333333333	0	-30	-7.47916666666666	1	0.6318359375
4576.900390625	0.00833333333333333	0	-30	-7.35416666666666	1	0.6572265625
4579.5908203125	0.00833333333333333	0	-30	-7.35416666666666	1	0.775390625
4582.4580078125	0.00833333333333333	0	-30	-7.35416666666666	1	0.6435546875
4585.1162109375	0.00833333333333333	0	-30	-7.35416666666666	1	0.6103515625
4587.7998046875	0.00833333333333333	0	30	4.79583333333333	2	0.75
4590.8583984375	0.00833333333333333	0	-30	-7.35416666666666	1	0.6201171875
4593.56640625	0.00833333333333333	0	30	4.79583333333333	2	0.6396484375
4596.3828125	0.00833333333333333	0	-30	-7.22916666666666	1	0.615234375
4599.298828125	0.00833333333333333	0	30	4.67083333333333	2	0.4033203125
4601.7666015625	0.00833333333333333	0	30	4.67083333333333	1	0.4482421875
4604.349609375	0.00833333333333333	0	-30	-7.22916666666666	1	0.6572265625
