onset	duration	titr	surround	centre	response	rt
110.41015625	0.00833333333333333	1	-30	15	1	1.515625
114.1923828125	0.00833333333333333	1	-30	-15	1	0.5087890625
116.7841796875	0.00833333333333333	1	30	-15	2	17.5576171875
136.609375	0.00833333333333333	1	NaN	15	2	2.2763671875
140.9501953125	0.00833333333333333	1	-30	-14	1	1.51171875
144.892578125	0.00833333333333333	1	30	15	2	1.9697265625
148.8583984375	0.00833333333333333	1	-30	-13	1	0.908203125
151.8427734375	0.00833333333333333	1	30	-16	1	0.7158203125
154.7001953125	0.00833333333333333	1	30	14	2	0.8828125
157.7001953125	0.00833333333333333	1	30	13	2	0.9384765625
160.892578125	0.00833333333333333	1	NaN	14	2	0.5859375
163.6826171875	0.00833333333333333	1	-30	16	2	0.5966796875
166.708984375	0.00833333333333333	1	30	12	2	0.658203125
169.8173828125	0.00833333333333333	1	NaN	-15	1	0.58203125
172.798828125	0.00833333333333333	1	NaN	-14	1	0.4326171875
175.533203125	0.00833333333333333	1	NaN	-13	1	0.482421875
177.9912109375	0.00833333333333333	1	NaN	-12	1	0.5126953125
180.650390625	0.00833333333333333	1	-30	15	2	0.60546875
183.6171875	0.00833333333333333	1	NaN	13	2	0.734375
186.68359375	0.00833333333333333	1	NaN	12	2	0.5400390625
189.525390625	0.00833333333333333	1	NaN	11	2	0.642578125
192.3330078125	0.00833333333333333	1	-30	-12	1	0.955078125
195.533203125	0.00833333333333333	1	-30	14	2	0.626953125
198.607421875	0.00833333333333333	1	30	-15	1	0.705078125
201.5244140625	0.00833333333333333	1	NaN	10	2	0.5
204.25	0.00833333333333333	1	-30	13	2	0.4150390625
206.841796875	0.00833333333333333	1	30	11	2	0.734375
209.974609375	0.00833333333333333	1	NaN	9	2	0.5458984375
212.908203125	0.00833333333333333	1	NaN	-11	1	0.4765625
215.849609375	0.00833333333333333	1	-30	12	2	0.5029296875
218.658203125	0.00833333333333333	1	-30	11	2	0.5986328125
221.4326171875	0.00833333333333333	1	-30	-11	1	0.6884765625
224.32421875	0.00833333333333333	1	-30	-10	1	0.548828125
227.181640625	0.00833333333333333	1	NaN	-10	1	0.515625
229.8916015625	0.00833333333333333	1	30	-14	1	0.4775390625
232.81640625	0.00833333333333333	1	NaN	-9	1	0.4248046875
235.3232421875	0.00833333333333333	1	NaN	8	2	0.5341796875
238.3408203125	0.00833333333333333	1	NaN	7	2	0.8447265625
241.298828125	0.00833333333333333	1	NaN	-8	1	0.4150390625
244.041015625	0.00833333333333333	1	NaN	6	2	0.4169921875
246.482421875	0.00833333333333333	1	NaN	5	2	0.6787109375
249.6826171875	0.00833333333333333	1	30	-13	1	0.470703125
252.2734375	0.00833333333333333	1	NaN	-7	1	0.568359375
255.240234375	0.00833333333333333	1	30	-12	1	0.5615234375
258.0576171875	0.00833333333333333	1	30	-11	1	0.3759765625
260.45703125	0.00833333333333333	1	NaN	4	2	0.45703125
262.990234375	0.00833333333333333	1	-30	-9	1	0.7080078125
265.8408203125	0.00833333333333333	1	30	-10	1	0.4970703125
268.423828125	0.00833333333333333	1	-30	10	2	0.4423828125
270.865234375	0.00833333333333333	1	-30	-8	1	0.5693359375
273.6484375	0.00833333333333333	1	30	-9	1	0.5146484375
276.423828125	0.00833333333333333	1	30	10	2	0.6181640625
279.1318359375	0.00833333333333333	1	NaN	-6	1	0.5029296875
282.0322265625	0.00833333333333333	1	NaN	-5	1	0.5380859375
285.0732421875	0.00833333333333333	1	NaN	3	2	0.44921875
287.890625	0.00833333333333333	1	-30	-7	1	0.6162109375
290.8984375	0.00833333333333333	1	-30	-6	1	0.6171875
293.83984375	0.00833333333333333	1	NaN	2	2	0.6748046875
296.7646484375	0.00833333333333333	1	NaN	1	2	0.6142578125
299.8818359375	0.00833333333333333	1	30	9	2	0.6494140625
302.564453125	0.00833333333333333	1	NaN	0	2	0.630859375
305.4150390625	0.00833333333333333	1	-30	-5	2	0.5322265625
308.09765625	0.00833333333333333	1	30	-8	1	0.513671875
311.08984375	0.00833333333333333	1	-30	9	2	0.4814453125
313.7646484375	0.00833333333333333	1	-30	8	2	0.55078125
316.6728515625	0.00833333333333333	1	-30	-6	2	0.72265625
319.5634765625	0.00833333333333333	1	30	8	2	0.576171875
322.564453125	0.00833333333333333	1	NaN	-4	1	0.5673828125
325.263671875	0.00833333333333333	1	30	7	2	0.548828125
328.0478515625	0.00833333333333333	1	-30	-7	2	0.748046875
330.888671875	0.00833333333333333	1	30	6	2	0.53125
333.4560546875	0.00833333333333333	1	NaN	-1	2	0.5078125
336.3388671875	0.00833333333333333	1	NaN	-3	1	0.59375
339.046875	0.00833333333333333	1	-30	-8	1	0.6376953125
342.10546875	0.00833333333333333	1	30	-7	1	0.4990234375
344.97265625	0.00833333333333333	1	-30	-7	2	1.263671875
348.2392578125	0.00833333333333333	1	-30	7	2	0.494140625
350.84765625	0.00833333333333333	1	NaN	-2	2	0.541015625
353.7470703125	0.00833333333333333	1	NaN	-2	1	0.4814453125
356.4638671875	0.00833333333333333	1	30	5	2	0.62109375
359.421875	0.00833333333333333	1	30	-6	1	0.5595703125
362.189453125	0.00833333333333333	1	-30	6	2	0.4794921875
364.7470703125	0.00833333333333333	1	30	-5	1	0.5380859375
367.2890625	0.00833333333333333	1	-30	-8	1	0.6044921875
369.9794921875	0.00833333333333333	1	30	-4	1	0.513671875
372.5888671875	0.00833333333333333	1	30	4	2	0.728515625
375.3134765625	0.00833333333333333	1	30	-3	1	0.3798828125
378.080078125	0.00833333333333333	1	30	3	2	0.7177734375
381.255859375	0.00833333333333333	1	-30	5	2	0.4775390625
383.9384765625	0.00833333333333333	1	NaN	-3	1	0.5078125
386.6806640625	0.00833333333333333	1	30	-2	1	0.373046875
389.421875	0.00833333333333333	1	NaN	-1	2	0.4326171875
391.947265625	0.00833333333333333	1	NaN	-2	1	0.5234375
394.912109375	0.00833333333333333	1	30	2	2	0.734375
398.1220703125	0.00833333333333333	1	NaN	-2	2	0.46875
400.921875	0.00833333333333333	1	-30	4	2	0.4287109375
403.8212890625	0.00833333333333333	1	30	-1	1	0.5537109375
406.4208984375	0.00833333333333333	1	-30	-7	2	0.4658203125
409.296875	0.00833333333333333	1	30	0	1	0.494140625
429.0712890625	0.00833333333333333	1	NaN	-1	2	0.9677734375
432.3466796875	0.00833333333333333	1	NaN	-2	2	0.724609375
435.5048828125	0.00833333333333333	1	30	1	1	0.6865234375
438.646484375	0.00833333333333333	1	-30	-8	1	0.689453125
441.669921875	0.00833333333333333	1	-30	3	2	0.4892578125
444.6630859375	0.00833333333333333	1	30	1	1	0.45703125
447.1796875	0.00833333333333333	1	-30	2	2	0.4443359375
449.904296875	0.00833333333333333	1	30	2	2	0.943359375
453.3212890625	0.00833333333333333	1	30	1	2	1.455078125
457.2705078125	0.00833333333333333	1	NaN	-3	1	0.7294921875
460.37890625	0.00833333333333333	1	NaN	-2	1	0.7255859375
463.3779296875	0.00833333333333333	1	30	0	1	0.56640625
466.2705078125	0.00833333333333333	1	30	1	2	0.76171875
469.0615234375	0.00833333333333333	1	-30	-7	1	0.71484375
471.9541015625	0.00833333333333333	1	30	2	2	0.5185546875
474.654296875	0.00833333333333333	1	-30	-6	2	0.6181640625
477.5791015625	0.00833333333333333	1	-30	1	2	0.517578125
480.0869140625	0.00833333333333333	1	-30	-7	2	0.76171875
482.970703125	0.00833333333333333	1	-30	0	2	0.5341796875
485.6787109375	0.00833333333333333	1	30	0	2	0.666015625
488.662109375	0.00833333333333333	1	NaN	-1	2	0.451171875
491.5615234375	0.00833333333333333	1	-30	-1	2	0.49609375
494.4453125	0.00833333333333333	1	-30	-2	2	0.5078125
497.220703125	0.00833333333333333	1	NaN	-3	2	0.5166015625
499.927734375	0.00833333333333333	1	-30	-3	2	0.490234375
502.6943359375	0.00833333333333333	1	30	-1	1	0.603515625
505.4951171875	0.00833333333333333	1	NaN	-2	2	0.451171875
508.203125	0.00833333333333333	1	-30	-4	2	0.4228515625
510.7783203125	0.00833333333333333	1	30	0	1	0.6318359375
513.4619140625	0.00833333333333333	1	NaN	-3	2	0.515625
516.3369140625	0.00833333333333333	1	-30	-8	1	0.45703125
518.9453125	0.00833333333333333	1	-30	-5	2	0.4892578125
521.611328125	0.00833333333333333	1	-30	-7	2	0.5751953125
524.4365234375	0.00833333333333333	1	30	1	2	0.7822265625
527.2939453125	0.00833333333333333	1	-30	-8	2	0.62890625
530.427734375	0.00833333333333333	1	NaN	-4	1	0.5029296875
533.14453125	0.00833333333333333	1	30	1	2	0.7216796875
536.1953125	0.00833333333333333	1	NaN	-4	2	0.775390625
539.2861328125	0.00833333333333333	1	30	0	2	0.541015625
541.869140625	0.00833333333333333	1	NaN	-5	1	0.60546875
544.51953125	0.00833333333333333	1	-30	-9	2	0.515625
547.1865234375	0.00833333333333333	1	-30	-10	1	0.6484375
550.15234375	0.00833333333333333	1	NaN	-4	2	0.482421875
552.744140625	0.00833333333333333	1	NaN	-3	1	0.6513671875
555.66015625	0.00833333333333333	1	30	-1	2	0.798828125
558.7939453125	0.00833333333333333	1	NaN	-5	1	0.529296875
561.6279296875	0.00833333333333333	1	30	-2	1	0.5751953125
564.21875	0.00833333333333333	1	30	-1	1	0.537109375
567.0859375	0.00833333333333333	1	30	0	2	0.5498046875
569.9443359375	0.00833333333333333	1	30	-1	1	0.515625
572.8271484375	0.00833333333333333	1	NaN	-4	1	0.896484375
575.8525390625	0.00833333333333333	1	NaN	-2	2	0.439453125
578.4521484375	0.00833333333333333	1	NaN	-3	1	0.912109375
581.8193359375	0.00833333333333333	1	-30	-6	2	0.705078125
584.677734375	0.00833333333333333	1	-30	-7	2	0.87890625
587.78515625	0.00833333333333333	1	-30	-8	2	1.0595703125
590.9443359375	0.00833333333333333	1	NaN	-2	2	0.6767578125
593.8193359375	0.00833333333333333	1	30	0	2	0.6171875
596.78515625	0.00833333333333333	1	30	-1	2	0.6357421875
599.8857421875	0.00833333333333333	1	-30	-9	2	0.5908203125
602.90234375	0.00833333333333333	1	30	0	1	0.654296875
605.6181640625	0.00833333333333333	1	30	1	2	0.5791015625
608.259765625	0.00833333333333333	1	30	0	1	1.2255859375
611.7353515625	0.00833333333333333	1	-30	-10	2	0.5341796875
614.435546875	0.00833333333333333	1	30	1	2	0.681640625
617.2353515625	0.00833333333333333	1	NaN	-3	1	0.521484375
620.0185546875	0.00833333333333333	1	NaN	-2	2	0.642578125
622.693359375	0.00833333333333333	1	30	0	2	0.6240234375
625.4765625	0.00833333333333333	1	30	-2	2	0.7607421875
628.28515625	0.00833333333333333	1	-30	-11	1	0.6240234375
631.1181640625	0.00833333333333333	1	30	-3	1	0.6552734375
634.0927734375	0.00833333333333333	1	30	-1	2	0.8173828125
637.3095703125	0.00833333333333333	1	30	-2	1	0.48046875
639.91015625	0.00833333333333333	1	30	-1	1	0.65625
642.7265625	0.00833333333333333	1	30	0	2	0.935546875
646.0927734375	0.00833333333333333	1	NaN	-3	1	0.4892578125
648.841796875	0.00833333333333333	1	-30	-10	2	0.580078125
651.8095703125	0.00833333333333333	1	30	-2	1	0.9326171875
654.9931640625	0.00833333333333333	1	30	-1	2	0.59765625
657.91796875	0.00833333333333333	1	30	-2	1	0.7841796875
661.017578125	0.00833333333333333	1	-30	-11	2	0.62890625
664	0.00833333333333333	1	30	-1	2	0.615234375
666.9345703125	0.00833333333333333	1	30	-1	2	0.904296875
670.283203125	0.00833333333333333	1	NaN	-2	2	0.732421875
673.458984375	0.00833333333333333	1	NaN	-3	2	0.484375
676.2509765625	0.00833333333333333	1	-30	-12	1	0.6923828125
679.1005859375	0.00833333333333333	1	-30	-11	1	0.70703125
681.92578125	0.00833333333333333	1	-30	-10	1	0.689453125
685.0087890625	0.00833333333333333	1	-30	-9	1	0.6142578125
687.7841796875	0.00833333333333333	1	NaN	-4	2	1.095703125
691.30859375	0.00833333333333333	1	NaN	-5	1	0.5791015625
694.2919921875	0.00833333333333333	1	-30	-8	2	0.5078125
697.109375	0.00833333333333333	1	-30	-9	1	0.71484375
700.025390625	0.00833333333333333	1	-30	-8	2	0.6064453125
702.642578125	0.00833333333333333	1	-30	-9	1	0.56640625
705.4169921875	0.00833333333333333	1	-30	-8	2	0.5439453125
708.25	0.00833333333333333	1	-30	-9	1	0.6220703125
711.0673828125	0.00833333333333333	1	-30	-8.58333333333333	2	0.6689453125
714.05078125	0.00833333333333333	1	NaN	-2.5	2	0.5419921875
716.625	0.00833333333333333	1	-30	-7.58333333333333	1	1.0234375
719.875	0.00833333333333333	1	NaN	-3.5	2	1.0380859375
723.2998046875	0.00833333333333333	1	30	-1.25	1	0.64453125
726.1337890625	0.00833333333333333	1	NaN	-3.625	1	0.634765625
757.841796875	0.00833333333333333	1	-30	-8.70833333333333	2	0.904296875
761.0830078125	0.00833333333333333	1	-30	-8.83333333333333	2	0.7744140625
764.041015625	0.00833333333333333	1	30	-1.125	1	0.5048828125
766.7412109375	0.00833333333333333	1	NaN	-2.625	2	0.5166015625
769.375	0.00833333333333333	1	30	-1	1	0.5712890625
772.291015625	0.00833333333333333	1	-30	-8.95833333333333	1	0.7109375
775.3916015625	0.00833333333333333	1	NaN	-2.75	1	0.5869140625
778.19140625	0.00833333333333333	1	NaN	-2.625	2	0.6904296875
781.2490234375	0.00833333333333333	1	NaN	-3.5	1	0.5458984375
784.099609375	0.00833333333333333	1	30	-0.25	1	0.607421875
787.1162109375	0.00833333333333333	1	NaN	-3.375	2	0.615234375
789.8408203125	0.00833333333333333	1	30	-0.125	1	0.5380859375
792.7568359375	0.00833333333333333	1	NaN	-2.75	1	0.5263671875
795.357421875	0.00833333333333333	1	-30	-8.83333333333333	1	0.6689453125
798.1494140625	0.00833333333333333	1	30	-0.875	1	0.525390625
801.0078125	0.00833333333333333	1	NaN	-2.625	2	0.5390625
803.83203125	0.00833333333333333	1	NaN	-2.75	2	0.5869140625
806.607421875	0.00833333333333333	1	-30	-7.45833333333333	2	0.4755859375
809.1826171875	0.00833333333333333	1	-30	-7.58333333333333	1	0.5810546875
811.9072265625	0.00833333333333333	1	-30	-8.70833333333333	1	0.6083984375
814.96484375	0.00833333333333333	1	30	0	1	0.5107421875
817.7734375	0.00833333333333333	1	NaN	-3.5	2	0.5263671875
820.5654296875	0.00833333333333333	1	-30	-8.58333333333333	1	0.646484375
823.6904296875	0.00833333333333333	1	30	-0.75	1	0.59375
826.6240234375	0.00833333333333333	1	-30	-7.45833333333333	1	1.1396484375
830.21484375	0.00833333333333333	1	-30	-8.45833333333333	1	1.0615234375
833.3154296875	0.00833333333333333	1	NaN	-2.875	1	0.640625
836.123046875	0.00833333333333333	1	NaN	-3.625	1	0.5771484375
838.806640625	0.00833333333333333	1	-30	-7.33333333333333	1	0.6298828125
841.78125	0.00833333333333333	1	-30	-7.20833333333333	1	0.54296875
844.5234375	0.00833333333333333	1	NaN	-2.75	1	0.76953125
847.71484375	0.00833333333333333	1	30	-0.625	1	0.59375
850.498046875	0.00833333333333333	1	NaN	-2.625	2	0.6025390625
853.5234375	0.00833333333333333	1	-30	-7.08333333333333	1	0.6572265625
856.3984375	0.00833333333333333	1	30	-0.5	1	0.478515625
859.189453125	0.00833333333333333	1	NaN	-3.5	2	1.0556640625
862.556640625	0.00833333333333333	1	NaN	-2.75	2	0.625
865.3564453125	0.00833333333333333	1	30	-0.375	1	0.6728515625
868.1982421875	0.00833333333333333	1	30	0.125	1	0.615234375
871.1728515625	0.00833333333333333	1	NaN	-3.625	1	0.6005859375
873.8896484375	0.00833333333333333	1	NaN	-3.5	1	0.4921875
876.47265625	0.00833333333333333	1	-30	-8.33333333333333	1	0.7490234375
879.681640625	0.00833333333333333	1	-30	-8.20833333333333	2	0.6435546875
882.53125	0.00833333333333333	1	30	0.25	1	1.5546875
886.40625	0.00833333333333333	1	30	-0.25	2	1.3359375
889.9560546875	0.00833333333333333	1	30	0.375	2	0.666015625
892.7724609375	0.00833333333333333	1	-30	-6.95833333333333	2	0.5859375
895.35546875	0.00833333333333333	1	30	-0.375	1	0.7470703125
898.4560546875	0.00833333333333333	1	NaN	-3.375	2	0.9580078125
901.65625	0.00833333333333333	1	NaN	-2.875	2	0.5263671875
904.3310546875	0.00833333333333333	1	-30	-8.33333333333333	2	0.7158203125
907.3056640625	0.00833333333333333	1	NaN	-3	1	0.564453125
910.255859375	0.00833333333333333	1	-30	-8.45833333333333	1	0.8466796875
913.2978515625	0.00833333333333333	1	NaN	-3.5	2	1.125
916.8134765625	0.00833333333333333	1	30	0.25	2	0.8974609375
919.689453125	0.00833333333333333	1	30	0.125	1	0.6533203125
922.61328125	0.00833333333333333	1	30	0.25	2	0.7060546875
925.8056640625	0.00833333333333333	1	-30	-8.33333333333333	2	0.7294921875
928.85546875	0.00833333333333333	1	30	-0.25	1	0.583984375
931.49609375	0.00833333333333333	1	NaN	-3.625	2	1.046875
934.7626953125	0.00833333333333333	1	-30	-8.45833333333333	2	0.8125
937.7724609375	0.00833333333333333	1	NaN	-3.75	1	0.5791015625
940.60546875	0.00833333333333333	1	30	0.125	1	0.642578125
943.4638671875	0.00833333333333333	1	-30	-7.08333333333333	2	0.6162109375
946.1884765625	0.00833333333333333	1	30	-0.125	1	0.53125
949.1552734375	0.00833333333333333	1	NaN	-3.625	2	0.6923828125
951.822265625	0.00833333333333333	1	NaN	-2.875	1	1.529296875
955.62109375	0.00833333333333333	1	NaN	-2.75	2	0.8271484375
958.6806640625	0.00833333333333333	1	30	0	1	0.6474609375
961.48046875	0.00833333333333333	1	NaN	-3.75	2	0.50390625
964.4794921875	0.00833333333333333	1	NaN	-2.875	1	0.9208984375
967.48046875	0.00833333333333333	1	30	0.25	1	0.6796875
970.6298828125	0.00833333333333333	1	30	0.125	2	0.9228515625
973.8037109375	0.00833333333333333	1	30	0	1	0.5732421875
976.8212890625	0.00833333333333333	1	30	0.125	2	0.68359375
979.705078125	0.00833333333333333	1	-30	-7.20833333333333	2	0.583984375
982.5048828125	0.00833333333333333	1	-30	-7.33333333333333	2	0.51171875
985.4462890625	0.00833333333333333	1	-30	-7.45833333333333	2	0.5791015625
988.0458984375	0.00833333333333333	1	-30	-8.58333333333333	2	0.603515625
990.904296875	0.00833333333333333	1	30	0.375	1	0.6005859375
993.6962890625	0.00833333333333333	1	NaN	-2.75	2	0.4970703125
996.4296875	0.00833333333333333	1	30	0.5	2	0.68359375
999.337890625	0.00833333333333333	1	-30	-8.70833333333333	2	0.5439453125
1001.896484375	0.00833333333333333	1	NaN	-2.875	2	0.4814453125
1004.462890625	0.00833333333333333	1	-30	-7.58333333333333	1	0.763671875
1007.396484375	0.00833333333333333	1	-30	-8.83333333333333	2	1.013671875
1010.7705078125	0.00833333333333333	1	-30	-8.95833333333333	2	0.8720703125
1013.8876953125	0.00833333333333333	1	NaN	-3	2	0.5703125
1016.7626953125	0.00833333333333333	1	-30	-9.08333333333333	1	0.767578125
1019.7041015625	0.00833333333333333	1	-30	-8.95833333333333	2	0.658203125
1022.337890625	0.00833333333333333	1	30	0	1	0.6884765625
1025.103515625	0.00833333333333333	1	NaN	-3.875	2	0.5390625
1028.12890625	0.00833333333333333	1	NaN	-4	1	0.59375
1030.8291015625	0.00833333333333333	1	30	0.125	1	0.59765625
1033.4541015625	0.00833333333333333	1	-30	-9.08333333333333	1	0.716796875
1036.50390625	0.00833333333333333	1	30	0.25	2	0.626953125
1039.412109375	0.00833333333333333	1	NaN	-3.875	2	0.7421875
1042.2119140625	0.00833333333333333	1	NaN	-3.125	2	0.52734375
1044.9541015625	0.00833333333333333	1	NaN	-4	1	0.736328125
1048.00390625	0.00833333333333333	1	NaN	-3.875	2	0.5107421875
1050.9033203125	0.00833333333333333	1	NaN	-4	1	1.2919921875
1054.4541015625	0.00833333333333333	1	30	0.375	1	0.892578125
1057.37890625	0.00833333333333333	1	-30	-7.45833333333333	2	1.16796875
1075.0029296875	0.00833333333333333	1	-30	-8.95833333333333	2	0.9287109375
1078.2451171875	0.00833333333333333	1	-30	-7.58333333333333	2	0.703125
1081.1611328125	0.00833333333333333	1	NaN	-3.25	1	0.4990234375
1083.8037109375	0.00833333333333333	1	NaN	-3.875	1	1.16015625
1087.078125	0.00833333333333333	1	-30	-9.08333333333333	1	0.6943359375
1090.001953125	0.00833333333333333	1	NaN	-3.75	1	0.634765625
1093.078125	0.00833333333333333	1	-30	-8.95833333333333	1	0.830078125
1096.13671875	0.00833333333333333	1	30	0.125	1	0.5478515625
1098.9853515625	0.00833333333333333	1	30	0.5	1	0.5712890625
1101.919921875	0.00833333333333333	1	30	0.25	1	0.556640625
1104.9111328125	0.00833333333333333	1	-30	-8.83333333333333	1	0.5810546875
1107.89453125	0.00833333333333333	1	-30	-7.70833333333333	2	0.8779296875
1110.927734375	0.00833333333333333	1	-30	-7.83333333333333	1	0.701171875
1113.6611328125	0.00833333333333333	1	NaN	-3.125	1	0.50390625
1116.494140625	0.00833333333333333	1	30	0.375	2	0.6630859375
1119.2197265625	0.00833333333333333	1	NaN	-3.625	1	0.5693359375
1122.1357421875	0.00833333333333333	1	30	0.25	1	0.59765625
1125.134765625	0.00833333333333333	1	-30	-7.70833333333333	2	0.56640625
1127.90234375	0.00833333333333333	1	30	0.625	1	0.638671875
1130.677734375	0.00833333333333333	1	30	0.375	1	0.5361328125
1133.4443359375	0.00833333333333333	1	-30	-8.70833333333333	1	0.705078125
1136.6611328125	0.00833333333333333	1	NaN	-3	2	0.46484375
1139.552734375	0.00833333333333333	1	-30	-7.83333333333333	2	1.3330078125
1143.1025390625	0.00833333333333333	1	NaN	-3.5	1	0.53515625
1146.15234375	0.00833333333333333	1	-30	-8.58333333333333	2	1.3974609375
1149.71875	0.00833333333333333	1	30	0.75	2	1.119140625
1153.1689453125	0.00833333333333333	1	-30	-7.95833333333333	1	0.869140625
1156.4189453125	0.00833333333333333	1	30	0.5	2	0.7548828125
1159.27734375	0.00833333333333333	1	30	0.375	1	0.529296875
1161.9853515625	0.00833333333333333	1	30	0.625	1	0.5810546875
1164.6435546875	0.00833333333333333	1	-30	-7.83333333333333	1	1.435546875
1168.4345703125	0.00833333333333333	1	30	0.75	2	0.7001953125
1171.1767578125	0.00833333333333333	1	NaN	-3.375	1	0.6220703125
1174.2431640625	0.00833333333333333	1	NaN	-3.25	1	0.572265625
1176.8515625	0.00833333333333333	1	-30	-8.70833333333333	2	0.9951171875
1180.29296875	0.00833333333333333	1	-30	-8.83333333333333	2	0.626953125
1183.09375	0.00833333333333333	1	30	0.5	1	0.5771484375
1186.0185546875	0.00833333333333333	1	-30	-8.95833333333333	2	0.95703125
1189.16015625	0.00833333333333333	1	-30	-7.70833333333333	2	0.591796875
1191.751953125	0.00833333333333333	1	-30	-7.83333333333333	2	0.671875
1194.6591796875	0.00833333333333333	1	30	0.625	1	0.548828125
1197.5849609375	0.00833333333333333	1	-30	-7.95833333333333	2	0.5029296875
1200.5517578125	0.00833333333333333	1	NaN	-3.125	1	0.4560546875
1203.3603515625	0.00833333333333333	1	-30	-9.08333333333333	2	0.5517578125
1205.9345703125	0.00833333333333333	1	NaN	-3.125	2	0.609375
1208.6015625	0.00833333333333333	1	NaN	-3.25	2	0.470703125
1211.4599609375	0.00833333333333333	1	NaN	-3	2	0.556640625
1214.0419921875	0.00833333333333333	1	30	0.75	1	0.58203125
1216.6591796875	0.00833333333333333	1	NaN	-3.125	2	0.4775390625
1219.16796875	0.00833333333333333	1	NaN	-3.25	2	0.48828125
1221.958984375	0.00833333333333333	1	-30	-8.08333333333333	2	0.6572265625
1224.9013671875	0.00833333333333333	1	NaN	-3.375	2	0.451171875
1227.54296875	0.00833333333333333	1	-30	-9.20833333333333	2	0.490234375
1230.2841796875	0.00833333333333333	1	-30	-9.33333333333333	2	0.5322265625
1232.8681640625	0.00833333333333333	1	NaN	-3.5	2	0.5244140625
1235.484375	0.00833333333333333	1	-30	-9.45833333333333	1	0.6767578125
1238.583984375	0.00833333333333333	1	NaN	-3.625	2	0.529296875
1241.1337890625	0.00833333333333333	1	-30	-9.33333333333333	2	0.611328125
1243.8916015625	0.00833333333333333	1	-30	-9.45833333333333	2	0.7578125
1246.701171875	0.00833333333333333	1	NaN	-3.375	1	0.724609375
1249.80078125	0.00833333333333333	1	30	0.875	2	0.6806640625
1252.6005859375	0.00833333333333333	1	-30	-9.58333333333333	1	0.7373046875
1255.80078125	0.00833333333333333	1	-30	-8.20833333333333	2	0.568359375
1258.6669921875	0.00833333333333333	1	-30	-9.45833333333333	1	0.6865234375
1261.7841796875	0.00833333333333333	1	NaN	-3.75	2	0.4970703125
1264.3076171875	0.00833333333333333	1	-30	-8.33333333333333	2	0.58203125
1267.3427734375	0.00833333333333333	1	-30	-8.45833333333333	2	0.6591796875
1270.3837890625	0.00833333333333333	1	30	0.75	2	0.75390625
1273.591796875	0.00833333333333333	1	30	0.625	2	0.7626953125
1276.4921875	0.00833333333333333	1	30	0.5	1	0.646484375
1279.275390625	0.00833333333333333	1	-30	-9.33333333333333	1	0.6064453125
1281.9833984375	0.00833333333333333	1	NaN	-3.875	1	0.634765625
1284.6171875	0.00833333333333333	1	-30	-9.20833333333333	1	1.1455078125
1287.7919921875	0.00833333333333333	1	-30	-8.58333333333333	1	0.6826171875
1290.56640625	0.00833333333333333	1	30	0.625	1	0.732421875
1293.5498046875	0.00833333333333333	1	-30	-8.45833333333333	1	0.7412109375
1296.6005859375	0.00833333333333333	1	30	0.625	1	0.5458984375
1299.19140625	0.00833333333333333	1	30	0.75	1	0.515625
1302.150390625	0.00833333333333333	1	30	0.875	1	0.5400390625
1305.19140625	0.00833333333333333	1	30	0.75	1	0.6201171875
1308.091796875	0.00833333333333333	1	-30	-9.08333333333333	1	0.623046875
1310.8837890625	0.00833333333333333	1	30	0.875	1	0.5595703125
1313.5498046875	0.00833333333333333	1	-30	-8.33333333333333	2	0.9013671875
1316.916015625	0.00833333333333333	1	30	1	1	0.5517578125
1319.5078125	0.00833333333333333	1	-30	-8.45833333333333	2	0.9677734375
1322.5068359375	0.00833333333333333	1	-30	-8.95833333333333	2	0.552734375
1325.2744140625	0.00833333333333333	1	30	1	1	0.6494140625
1328.2333984375	0.00833333333333333	1	30	1.125	2	0.794921875
1331.19140625	0.00833333333333333	1	30	1.125	2	0.7890625
1334.32421875	0.00833333333333333	1	-30	-8.58333333333333	2	0.671875
1337.44921875	0.00833333333333333	1	-30	-8.70833333333333	2	0.8349609375
1340.349609375	0.00833333333333333	1	-30	-9.08333333333333	2	1.55859375
1343.9150390625	0.00833333333333333	1	-30	-9.20833333333333	1	1.12890625
1347.4072265625	0.00833333333333333	1	30	1	2	1.212890625
1351.0078125	0.00833333333333333	1	-30	-8.83333333333333	1	1.037109375
1354.1494140625	0.00833333333333333	1	30	0.875	2	0.703125
1357.1904296875	0.00833333333333333	1	-30	-8.70833333333333	1	1.142578125
1360.7578125	0.00833333333333333	1	30	0.75	1	0.806640625
1363.9072265625	0.00833333333333333	1	30	0.875	1	0.578125
1366.873046875	0.00833333333333333	1	30	1	1	0.65234375
1369.69921875	0.00833333333333333	1	-30	-8.58333333333333	2	0.7216796875
1372.70703125	0.00833333333333333	1	30	1.125	2	0.73828125
1395.8486328125	0.00833333333333333	1	30	1	1	0.9091796875
1398.7734375	0.00833333333333333	1	-30	-8.70833333333333	1	0.6083984375
1401.6318359375	0.00833333333333333	1	-30	-8.58333333333333	1	0.654296875
1404.58203125	0.00833333333333333	1	-30	-8.45833333333333	1	0.576171875
1407.6572265625	0.00833333333333333	1	-30	-8.33333333333333	1	0.533203125
1410.4814453125	0.00833333333333333	1	30	1.125	1	0.59765625
1413.1484375	0.00833333333333333	1	30	1.25	1	0.642578125
1415.8310546875	0.00833333333333333	1	30	1.375	1	0.615234375
1418.58203125	0.00833333333333333	1	-30	-8.20833333333333	1	0.5048828125
1421.1396484375	0.00833333333333333	1	30	1.5	1	0.5712890625
1423.939453125	0.00833333333333333	1	-30	-8.08333333333333	1	0.595703125
1426.6982421875	0.00833333333333333	1	30	1.625	2	1.037109375
1429.806640625	0.00833333333333333	1	-30	-7.95833333333333	1	0.6171875
1432.873046875	0.00833333333333333	1	-30	-7.83333333333333	1	0.5419921875
1435.5068359375	0.00833333333333333	1	-30	-7.70833333333333	1	0.64453125
1438.314453125	0.00833333333333333	1	-30	-7.58333333333333	1	0.64453125
1441.064453125	0.00833333333333333	1	-30	-7.45833333333333	2	0.791015625
1444.240234375	0.00833333333333333	0	-30	-8.64583333333333	1	0.50390625
1446.9140625	0.00833333333333333	0	-30	-8.64583333333333	1	0.6298828125
1449.939453125	0.00833333333333333	0	-30	-8.64583333333333	1	0.5322265625
1452.6298828125	0.00833333333333333	0	-30	-8.64583333333333	2	0.6103515625
1455.6640625	0.00833333333333333	0	-30	-8.64583333333333	1	0.65625
1458.35546875	0.00833333333333333	0	30	0.65625	1	0.5732421875
1461.255859375	0.00833333333333333	0	30	0.65625	2	0.7607421875
1464.330078125	0.00833333333333333	0	-30	-8.64583333333333	1	0.5498046875
1466.9140625	0.00833333333333333	0	30	0.65625	2	0.75
1470.021484375	0.00833333333333333	0	-30	-8.64583333333333	1	0.458984375
1472.98046875	0.00833333333333333	0	-30	-8.64583333333333	1	0.5
1475.6884765625	0.00833333333333333	0	-30	-8.64583333333333	2	0.9208984375
1478.65625	0.00833333333333333	0	30	0.65625	1	0.46484375
1481.3134765625	0.00833333333333333	0	30	0.65625	2	0.798828125
1484.35546875	0.00833333333333333	0	-30	-8.64583333333333	1	0.5009765625
1487.1298828125	0.00833333333333333	0	-30	-8.64583333333333	1	0.462890625
1489.6552734375	0.00833333333333333	0	-30	-8.64583333333333	1	0.5537109375
1492.3642578125	0.00833333333333333	0	30	0.65625	1	0.4453125
1494.9638671875	0.00833333333333333	0	30	0.65625	1	0.685546875
1497.9140625	0.00833333333333333	0	30	0.65625	1	0.4951171875
1500.904296875	0.00833333333333333	0	30	0.65625	2	0.7373046875
1503.830078125	0.00833333333333333	0	-30	-8.64583333333333	1	0.66796875
1506.8056640625	0.00833333333333333	0	-30	-8.64583333333333	1	0.6357421875
1509.6640625	0.00833333333333333	0	30	0.65625	1	0.5380859375
1512.37109375	0.00833333333333333	0	-30	-8.52083333333333	1	0.6787109375
1515.3720703125	0.00833333333333333	0	30	0.65625	1	0.669921875
1518.1884765625	0.00833333333333333	0	30	0.65625	1	0.4775390625
1520.9970703125	0.00833333333333333	0	30	0.65625	1	0.5166015625
1523.75390625	0.00833333333333333	0	-30	-8.52083333333333	2	0.6640625
1526.5380859375	0.00833333333333333	0	30	0.65625	1	0.51953125
1529.205078125	0.00833333333333333	0	30	0.78125	2	0.5576171875
1532.2294921875	0.00833333333333333	0	30	0.78125	2	0.7490234375
1535.162109375	0.00833333333333333	0	-30	-8.52083333333333	2	0.736328125
1538.3125	0.00833333333333333	0	-30	-8.52083333333333	1	0.6103515625
1541.087890625	0.00833333333333333	0	-30	-8.52083333333333	1	0.7783203125
1543.8798828125	0.00833333333333333	0	-30	-8.52083333333333	2	0.5712890625
1546.9130859375	0.00833333333333333	0	30	0.78125	1	0.490234375
1549.5634765625	0.00833333333333333	0	-30	-8.52083333333333	1	0.5673828125
1552.1708984375	0.00833333333333333	0	-30	-8.52083333333333	2	0.9765625
1555.37109375	0.00833333333333333	0	30	0.78125	1	0.5439453125
1558.330078125	0.00833333333333333	0	-30	-8.52083333333333	2	0.689453125
1561.1298828125	0.00833333333333333	0	-30	-8.52083333333333	1	0.7373046875
1564.12109375	0.00833333333333333	0	-30	-8.52083333333333	2	0.5546875
1566.6962890625	0.00833333333333333	0	30	0.78125	1	0.474609375
1569.4208984375	0.00833333333333333	0	-30	-8.52083333333333	2	0.51953125
1571.99609375	0.00833333333333333	0	-30	-8.52083333333333	1	0.6318359375
1575.1376953125	0.00833333333333333	0	-30	-8.52083333333333	1	0.5302734375
1577.8125	0.00833333333333333	0	30	0.78125	1	0.5908203125
1580.5458984375	0.00833333333333333	0	30	0.78125	1	0.74609375
1583.345703125	0.00833333333333333	0	30	0.90625	2	0.6982421875
1586.38671875	0.00833333333333333	0	30	0.90625	1	0.59375
1589.3876953125	0.00833333333333333	0	30	0.90625	1	0.6650390625
1592.5458984375	0.00833333333333333	0	-30	-8.52083333333333	2	0.5625
1595.3125	0.00833333333333333	0	30	0.90625	1	0.5634765625
1598.220703125	0.00833333333333333	0	-30	-8.52083333333333	2	1.16015625
1601.603515625	0.00833333333333333	0	-30	-8.52083333333333	1	0.689453125
1604.3291015625	0.00833333333333333	0	30	0.90625	1	0.580078125
1607.3779296875	0.00833333333333333	0	-30	-8.52083333333333	2	0.5546875
1610.01171875	0.00833333333333333	0	-30	-8.52083333333333	2	0.865234375
1612.9287109375	0.00833333333333333	0	30	0.90625	1	0.572265625
1615.6533203125	0.00833333333333333	0	-30	-8.52083333333333	2	0.759765625
1618.5869140625	0.00833333333333333	0	-30	-8.52083333333333	2	0.75390625
1621.37890625	0.00833333333333333	0	30	1.03125	1	0.5390625
1624.1953125	0.00833333333333333	0	-30	-8.52083333333333	2	0.6015625
1627.0205078125	0.00833333333333333	0	30	1.03125	1	0.5048828125
1629.5869140625	0.00833333333333333	0	-30	-8.64583333333333	2	0.5146484375
1632.51171875	0.00833333333333333	0	-30	-8.64583333333333	2	1.0380859375
1635.9111328125	0.00833333333333333	0	30	1.03125	2	0.6220703125
1638.919921875	0.00833333333333333	0	-30	-8.64583333333333	2	0.7421875
1641.9111328125	0.00833333333333333	0	30	1.03125	2	0.6552734375
1645.02734375	0.00833333333333333	0	30	1.03125	1	0.6025390625
1648.0947265625	0.00833333333333333	0	-30	-8.64583333333333	2	0.7998046875
1651.0029296875	0.00833333333333333	0	30	1.03125	1	0.5546875
1653.853515625	0.00833333333333333	0	-30	-8.64583333333333	2	0.640625
1656.927734375	0.00833333333333333	0	30	1.03125	2	0.734375
1659.8017578125	0.00833333333333333	0	30	1.03125	2	0.96484375
1663.052734375	0.00833333333333333	0	-30	-8.77083333333333	2	0.7138671875
1665.8447265625	0.00833333333333333	0	-30	-8.77083333333333	2	1.3857421875
1669.51953125	0.00833333333333333	0	-30	-8.77083333333333	1	0.55078125
1672.14453125	0.00833333333333333	0	30	1.03125	1	0.8544921875
1704.935546875	0.00833333333333333	0	-30	-8.77083333333333	1	1.2080078125
1708.302734375	0.00833333333333333	0	30	1.03125	1	0.625
1711.1025390625	0.00833333333333333	0	30	1.03125	1	0.6171875
1713.994140625	0.00833333333333333	0	-30	-8.77083333333333	1	0.6376953125
1716.9521484375	0.00833333333333333	0	-30	-8.77083333333333	1	0.50390625
1719.5185546875	0.00833333333333333	0	30	1.03125	1	0.849609375
1722.46875	0.00833333333333333	0	-30	-8.77083333333333	1	0.515625
1725.4677734375	0.00833333333333333	0	30	1.03125	1	0.5654296875
1728.4267578125	0.00833333333333333	0	30	1.15625	1	0.5576171875
1731.1845703125	0.00833333333333333	0	30	1.15625	1	0.583984375
1733.943359375	0.00833333333333333	0	30	1.15625	2	0.689453125
1736.935546875	0.00833333333333333	0	30	1.15625	1	0.6328125
1739.59375	0.00833333333333333	0	30	1.15625	1	0.630859375
1742.318359375	0.00833333333333333	0	30	1.15625	1	0.4423828125
1745.1435546875	0.00833333333333333	0	-30	-8.64583333333333	1	1.08984375
1748.4755859375	0.00833333333333333	0	30	1.15625	1	0.5576171875
1751.2021484375	0.00833333333333333	0	-30	-8.64583333333333	1	0.51953125
1754.1845703125	0.00833333333333333	0	-30	-8.64583333333333	1	0.5693359375
1756.91796875	0.00833333333333333	0	-30	-8.64583333333333	1	0.6513671875
1760.04296875	0.00833333333333333	0	-30	-8.64583333333333	1	0.6552734375
1762.9677734375	0.00833333333333333	0	30	1.15625	2	0.634765625
1765.8095703125	0.00833333333333333	0	30	1.15625	1	0.6240234375
1768.5341796875	0.00833333333333333	0	-30	-8.52083333333333	2	0.66015625
1771.484375	0.00833333333333333	0	-30	-8.52083333333333	2	0.5576171875
1774.193359375	0.00833333333333333	0	-30	-8.52083333333333	1	0.728515625
1777.2919921875	0.00833333333333333	0	-30	-8.52083333333333	2	0.494140625
1780.142578125	0.00833333333333333	0	30	1.15625	1	0.587890625
1783.17578125	0.00833333333333333	0	-30	-8.52083333333333	2	0.634765625
1786.1513671875	0.00833333333333333	0	-30	-8.52083333333333	1	0.482421875
1788.759765625	0.00833333333333333	0	30	1.15625	1	0.4990234375
1791.484375	0.00833333333333333	0	-30	-8.52083333333333	2	0.486328125
1794.05078125	0.00833333333333333	0	30	1.15625	1	0.591796875
1796.6923828125	0.00833333333333333	0	30	1.15625	1	0.623046875
1799.3427734375	0.00833333333333333	0	-30	-8.52083333333333	1	0.5244140625
1802.1591796875	0.00833333333333333	0	-30	-8.52083333333333	2	0.580078125
1804.892578125	0.00833333333333333	0	-30	-8.52083333333333	2	0.6142578125
1807.6845703125	0.00833333333333333	0	30	1.28125	1	0.55078125
1810.54296875	0.00833333333333333	0	30	1.28125	2	0.587890625
1813.3095703125	0.00833333333333333	0	30	1.28125	1	0.5263671875
1815.93359375	0.00833333333333333	0	-30	-8.52083333333333	2	0.5263671875
1818.9755859375	0.00833333333333333	0	-30	-8.52083333333333	2	1.1162109375
1822.234375	0.00833333333333333	0	-30	-8.52083333333333	2	0.697265625
1825.0751953125	0.00833333333333333	0	-30	-8.64583333333333	2	0.552734375
1827.68359375	0.00833333333333333	0	-30	-8.64583333333333	1	0.7919921875
1830.6328125	0.00833333333333333	0	30	1.28125	1	0.634765625
1833.75	0.00833333333333333	0	30	1.28125	1	0.5576171875
1836.3330078125	0.00833333333333333	0	-30	-8.64583333333333	1	0.623046875
1839.05078125	0.00833333333333333	0	30	1.28125	2	0.666015625
1841.8505859375	0.00833333333333333	0	-30	-8.64583333333333	1	0.9375
1845.25	0.00833333333333333	0	30	1.28125	1	0.73046875
1848.083984375	0.00833333333333333	0	30	1.28125	1	0.6005859375
1851.125	0.00833333333333333	0	30	1.28125	2	0.6552734375
1854.06640625	0.00833333333333333	0	-30	-8.64583333333333	1	1.06640625
1857.4169921875	0.00833333333333333	0	-30	-8.64583333333333	1	0.763671875
1860.2587890625	0.00833333333333333	0	-30	-8.52083333333333	1	0.5615234375
1862.81640625	0.00833333333333333	0	-30	-8.52083333333333	1	0.916015625
1866.2080078125	0.00833333333333333	0	-30	-8.52083333333333	1	0.5732421875
1868.9501953125	0.00833333333333333	0	30	1.28125	1	0.703125
1871.890625	0.00833333333333333	0	30	1.28125	1	0.8671875
1875.0166015625	0.00833333333333333	0	-30	-8.52083333333333	1	0.732421875
1877.7919921875	0.00833333333333333	0	-30	-8.52083333333333	1	0.517578125
1880.4501953125	0.00833333333333333	0	30	1.28125	1	0.5400390625
1883.1416015625	0.00833333333333333	0	30	1.28125	2	0.7197265625
1886.08203125	0.00833333333333333	0	30	1.28125	1	0.5400390625
1888.7080078125	0.00833333333333333	0	-30	-8.39583333333333	2	0.689453125
1891.81640625	0.00833333333333333	0	-30	-8.39583333333333	1	0.5654296875
1894.57421875	0.00833333333333333	0	30	1.28125	2	0.591796875
1897.6416015625	0.00833333333333333	0	-30	-8.39583333333333	2	0.5166015625
1900.357421875	0.00833333333333333	0	-30	-8.39583333333333	1	0.6328125
1903.19921875	0.00833333333333333	0	-30	-8.39583333333333	1	0.6865234375
1906.3076171875	0.00833333333333333	0	30	1.28125	2	0.5791015625
1909.1748046875	0.00833333333333333	0	30	1.28125	1	0.671875
1912.2158203125	0.00833333333333333	0	-30	-8.39583333333333	2	0.55859375
1915.166015625	0.00833333333333333	0	30	1.28125	1	0.5849609375
1917.923828125	0.00833333333333333	0	30	1.28125	1	0.978515625
1921.298828125	0.00833333333333333	0	-30	-8.39583333333333	1	0.66015625
1924.1494140625	0.00833333333333333	0	30	1.28125	1	1.3212890625
1927.83203125	0.00833333333333333	0	-30	-8.39583333333333	2	0.6787109375
1931.041015625	0.00833333333333333	0	-30	-8.39583333333333	1	0.56640625
1934.0986328125	0.00833333333333333	0	30	1.28125	2	0.716796875
1957.20703125	0.00833333333333333	0	30	1.28125	1	0.8408203125
1960.1484375	0.00833333333333333	0	-30	-8.39583333333333	1	0.7314453125
1962.96484375	0.00833333333333333	0	-30	-8.39583333333333	2	0.626953125
1965.9814453125	0.00833333333333333	0	30	1.28125	2	0.658203125
1969.0654296875	0.00833333333333333	0	30	1.28125	1	0.5830078125
1972.138671875	0.00833333333333333	0	30	1.28125	1	0.7255859375
1974.998046875	0.00833333333333333	0	30	1.28125	1	0.6103515625
1978.09765625	0.00833333333333333	0	30	1.28125	2	0.6865234375
1981.0068359375	0.00833333333333333	0	30	1.28125	1	1.1220703125
1984.20703125	0.00833333333333333	0	30	1.28125	1	0.578125
1987.1982421875	0.00833333333333333	0	-30	-8.39583333333333	1	0.5546875
1989.806640625	0.00833333333333333	0	-30	-8.39583333333333	1	0.6181640625
1992.5390625	0.00833333333333333	0	-30	-8.39583333333333	2	0.669921875
1995.46484375	0.00833333333333333	0	30	1.28125	1	0.5205078125
1998.3134765625	0.00833333333333333	0	-30	-8.39583333333333	1	0.5673828125
2001.181640625	0.00833333333333333	0	-30	-8.39583333333333	1	0.7080078125
2004.189453125	0.00833333333333333	0	-30	-8.39583333333333	1	0.6279296875
2007.1064453125	0.00833333333333333	0	30	1.28125	2	0.5986328125
2009.8232421875	0.00833333333333333	0	30	1.28125	1	0.5380859375
2012.7314453125	0.00833333333333333	0	30	1.28125	1	0.646484375
2015.748046875	0.00833333333333333	0	30	1.28125	1	0.5498046875
2018.40625	0.00833333333333333	0	-30	-8.39583333333333	1	0.6435546875
2021.5478515625	0.00833333333333333	0	30	1.28125	1	0.662109375
2024.48828125	0.00833333333333333	0	30	1.28125	1	0.5859375
2027.498046875	0.00833333333333333	0	-30	-8.39583333333333	1	0.5595703125
2030.10546875	0.00833333333333333	0	-30	-8.27083333333333	1	0.552734375
2032.939453125	0.00833333333333333	0	30	1.40625	1	0.5830078125
2035.59765625	0.00833333333333333	0	-30	-8.27083333333333	2	0.6201171875
2038.447265625	0.00833333333333333	0	-30	-8.27083333333333	1	0.5390625
2041.447265625	0.00833333333333333	0	-30	-8.27083333333333	2	0.5146484375
2043.9970703125	0.00833333333333333	0	-30	-8.27083333333333	1	0.853515625
2046.8642578125	0.00833333333333333	0	30	1.40625	1	0.5458984375
2049.513671875	0.00833333333333333	0	-30	-8.27083333333333	2	0.5615234375
2052.3388671875	0.00833333333333333	0	-30	-8.27083333333333	2	0.904296875
2055.72265625	0.00833333333333333	0	30	1.40625	1	0.552734375
2058.638671875	0.00833333333333333	0	-30	-8.27083333333333	2	0.5244140625
2061.6552734375	0.00833333333333333	0	-30	-8.27083333333333	1	1.3642578125
2065.337890625	0.00833333333333333	0	-30	-8.27083333333333	2	0.5537109375
2067.9794921875	0.00833333333333333	0	-30	-8.27083333333333	1	0.6796875
2070.8974609375	0.00833333333333333	0	-30	-8.27083333333333	2	0.642578125
2073.6630859375	0.00833333333333333	0	30	1.40625	1	0.548828125
2076.296875	0.00833333333333333	0	-30	-8.27083333333333	2	0.5224609375
2079.013671875	0.00833333333333333	0	-30	-8.27083333333333	2	1.0224609375
2082.3798828125	0.00833333333333333	0	30	1.40625	2	1.34375
2086.1708984375	0.00833333333333333	0	30	1.40625	2	0.609375
2088.8798828125	0.00833333333333333	0	30	1.40625	2	0.67578125
2091.7470703125	0.00833333333333333	0	-30	-8.27083333333333	2	0.7451171875
2094.962890625	0.00833333333333333	0	30	1.40625	2	0.6015625
2097.7880859375	0.00833333333333333	0	30	1.40625	2	0.81640625
2100.7216796875	0.00833333333333333	0	30	1.28125	2	0.619140625
2103.7802734375	0.00833333333333333	0	30	1.28125	1	0.9365234375
2107.0048828125	0.00833333333333333	0	30	1.28125	2	0.7275390625
2110.0703125	0.00833333333333333	0	30	1.28125	2	0.5419921875
2112.98828125	0.00833333333333333	0	-30	-8.27083333333333	1	1.1767578125
2116.1796875	0.00833333333333333	0	-30	-8.27083333333333	2	0.59375
2118.796875	0.00833333333333333	0	30	1.28125	2	0.583984375
2121.595703125	0.00833333333333333	0	30	1.28125	1	0.5537109375
2124.212890625	0.00833333333333333	0	30	1.28125	2	0.6083984375
2126.8291015625	0.00833333333333333	0	30	1.28125	2	0.6083984375
2129.87109375	0.00833333333333333	0	30	1.28125	2	0.6142578125
2132.8046875	0.00833333333333333	0	-30	-8.27083333333333	2	0.7294921875
2135.6455078125	0.00833333333333333	0	30	1.28125	2	0.6162109375
2138.595703125	0.00833333333333333	0	-30	-8.27083333333333	2	0.6181640625
2141.2119140625	0.00833333333333333	0	30	1.28125	1	0.6337890625
2144.029296875	0.00833333333333333	0	30	1.28125	2	0.568359375
2146.9541015625	0.00833333333333333	0	30	1.28125	2	0.69140625
2149.9033203125	0.00833333333333333	0	-30	-8.27083333333333	2	0.5185546875
2152.4794921875	0.00833333333333333	0	30	1.28125	1	0.90234375
2155.544921875	0.00833333333333333	0	-30	-8.27083333333333	2	0.541015625
2158.5537109375	0.00833333333333333	0	30	1.28125	1	0.5400390625
2161.353515625	0.00833333333333333	0	30	1.28125	2	0.541015625
2164.3037109375	0.00833333333333333	0	30	1.28125	2	0.966796875
2167.345703125	0.00833333333333333	0	30	1.28125	2	0.8447265625
2170.3447265625	0.00833333333333333	0	-30	-8.39583333333333	2	0.5654296875
2173.26171875	0.00833333333333333	0	-30	-8.39583333333333	2	0.5927734375
2176.1201171875	0.00833333333333333	0	-30	-8.39583333333333	2	0.470703125
2178.9873046875	0.00833333333333333	0	-30	-8.39583333333333	2	0.5556640625
2181.9287109375	0.00833333333333333	0	-30	-8.39583333333333	2	0.56640625
2184.6123046875	0.00833333333333333	0	-30	-8.52083333333333	2	0.5390625
2187.177734375	0.00833333333333333	0	-30	-8.52083333333333	2	0.525390625
2236.5185546875	0.00833333333333333	0	-30	-8.52083333333333	1	25.8349609375
2264.552734375	0.00833333333333333	0	30	1.28125	1	1.9130859375
2268.736328125	0.00833333333333333	0	30	1.28125	1	0.7451171875
2271.8857421875	0.00833333333333333	0	30	1.28125	1	0.572265625
2274.9111328125	0.00833333333333333	0	30	1.28125	1	0.5625
2277.7939453125	0.00833333333333333	0	30	1.28125	1	0.5283203125
2280.4521484375	0.00833333333333333	0	30	1.40625	1	0.662109375
2283.443359375	0.00833333333333333	0	30	1.40625	1	0.751953125
2286.5693359375	0.00833333333333333	0	-30	-8.52083333333333	2	0.80078125
2289.4775390625	0.00833333333333333	0	-30	-8.52083333333333	1	0.708984375
2292.3349609375	0.00833333333333333	0	30	1.40625	1	0.5478515625
2295.1435546875	0.00833333333333333	0	30	1.40625	2	0.70703125
2297.994140625	0.00833333333333333	0	-30	-8.52083333333333	1	0.7041015625
2300.876953125	0.00833333333333333	0	-30	-8.52083333333333	1	0.75
2304.0771484375	0.00833333333333333	0	30	1.40625	1	0.685546875
2307.0771484375	0.00833333333333333	0	30	1.40625	1	0.6142578125
2309.90234375	0.00833333333333333	0	-30	-8.52083333333333	2	0.8291015625
2312.8515625	0.00833333333333333	0	30	1.40625	1	0.86328125
2316.04296875	0.00833333333333333	0	-30	-8.52083333333333	1	0.6162109375
2318.876953125	0.00833333333333333	0	30	1.40625	1	0.75
2321.7431640625	0.00833333333333333	0	-30	-8.52083333333333	1	0.724609375
2324.6845703125	0.00833333333333333	0	-30	-8.52083333333333	1	0.7509765625
2327.826171875	0.00833333333333333	0	-30	-8.52083333333333	1	0.7138671875
2331.03515625	0.00833333333333333	0	-30	-8.52083333333333	1	0.6650390625
2333.818359375	0.00833333333333333	0	30	1.40625	1	0.7138671875
2337.04296875	0.00833333333333333	0	-30	-8.39583333333333	1	0.8330078125
2340.1845703125	0.00833333333333333	0	-30	-8.39583333333333	1	0.931640625
2343.41796875	0.00833333333333333	0	-30	-8.39583333333333	2	0.634765625
2346.5595703125	0.00833333333333333	0	-30	-8.39583333333333	1	0.63671875
2349.54296875	0.00833333333333333	0	-30	-8.39583333333333	2	0.533203125
2352.142578125	0.00833333333333333	0	30	1.53125	1	0.6298828125
2354.8759765625	0.00833333333333333	0	-30	-8.39583333333333	2	0.80078125
2357.900390625	0.00833333333333333	0	30	1.53125	2	0.671875
2360.7763671875	0.00833333333333333	0	30	1.53125	1	0.5966796875
2363.458984375	0.00833333333333333	0	-30	-8.39583333333333	2	0.689453125
2366.5009765625	0.00833333333333333	0	-30	-8.39583333333333	2	0.7041015625
2369.54296875	0.00833333333333333	0	-30	-8.39583333333333	1	0.765625
2372.3671875	0.00833333333333333	0	-30	-8.39583333333333	1	0.998046875
2375.642578125	0.00833333333333333	0	30	1.53125	1	0.6025390625
2378.458984375	0.00833333333333333	0	30	1.53125	2	0.650390625
2381.3427734375	0.00833333333333333	0	-30	-8.39583333333333	1	0.5986328125
2384.400390625	0.00833333333333333	0	-30	-8.39583333333333	2	1.97265625
2388.5419921875	0.00833333333333333	0	30	1.53125	2	0.9765625
2391.9169921875	0.00833333333333333	0	-30	-8.39583333333333	1	0.697265625
2395.05078125	0.00833333333333333	0	30	1.53125	1	0.7392578125
2397.8671875	0.00833333333333333	0	30	1.53125	1	0.5947265625
2400.9169921875	0.00833333333333333	0	-30	-8.39583333333333	1	1.10546875
2404.18359375	0.00833333333333333	0	-30	-8.39583333333333	1	0.966796875
2407.650390625	0.00833333333333333	0	-30	-8.39583333333333	1	0.8681640625
2410.7001953125	0.00833333333333333	0	30	1.53125	1	0.6416015625
2413.3330078125	0.00833333333333333	0	30	1.53125	2	0.77734375
2416.2587890625	0.00833333333333333	0	-30	-8.39583333333333	1	1.435546875
2419.8583984375	0.00833333333333333	0	-30	-8.27083333333333	1	0.6611328125
2422.640625	0.00833333333333333	0	30	1.53125	1	0.6064453125
2425.3505859375	0.00833333333333333	0	30	1.53125	1	0.568359375
2428.05859375	0.00833333333333333	0	-30	-8.27083333333333	2	0.67578125
2431.033203125	0.00833333333333333	0	30	1.53125	1	0.5498046875
2433.75	0.00833333333333333	0	-30	-8.27083333333333	2	0.6494140625
2436.533203125	0.00833333333333333	0	30	1.53125	1	0.658203125
2439.6748046875	0.00833333333333333	0	-30	-8.27083333333333	2	0.5166015625
2442.5830078125	0.00833333333333333	0	30	1.53125	1	0.5126953125
2445.1494140625	0.00833333333333333	0	-30	-8.27083333333333	2	0.609375
2448.033203125	0.00833333333333333	0	-30	-8.27083333333333	2	0.630859375
2450.7080078125	0.00833333333333333	0	30	1.65625	2	0.7314453125
2453.541015625	0.00833333333333333	0	30	1.65625	2	0.74609375
2456.3330078125	0.00833333333333333	0	30	1.65625	1	0.5546875
2459.33203125	0.00833333333333333	0	-30	-8.39583333333333	2	0.6357421875
2462.0576171875	0.00833333333333333	0	30	1.65625	1	0.638671875
2464.94921875	0.00833333333333333	0	30	1.65625	2	0.5390625
2467.791015625	0.00833333333333333	0	-30	-8.39583333333333	2	0.640625
2470.8828125	0.00833333333333333	0	-30	-8.39583333333333	2	0.509765625
2473.56640625	0.00833333333333333	0	-30	-8.39583333333333	2	0.498046875
2476.3740234375	0.00833333333333333	0	30	1.65625	2	0.5947265625
2479.2490234375	0.00833333333333333	0	30	1.65625	1	0.6708984375
2481.94921875	0.00833333333333333	0	30	1.65625	1	0.68359375
2485.07421875	0.00833333333333333	0	-30	-8.39583333333333	1	0.734375
2488.1572265625	0.00833333333333333	0	-30	-8.39583333333333	2	1.1953125
2491.548828125	0.00833333333333333	0	-30	-8.39583333333333	1	0.6123046875
2494.57421875	0.00833333333333333	0	-30	-8.39583333333333	2	0.7626953125
2497.5322265625	0.00833333333333333	0	-30	-8.39583333333333	1	1.396484375
2509.7158203125	0.00833333333333333	0	-30	-8.39583333333333	2	0.8212890625
2512.70703125	0.00833333333333333	0	30	1.65625	1	0.56640625
2515.5732421875	0.00833333333333333	0	30	1.65625	1	0.6201171875
2518.4072265625	0.00833333333333333	0	-30	-8.39583333333333	1	0.71484375
2521.33203125	0.00833333333333333	0	-30	-8.39583333333333	1	1.166015625
2524.8486328125	0.00833333333333333	0	30	1.65625	1	0.521484375
2527.623046875	0.00833333333333333	0	-30	-8.39583333333333	1	0.4912109375
2530.33984375	0.00833333333333333	0	30	1.78125	1	0.58984375
2533.34765625	0.00833333333333333	0	-30	-8.39583333333333	1	1.24609375
2536.814453125	0.00833333333333333	0	30	1.78125	2	0.7158203125
2539.748046875	0.00833333333333333	0	-30	-8.39583333333333	2	1.1748046875
2543.1650390625	0.00833333333333333	0	-30	-8.39583333333333	2	0.94140625
2546.58984375	0.00833333333333333	0	-30	-8.39583333333333	1	0.796875
2549.4306640625	0.00833333333333333	0	-30	-8.39583333333333	1	0.8603515625
2552.3564453125	0.00833333333333333	0	30	1.78125	1	0.669921875
2555.1982421875	0.00833333333333333	0	30	1.78125	1	1.0771484375
2558.53125	0.00833333333333333	0	30	1.78125	1	1.095703125
2561.96484375	0.00833333333333333	0	-30	-8.39583333333333	1	0.89453125
2564.9560546875	0.00833333333333333	0	30	1.78125	2	0.9111328125
2568.2060546875	0.00833333333333333	0	30	1.78125	1	0.6455078125
2571.2314453125	0.00833333333333333	0	30	1.78125	2	0.8125
2574.505859375	0.00833333333333333	0	30	1.78125	2	0.76171875
2577.5224609375	0.00833333333333333	0	-30	-8.39583333333333	2	0.720703125
2580.46484375	0.00833333333333333	0	-30	-8.39583333333333	1	0.779296875
2583.330078125	0.00833333333333333	0	-30	-8.39583333333333	2	0.8251953125
2586.623046875	0.00833333333333333	0	-30	-8.39583333333333	1	0.62109375
2589.4638671875	0.00833333333333333	0	30	1.78125	1	0.8603515625
2592.3466796875	0.00833333333333333	0	-30	-8.39583333333333	2	0.6015625
2595.189453125	0.00833333333333333	0	30	1.78125	1	0.7353515625
2598.3642578125	0.00833333333333333	0	30	1.78125	1	0.919921875
2601.35546875	0.00833333333333333	0	-30	-8.39583333333333	2	0.6416015625
2604.314453125	0.00833333333333333	0	-30	-8.39583333333333	2	1.001953125
2607.60546875	0.00833333333333333	0	-30	-8.39583333333333	2	0.87109375
2610.880859375	0.00833333333333333	0	30	1.78125	1	0.5712890625
2613.521484375	0.00833333333333333	0	30	1.78125	1	0.546875
2616.4306640625	0.00833333333333333	0	-30	-8.39583333333333	2	0.669921875
2619.1474609375	0.00833333333333333	0	30	1.90625	1	0.6337890625
2622.013671875	0.00833333333333333	0	-30	-8.52083333333333	2	0.8154296875
2625.080078125	0.00833333333333333	0	-30	-8.52083333333333	1	0.7333984375
2628.171875	0.00833333333333333	0	-30	-8.52083333333333	1	0.7216796875
2631.072265625	0.00833333333333333	0	30	1.90625	1	0.8369140625
2634.24609375	0.00833333333333333	0	-30	-8.52083333333333	1	0.6708984375
2637.35546875	0.00833333333333333	0	30	1.90625	2	0.73046875
2640.3720703125	0.00833333333333333	0	30	1.90625	2	0.9619140625
2643.36328125	0.00833333333333333	0	-30	-8.52083333333333	1	0.7783203125
2646.296875	0.00833333333333333	0	30	1.90625	2	0.94140625
2649.49609375	0.00833333333333333	0	-30	-8.52083333333333	1	0.701171875
2652.2470703125	0.00833333333333333	0	-30	-8.39583333333333	1	0.6064453125
2655.087890625	0.00833333333333333	0	-30	-8.39583333333333	1	0.6943359375
2658.0048828125	0.00833333333333333	0	-30	-8.39583333333333	2	0.8330078125
2660.87109375	0.00833333333333333	0	30	1.90625	2	0.630859375
2663.9296875	0.00833333333333333	0	30	1.90625	1	0.64453125
2666.771484375	0.00833333333333333	0	30	1.90625	1	0.6591796875
2669.4541015625	0.00833333333333333	0	-30	-8.39583333333333	2	0.9443359375
2672.521484375	0.00833333333333333	0	-30	-8.39583333333333	1	0.6767578125
2675.7216796875	0.00833333333333333	0	30	1.90625	1	0.5888671875
2678.705078125	0.00833333333333333	0	30	1.90625	1	0.6376953125
2681.455078125	0.00833333333333333	0	30	1.90625	1	0.6396484375
2684.4716796875	0.00833333333333333	0	-30	-8.39583333333333	2	0.6474609375
2687.404296875	0.00833333333333333	0	-30	-8.39583333333333	1	0.7626953125
2690.396484375	0.00833333333333333	0	-30	-8.39583333333333	1	0.73046875
2693.654296875	0.00833333333333333	0	-30	-8.39583333333333	2	0.640625
2696.7705078125	0.00833333333333333	0	30	2.03125	1	0.5166015625
2699.37109375	0.00833333333333333	0	30	2.03125	1	0.6279296875
2702.0712890625	0.00833333333333333	0	30	2.03125	1	0.591796875
2704.828125	0.00833333333333333	0	30	2.03125	2	0.69921875
2707.62109375	0.00833333333333333	0	30	2.03125	1	0.482421875
2710.1455078125	0.00833333333333333	0	-30	-8.39583333333333	2	0.57421875
2713.12890625	0.00833333333333333	0	-30	-8.39583333333333	2	0.9345703125
2716.1953125	0.00833333333333333	0	30	2.03125	1	0.572265625
2718.7958984375	0.00833333333333333	0	30	2.03125	1	0.6279296875
2721.529296875	0.00833333333333333	0	-30	-8.39583333333333	2	0.8310546875
2724.8291015625	0.00833333333333333	0	30	2.03125	2	0.939453125
2727.88671875	0.00833333333333333	0	-30	-8.39583333333333	2	0.75390625
2730.9208984375	0.00833333333333333	0	30	2.03125	1	0.8798828125
2734.029296875	0.00833333333333333	0	-30	-8.52083333333333	1	0.70703125
2736.828125	0.00833333333333333	0	-30	-8.52083333333333	2	0.64453125
2739.5537109375	0.00833333333333333	0	30	2.03125	2	0.87890625
2742.7451171875	0.00833333333333333	0	-30	-8.52083333333333	1	0.7919921875
2745.5869140625	0.00833333333333333	0	-30	-8.52083333333333	1	0.8056640625
2765.287109375	0.00833333333333333	0	-30	-8.52083333333333	1	0.9462890625
2768.328125	0.00833333333333333	0	30	2.03125	1	0.6982421875
2771.1025390625	0.00833333333333333	0	-30	-8.52083333333333	2	1.05078125
2774.26953125	0.00833333333333333	0	-30	-8.52083333333333	1	0.923828125
2777.302734375	0.00833333333333333	0	30	2.03125	2	5.0595703125
2784.603515625	0.00833333333333333	0	30	2.03125	1	0.6787109375
2787.7861328125	0.00833333333333333	0	-30	-8.52083333333333	1	0.6962890625
2790.861328125	0.00833333333333333	0	30	2.03125	1	0.701171875
2793.9775390625	0.00833333333333333	0	30	2.03125	1	0.6484375
2796.6767578125	0.00833333333333333	0	30	2.03125	2	0.9658203125
2800.0361328125	0.00833333333333333	0	30	2.03125	1	0.6708984375
2803.1865234375	0.00833333333333333	0	-30	-8.52083333333333	1	0.640625
2806.01953125	0.00833333333333333	0	-30	-8.52083333333333	1	0.54296875
2808.8779296875	0.00833333333333333	0	-30	-8.52083333333333	1	0.5732421875
2811.6103515625	0.00833333333333333	0	-30	-8.39583333333333	1	0.5849609375
2814.3447265625	0.00833333333333333	0	30	2.03125	1	0.5546875
2817.1689453125	0.00833333333333333	0	-30	-8.39583333333333	1	0.666015625
2820.2021484375	0.00833333333333333	0	30	2.03125	2	0.689453125
2823.21875	0.00833333333333333	0	-30	-8.39583333333333	1	0.78515625
2826.2353515625	0.00833333333333333	0	-30	-8.39583333333333	1	0.6162109375
2829.177734375	0.00833333333333333	0	-30	-8.39583333333333	1	0.7939453125
2832.1689453125	0.00833333333333333	0	-30	-8.27083333333333	1	0.5703125
2834.8193359375	0.00833333333333333	0	30	2.03125	2	0.728515625
2837.9013671875	0.00833333333333333	0	-30	-8.27083333333333	2	0.7900390625
2841.02734375	0.00833333333333333	0	30	2.03125	2	0.80859375
2843.84375	0.00833333333333333	0	30	2.03125	2	1.232421875
2847.21875	0.00833333333333333	0	30	2.03125	2	1.017578125
2850.3515625	0.00833333333333333	0	30	1.90625	2	0.5810546875
2853.2353515625	0.00833333333333333	0	30	1.90625	2	0.6728515625
2856.3935546875	0.00833333333333333	0	-30	-8.27083333333333	1	0.947265625
2859.7841796875	0.00833333333333333	0	30	1.90625	1	0.6044921875
2862.818359375	0.00833333333333333	0	-30	-8.27083333333333	1	0.6025390625
2865.7265625	0.00833333333333333	0	30	1.90625	2	0.7978515625
2868.693359375	0.00833333333333333	0	-30	-8.27083333333333	1	0.5751953125
2871.4765625	0.00833333333333333	0	30	1.90625	1	0.583984375
2874.193359375	0.00833333333333333	0	30	1.90625	1	0.587890625
2877.0517578125	0.00833333333333333	0	30	1.90625	1	0.5859375
2879.91015625	0.00833333333333333	0	-30	-8.27083333333333	1	0.791015625
2882.876953125	0.00833333333333333	0	-30	-8.27083333333333	1	0.6640625
2885.8173828125	0.00833333333333333	0	-30	-8.14583333333333	2	0.572265625
2888.8681640625	0.00833333333333333	0	-30	-8.14583333333333	2	0.5771484375
2891.8935546875	0.00833333333333333	0	30	1.90625	2	0.8076171875
2894.8759765625	0.00833333333333333	0	30	1.90625	1	0.6181640625
2897.734375	0.00833333333333333	0	30	1.90625	1	0.51953125
2900.79296875	0.00833333333333333	0	30	1.90625	2	0.62109375
2903.392578125	0.00833333333333333	0	30	1.90625	1	0.517578125
2906.0263671875	0.00833333333333333	0	-30	-8.14583333333333	1	0.97265625
2909.392578125	0.00833333333333333	0	30	1.90625	1	0.60546875
2912.0009765625	0.00833333333333333	0	-30	-8.14583333333333	2	0.5966796875
2914.9091796875	0.00833333333333333	0	30	1.90625	2	1.193359375
2918.5	0.00833333333333333	0	30	1.90625	2	0.6982421875
2921.392578125	0.00833333333333333	0	-30	-8.14583333333333	1	1.0380859375
2924.80078125	0.00833333333333333	0	30	1.90625	2	0.7578125
2927.6513671875	0.00833333333333333	0	30	1.90625	1	0.6669921875
2930.7255859375	0.00833333333333333	0	-30	-8.14583333333333	1	0.6728515625
2933.6923828125	0.00833333333333333	0	-30	-8.14583333333333	1	0.74609375
2936.484375	0.00833333333333333	0	30	1.90625	1	0.74609375
2939.56640625	0.00833333333333333	0	-30	-8.14583333333333	2	0.6083984375
2942.42578125	0.00833333333333333	0	-30	-8.14583333333333	1	0.708984375
2945.216796875	0.00833333333333333	0	30	1.90625	1	0.55078125
2948.1171875	0.00833333333333333	0	30	1.90625	2	0.826171875
2951.43359375	0.00833333333333333	0	30	1.90625	1	0.5732421875
2954.44921875	0.00833333333333333	0	30	1.90625	1	0.5341796875
2957.0419921875	0.00833333333333333	0	30	1.90625	1	0.6455078125
2959.8505859375	0.00833333333333333	0	-30	-8.14583333333333	2	0.6689453125
2962.8837890625	0.00833333333333333	0	30	1.90625	1	0.595703125
2965.8916015625	0.00833333333333333	0	-30	-8.14583333333333	1	0.732421875
2969	0.00833333333333333	0	-30	-8.14583333333333	1	1.232421875
2972.43359375	0.00833333333333333	0	30	1.90625	1	0.5986328125
2975.2998046875	0.00833333333333333	0	-30	-8.14583333333333	1	1.00390625
2978.416015625	0.00833333333333333	0	30	2.03125	1	0.671875
2981.3583984375	0.00833333333333333	0	30	2.03125	1	0.642578125
2984.4658203125	0.00833333333333333	0	-30	-8.14583333333333	1	0.56640625
2987.4169921875	0.00833333333333333	0	-30	-8.14583333333333	1	0.607421875
2990.408203125	0.00833333333333333	0	30	2.03125	2	0.7607421875
2993.3837890625	0.00833333333333333	0	-30	-8.02083333333333	1	0.77734375
2996.5078125	0.00833333333333333	0	-30	-8.02083333333333	2	0.693359375
2999.3828125	0.00833333333333333	0	30	2.03125	2	0.921875
3002.5751953125	0.00833333333333333	0	30	2.03125	2	0.7216796875
3005.56640625	0.00833333333333333	0	30	2.03125	2	0.5947265625
3020.4248046875	0.00833333333333333	0	-30	-8.02083333333333	2	0.7529296875
3023.69140625	0.00833333333333333	0	-30	-8.02083333333333	1	0.7021484375
3026.44140625	0.00833333333333333	0	-30	-8.02083333333333	1	0.552734375
3029.283203125	0.00833333333333333	0	30	2.03125	1	0.455078125
3032.099609375	0.00833333333333333	0	30	2.03125	2	0.7666015625
3035.1240234375	0.00833333333333333	0	-30	-8.02083333333333	1	0.5263671875
3038.107421875	0.00833333333333333	0	30	2.03125	1	0.5830078125
3040.94140625	0.00833333333333333	0	30	2.03125	1	1.1806640625
3044.390625	0.00833333333333333	0	-30	-8.02083333333333	1	0.611328125
3047.357421875	0.00833333333333333	0	-30	-8.02083333333333	1	0.8369140625
3050.5654296875	0.00833333333333333	0	-30	-7.89583333333333	2	0.9892578125
3053.8076171875	0.00833333333333333	0	-30	-7.89583333333333	2	0.4990234375
3056.416015625	0.00833333333333333	0	30	2.03125	1	0.7783203125
3059.5908203125	0.00833333333333333	0	-30	-7.89583333333333	1	1.0927734375
3063.048828125	0.00833333333333333	0	30	2.03125	1	0.6181640625
3065.8408203125	0.00833333333333333	0	30	2.03125	1	0.482421875
3068.6240234375	0.00833333333333333	0	30	2.15625	2	0.9072265625
3071.873046875	0.00833333333333333	0	30	2.15625	1	0.6103515625
3074.7236328125	0.00833333333333333	0	-30	-7.89583333333333	2	0.6796875
3077.765625	0.00833333333333333	0	30	2.15625	1	0.6142578125
3080.7734375	0.00833333333333333	0	30	2.15625	2	0.7578125
3084.0322265625	0.00833333333333333	0	30	2.15625	2	0.8115234375
3086.990234375	0.00833333333333333	0	30	2.15625	1	0.677734375
3089.9482421875	0.00833333333333333	0	30	2.15625	1	0.6396484375
3092.7734375	0.00833333333333333	0	30	2.15625	1	0.5986328125
3095.4814453125	0.00833333333333333	0	30	2.15625	1	0.6025390625
3098.15625	0.00833333333333333	0	-30	-7.89583333333333	2	1.0234375
3101.6650390625	0.00833333333333333	0	30	2.15625	1	0.642578125
3104.7392578125	0.00833333333333333	0	-30	-7.89583333333333	2	0.6494140625
3107.65625	0.00833333333333333	0	30	2.28125	1	0.580078125
3110.4150390625	0.00833333333333333	0	-30	-7.89583333333333	2	0.541015625
3113.03125	0.00833333333333333	0	30	2.28125	1	0.4853515625
3115.8896484375	0.00833333333333333	0	-30	-7.89583333333333	2	0.4912109375
3118.5810546875	0.00833333333333333	0	-30	-8.02083333333333	2	0.5673828125
3121.5400390625	0.00833333333333333	0	30	2.28125	2	0.6728515625
3124.5068359375	0.00833333333333333	0	-30	-8.02083333333333	1	0.6181640625
3127.2734375	0.00833333333333333	0	-30	-8.02083333333333	1	0.5634765625
3129.90625	0.00833333333333333	0	-30	-8.02083333333333	2	0.67578125
3132.9150390625	0.00833333333333333	0	30	2.28125	1	0.578125
3135.7802734375	0.00833333333333333	0	30	2.28125	2	0.6806640625
3138.6474609375	0.00833333333333333	0	30	2.28125	1	0.7822265625
3141.4814453125	0.00833333333333333	0	-30	-8.02083333333333	2	0.6357421875
3144.34765625	0.00833333333333333	0	-30	-8.02083333333333	2	0.5380859375
3147.34765625	0.00833333333333333	0	30	2.28125	1	0.6416015625
3150.34765625	0.00833333333333333	0	30	2.28125	2	0.75390625
3153.22265625	0.00833333333333333	0	-30	-8.02083333333333	2	1.5673828125
3157.0634765625	0.00833333333333333	0	-30	-8.02083333333333	2	0.54296875
3159.9560546875	0.00833333333333333	0	-30	-8.14583333333333	1	0.7783203125
3162.8056640625	0.00833333333333333	0	-30	-8.14583333333333	2	0.544921875
3165.47265625	0.00833333333333333	0	-30	-8.14583333333333	2	0.8291015625
3168.4462890625	0.00833333333333333	0	30	2.28125	1	0.6484375
3171.1552734375	0.00833333333333333	0	30	2.28125	2	0.5869140625
3174.1376953125	0.00833333333333333	0	-30	-8.14583333333333	2	0.62890625
3177.046875	0.00833333333333333	0	30	2.28125	2	0.84765625
3180.005859375	0.00833333333333333	0	30	2.28125	1	1.2890625
3183.638671875	0.00833333333333333	0	30	2.28125	2	0.607421875
3186.3056640625	0.00833333333333333	0	30	2.28125	1	0.685546875
3189.0224609375	0.00833333333333333	0	-30	-8.14583333333333	2	0.65625
3192.138671875	0.00833333333333333	0	30	2.28125	1	0.63671875
3195.080078125	0.00833333333333333	0	-30	-8.14583333333333	2	0.6552734375
3198.095703125	0.00833333333333333	0	30	2.28125	2	0.783203125
3201.23828125	0.00833333333333333	0	-30	-8.27083333333333	2	0.5615234375
3204.1298828125	0.00833333333333333	0	30	2.28125	2	0.861328125
3207.013671875	0.00833333333333333	0	-30	-8.27083333333333	2	0.6982421875
3209.9052734375	0.00833333333333333	0	30	2.28125	1	0.6865234375
3213.0380859375	0.00833333333333333	0	-30	-8.27083333333333	2	0.5693359375
3215.9052734375	0.00833333333333333	0	30	2.28125	1	0.71875
3219.0546875	0.00833333333333333	0	-30	-8.27083333333333	1	0.625
3222.1552734375	0.00833333333333333	0	30	2.28125	2	0.5966796875
3225.0546875	0.00833333333333333	0	30	2.28125	1	0.673828125
3227.7705078125	0.00833333333333333	0	30	2.28125	1	0.59765625
3230.7294921875	0.00833333333333333	0	30	2.28125	2	0.9990234375
3233.7626953125	0.00833333333333333	0	-30	-8.27083333333333	1	0.6142578125
3236.646484375	0.00833333333333333	0	30	2.28125	2	0.7060546875
3239.8212890625	0.00833333333333333	0	30	2.28125	2	1.03515625
3243.3125	0.00833333333333333	0	-30	-8.27083333333333	1	1.6962890625
3247.0791015625	0.00833333333333333	0	-30	-8.27083333333333	1	0.8662109375
3249.9794921875	0.00833333333333333	0	30	2.28125	2	0.6455078125
3252.99609375	0.00833333333333333	0	-30	-8.27083333333333	1	0.869140625
3256.0458984375	0.00833333333333333	0	-30	-8.14583333333333	1	0.6279296875
3274.6708984375	0.00833333333333333	0	30	2.28125	2	0.8505859375
3278.0458984375	0.00833333333333333	0	30	2.15625	1	0.6357421875
3280.87109375	0.00833333333333333	0	30	2.15625	1	0.5791015625
3283.7109375	0.00833333333333333	0	-30	-8.14583333333333	1	0.626953125
3286.3876953125	0.00833333333333333	0	-30	-8.14583333333333	1	0.5107421875
3289.1787109375	0.00833333333333333	0	-30	-8.14583333333333	1	0.591796875
3291.8876953125	0.00833333333333333	0	-30	-8.14583333333333	1	0.5869140625
3294.7373046875	0.00833333333333333	0	30	2.15625	1	0.5615234375
3297.8369140625	0.00833333333333333	0	30	2.15625	1	0.5654296875
3300.8369140625	0.00833333333333333	0	30	2.15625	1	0.533203125
3303.8037109375	0.00833333333333333	0	30	2.28125	1	0.703125
3306.677734375	0.00833333333333333	0	-30	-8.02083333333333	1	0.61328125
3309.8125	0.00833333333333333	0	30	2.28125	1	0.55859375
3312.6201171875	0.00833333333333333	0	-30	-8.02083333333333	1	0.486328125
3315.5615234375	0.00833333333333333	0	-30	-8.02083333333333	1	0.4736328125
3318.2451171875	0.00833333333333333	0	30	2.28125	1	0.5263671875
3321.01171875	0.00833333333333333	0	30	2.28125	1	0.5439453125
3323.662109375	0.00833333333333333	0	-30	-8.02083333333333	1	0.517578125
3326.4619140625	0.00833333333333333	0	30	2.28125	1	0.78125
3329.6953125	0.00833333333333333	0	30	2.40625	1	0.564453125
3332.6279296875	0.00833333333333333	0	-30	-8.02083333333333	2	0.7998046875
3335.853515625	0.00833333333333333	0	30	2.40625	1	0.646484375
3338.65234375	0.00833333333333333	0	30	2.40625	2	0.6708984375
3341.353515625	0.00833333333333333	0	-30	-8.02083333333333	1	0.5146484375
3344.2451171875	0.00833333333333333	0	30	2.40625	1	0.5830078125
3347.2939453125	0.00833333333333333	0	-30	-8.02083333333333	1	0.509765625
3349.8447265625	0.00833333333333333	0	-30	-8.02083333333333	1	0.5673828125
3352.7197265625	0.00833333333333333	0	-30	-8.02083333333333	1	0.8681640625
3355.9111328125	0.00833333333333333	0	30	2.40625	1	0.7578125
3358.9033203125	0.00833333333333333	0	30	2.40625	2	0.8212890625
3362.1943359375	0.00833333333333333	0	-30	-8.02083333333333	1	0.6103515625
3365.2109375	0.00833333333333333	0	-30	-7.89583333333333	1	0.9619140625
3368.236328125	0.00833333333333333	0	30	2.40625	2	0.744140625
3371.14453125	0.00833333333333333	0	-30	-7.89583333333333	1	0.564453125
3373.78515625	0.00833333333333333	0	30	2.40625	2	0.69921875
3376.828125	0.00833333333333333	0	-30	-7.89583333333333	1	0.552734375
3379.435546875	0.00833333333333333	0	-30	-7.89583333333333	1	0.8330078125
3382.64453125	0.00833333333333333	0	30	2.40625	2	0.744140625
3385.7529296875	0.00833333333333333	0	30	2.40625	1	0.6767578125
3388.5859375	0.00833333333333333	0	-30	-7.89583333333333	2	0.6435546875
3391.501953125	0.00833333333333333	0	30	2.40625	1	0.7431640625
3394.560546875	0.00833333333333333	0	30	2.40625	1	0.62890625
3397.4609375	0.00833333333333333	0	30	2.40625	1	0.537109375
3400.2109375	0.00833333333333333	0	30	2.40625	1	0.634765625
3403.1689453125	0.00833333333333333	0	30	2.53125	1	0.5888671875
3406.126953125	0.00833333333333333	0	-30	-7.89583333333333	2	0.9345703125
3409.494140625	0.00833333333333333	0	30	2.53125	1	0.775390625
3412.3017578125	0.00833333333333333	0	-30	-7.89583333333333	1	0.705078125
3415.04296875	0.00833333333333333	0	30	2.53125	2	0.7626953125
3418.2685546875	0.00833333333333333	0	-30	-7.89583333333333	2	0.7060546875
3421.21875	0.00833333333333333	0	-30	-7.89583333333333	2	0.7470703125
3424.234375	0.00833333333333333	0	30	2.53125	2	0.8525390625
3427.376953125	0.00833333333333333	0	-30	-7.89583333333333	1	0.6298828125
3430.1015625	0.00833333333333333	0	30	2.53125	2	0.6259765625
3432.8349609375	0.00833333333333333	0	30	2.53125	1	0.619140625
3435.634765625	0.00833333333333333	0	-30	-7.89583333333333	1	0.580078125
3438.517578125	0.00833333333333333	0	30	2.53125	1	0.521484375
3441.1513671875	0.00833333333333333	0	-30	-7.89583333333333	2	0.53515625
3444.0263671875	0.00833333333333333	0	30	2.53125	1	0.65234375
3447.142578125	0.00833333333333333	0	30	2.53125	2	0.6083984375
3449.884765625	0.00833333333333333	0	30	2.53125	2	0.578125
3452.6845703125	0.00833333333333333	0	30	2.53125	1	0.626953125
3455.4013671875	0.00833333333333333	0	-30	-7.89583333333333	1	0.7900390625
3458.525390625	0.00833333333333333	0	-30	-7.89583333333333	2	0.72265625
3461.6845703125	0.00833333333333333	0	30	2.53125	1	0.6025390625
3464.5595703125	0.00833333333333333	0	30	2.53125	2	0.9365234375
3467.625	0.00833333333333333	0	-30	-7.89583333333333	1	0.6064453125
3470.5263671875	0.00833333333333333	0	-30	-7.89583333333333	1	0.7216796875
3473.484375	0.00833333333333333	0	30	2.53125	2	0.84375
3476.642578125	0.00833333333333333	0	-30	-7.89583333333333	1	0.58203125
3479.4765625	0.00833333333333333	0	-30	-7.89583333333333	1	0.53125
3482.083984375	0.00833333333333333	0	30	2.53125	2	0.6201171875
3485.0009765625	0.00833333333333333	0	30	2.53125	2	0.7509765625
3487.767578125	0.00833333333333333	0	30	2.53125	2	0.6650390625
3490.8759765625	0.00833333333333333	0	30	2.40625	2	0.6923828125
3493.6923828125	0.00833333333333333	0	-30	-7.89583333333333	2	0.6123046875
3496.7509765625	0.00833333333333333	0	-30	-7.89583333333333	1	0.76953125
3499.734375	0.00833333333333333	0	30	2.40625	2	0.5869140625
3502.716796875	0.00833333333333333	0	30	2.40625	1	0.587890625
3505.6591796875	0.00833333333333333	0	30	2.40625	2	0.9658203125
3527.4755859375	0.00833333333333333	0	30	2.40625	1	1.1826171875
3531.1171875	0.00833333333333333	0	-30	-7.89583333333333	1	0.716796875
3533.9501953125	0.00833333333333333	0	30	2.40625	1	0.5712890625
3537	0.00833333333333333	0	30	2.40625	2	0.75390625
3540.1083984375	0.00833333333333333	0	-30	-7.89583333333333	1	0.501953125
3542.849609375	0.00833333333333333	0	30	2.40625	2	0.625
3545.8994140625	0.00833333333333333	0	-30	-7.89583333333333	1	0.55078125
3548.6748046875	0.00833333333333333	0	30	2.40625	1	0.919921875
3551.7333984375	0.00833333333333333	0	-30	-7.89583333333333	2	0.8134765625
3555.0166015625	0.00833333333333333	0	-30	-7.89583333333333	1	0.6337890625
3558.041015625	0.00833333333333333	0	30	2.40625	2	0.8173828125
3561.2333984375	0.00833333333333333	0	30	2.40625	1	0.609375
3564.0244140625	0.00833333333333333	0	-30	-7.89583333333333	1	0.5947265625
3567.1162109375	0.00833333333333333	0	-30	-7.89583333333333	1	0.5830078125
3570.1484375	0.00833333333333333	0	-30	-7.89583333333333	1	0.54296875
3572.7744140625	0.00833333333333333	0	-30	-7.89583333333333	1	0.62109375
3575.5576171875	0.00833333333333333	0	30	2.40625	1	0.6455078125
3578.5	0.00833333333333333	0	30	2.40625	1	0.599609375
3581.31640625	0.00833333333333333	0	30	2.40625	1	0.6796875
3584.2998046875	0.00833333333333333	0	30	2.40625	1	0.7119140625
3587.3564453125	0.00833333333333333	0	30	2.53125	2	0.7265625
3590.0986328125	0.00833333333333333	0	-30	-7.77083333333333	1	0.873046875
3592.982421875	0.00833333333333333	0	-30	-7.77083333333333	1	0.5498046875
3595.6240234375	0.00833333333333333	0	-30	-7.77083333333333	2	1.2041015625
3598.9072265625	0.00833333333333333	0	-30	-7.77083333333333	1	1.0166015625
3602.3662109375	0.00833333333333333	0	-30	-7.77083333333333	1	0.6064453125
3605.3828125	0.00833333333333333	0	30	2.53125	2	0.685546875
3608.2822265625	0.00833333333333333	0	30	2.53125	1	0.505859375
3610.8408203125	0.00833333333333333	0	30	2.53125	1	0.947265625
3614.265625	0.00833333333333333	0	30	2.53125	2	0.72265625
3617.173828125	0.00833333333333333	0	-30	-7.77083333333333	1	0.5107421875
3620.107421875	0.00833333333333333	0	30	2.53125	2	0.5927734375
3622.72265625	0.00833333333333333	0	-30	-7.77083333333333	1	0.6337890625
3625.70703125	0.00833333333333333	0	-30	-7.77083333333333	1	0.5693359375
3628.4736328125	0.00833333333333333	0	-30	-7.64583333333333	1	0.69140625
3631.3486328125	0.00833333333333333	0	-30	-7.64583333333333	1	0.6494140625
3634.3076171875	0.00833333333333333	0	-30	-7.64583333333333	2	0.7939453125
3637.564453125	0.00833333333333333	0	30	2.53125	1	0.6728515625
3640.306640625	0.00833333333333333	0	30	2.53125	1	1.2265625
3643.7822265625	0.00833333333333333	0	30	2.53125	1	0.5751953125
3646.58984375	0.00833333333333333	0	30	2.53125	1	0.7197265625
3649.423828125	0.00833333333333333	0	-30	-7.64583333333333	1	0.60546875
3652.46484375	0.00833333333333333	0	30	2.53125	1	0.5888671875
3655.4814453125	0.00833333333333333	0	30	2.65625	1	0.9248046875
3658.46484375	0.00833333333333333	0	-30	-7.64583333333333	1	0.62109375
3661.58984375	0.00833333333333333	0	-30	-7.64583333333333	1	0.736328125
3664.390625	0.00833333333333333	0	30	2.65625	2	1.5595703125
3668.123046875	0.00833333333333333	0	30	2.65625	2	2.291015625
3672.6396484375	0.00833333333333333	0	-30	-7.64583333333333	1	0.6943359375
3675.6650390625	0.00833333333333333	0	-30	-7.64583333333333	2	0.7490234375
3678.5146484375	0.00833333333333333	0	-30	-7.64583333333333	1	0.67578125
3681.3310546875	0.00833333333333333	0	-30	-7.64583333333333	1	0.5712890625
3684.3818359375	0.00833333333333333	0	30	2.65625	2	0.6806640625
3687.1396484375	0.00833333333333333	0	30	2.65625	1	0.5869140625
3689.9970703125	0.00833333333333333	0	-30	-7.64583333333333	2	0.650390625
3693.056640625	0.00833333333333333	0	30	2.65625	1	0.6064453125
3696.0390625	0.00833333333333333	0	-30	-7.64583333333333	1	0.8408203125
3699.072265625	0.00833333333333333	0	-30	-7.64583333333333	1	0.5986328125
3702.03125	0.00833333333333333	0	-30	-7.64583333333333	2	1.1279296875
3705.314453125	0.00833333333333333	0	-30	-7.64583333333333	1	0.78125
3708.5556640625	0.00833333333333333	0	30	2.65625	2	1.34765625
3711.9638671875	0.00833333333333333	0	-30	-7.64583333333333	1	0.4521484375
3714.630859375	0.00833333333333333	0	-30	-7.64583333333333	1	0.5849609375
3717.2216796875	0.00833333333333333	0	30	2.65625	2	0.7216796875
3720.10546875	0.00833333333333333	0	30	2.65625	1	1.2060546875
3723.3388671875	0.00833333333333333	0	30	2.65625	1	0.5732421875
3726.0556640625	0.00833333333333333	0	30	2.65625	2	1.552734375
3729.9140625	0.00833333333333333	0	30	2.65625	2	0.734375
3732.9052734375	0.00833333333333333	0	30	2.65625	2	0.8388671875
3735.822265625	0.00833333333333333	0	-30	-7.64583333333333	1	0.7060546875
3738.9140625	0.00833333333333333	0	-30	-7.64583333333333	1	0.7265625
3742.0048828125	0.00833333333333333	0	-30	-7.52083333333333	1	0.5478515625
3744.9970703125	0.00833333333333333	0	-30	-7.52083333333333	1	0.5234375
3747.9638671875	0.00833333333333333	0	30	2.65625	2	0.5966796875
3750.546875	0.00833333333333333	0	-30	-7.52083333333333	1	0.478515625
3753.1298828125	0.00833333333333333	0	30	2.65625	1	0.5107421875
3756.0966796875	0.00833333333333333	0	-30	-7.52083333333333	2	0.6318359375
3758.9384765625	0.00833333333333333	0	-30	-7.52083333333333	1	0.4462890625
3761.4541015625	0.00833333333333333	0	-30	-7.52083333333333	2	0.5390625
3764.1884765625	0.00833333333333333	0	-30	-7.52083333333333	1	0.5009765625
3775.421875	0.00833333333333333	0	-30	-7.52083333333333	2	0.7158203125
3778.62890625	0.00833333333333333	0	-30	-7.52083333333333	1	1.1005859375
3781.9453125	0.00833333333333333	0	30	2.65625	1	0.625
3785.013671875	0.00833333333333333	0	30	2.65625	2	0.7001953125
3787.8134765625	0.00833333333333333	0	30	2.65625	2	0.9326171875
3791.029296875	0.00833333333333333	0	30	2.65625	2	0.716796875
3793.896484375	0.00833333333333333	0	-30	-7.52083333333333	1	0.537109375
3796.8037109375	0.00833333333333333	0	30	2.65625	2	0.646484375
3799.6630859375	0.00833333333333333	0	30	2.65625	2	0.5634765625
3802.271484375	0.00833333333333333	0	30	2.53125	2	0.7470703125
3805.3046875	0.00833333333333333	0	30	2.53125	2	0.7373046875
3808.4794921875	0.00833333333333333	0	30	2.53125	2	0.6357421875
3811.3291015625	0.00833333333333333	0	-30	-7.52083333333333	2	0.505859375
3813.896484375	0.00833333333333333	0	-30	-7.52083333333333	2	0.658203125
3816.87109375	0.00833333333333333	0	-30	-7.52083333333333	1	0.5234375
3819.4208984375	0.00833333333333333	0	30	2.53125	2	0.8056640625
3822.4296875	0.00833333333333333	0	-30	-7.52083333333333	2	1.4619140625
3826.1376953125	0.00833333333333333	0	30	2.53125	2	0.6572265625
3829.279296875	0.00833333333333333	0	-30	-7.52083333333333	1	0.5556640625
3831.904296875	0.00833333333333333	0	-30	-7.52083333333333	1	1.0908203125
3835.37109375	0.00833333333333333	0	30	2.40625	2	1.48046875
3838.9951171875	0.00833333333333333	0	30	2.40625	2	1.6005859375
3843.0791015625	0.00833333333333333	0	30	2.40625	1	2.388671875
3847.8115234375	0.00833333333333333	0	-30	-7.52083333333333	1	1.15234375
3851.3701171875	0.00833333333333333	0	30	2.40625	2	0.8818359375
3854.4775390625	0.00833333333333333	0	30	2.40625	1	0.6630859375
3857.662109375	0.00833333333333333	0	-30	-7.52083333333333	2	0.7021484375
3860.8623046875	0.00833333333333333	0	30	2.40625	2	0.89453125
3864.0869140625	0.00833333333333333	0	-30	-7.52083333333333	1	2.1337890625
3868.703125	0.00833333333333333	0	30	2.40625	1	3.181640625
3874.1455078125	0.00833333333333333	0	-30	-7.52083333333333	1	1.4755859375
3877.75390625	0.00833333333333333	0	-30	-7.52083333333333	1	1.0107421875
3881.1201171875	0.00833333333333333	0	30	2.40625	2	0.876953125
3884.5029296875	0.00833333333333333	0	-30	-7.52083333333333	1	0.7099609375
3887.611328125	0.00833333333333333	0	30	2.40625	2	1.185546875
3890.8369140625	0.00833333333333333	0	30	2.40625	1	3.3203125
3896.2861328125	0.00833333333333333	0	-30	-7.52083333333333	1	1.6474609375
3900.453125	0.00833333333333333	0	-30	-7.39583333333333	1	1.224609375
3903.7861328125	0.00833333333333333	0	30	2.40625	2	0.9638671875
3907.1025390625	0.00833333333333333	0	30	2.40625	1	2.119140625
3911.39453125	0.00833333333333333	0	-30	-7.39583333333333	1	4.33984375
3918.02734375	0.00833333333333333	0	-30	-7.39583333333333	1	0.7626953125
3921.1689453125	0.00833333333333333	0	-30	-7.39583333333333	1	1.09375
3924.3525390625	0.00833333333333333	0	-30	-7.39583333333333	1	1.494140625
3927.9443359375	0.00833333333333333	0	-30	-7.27083333333333	1	0.765625
3930.9443359375	0.00833333333333333	0	30	2.40625	1	1.974609375
3934.9013671875	0.00833333333333333	0	-30	-7.27083333333333	1	0.78515625
3937.7265625	0.00833333333333333	0	-30	-7.27083333333333	1	0.6640625
3940.494140625	0.00833333333333333	0	-30	-7.27083333333333	1	0.880859375
3943.5361328125	0.00833333333333333	0	-30	-7.27083333333333	1	0.71875
3946.66015625	0.00833333333333333	0	30	2.40625	2	2.21875
3951.3515625	0.00833333333333333	0	-30	-7.14583333333333	1	0.943359375
3954.5771484375	0.00833333333333333	0	-30	-7.14583333333333	1	0.734375
3957.369140625	0.00833333333333333	0	30	2.40625	2	0.7099609375
3960.4931640625	0.00833333333333333	0	-30	-7.14583333333333	1	0.73046875
3963.4931640625	0.00833333333333333	0	30	2.40625	2	0.73046875
3966.65234375	0.00833333333333333	0	30	2.40625	2	1.9716796875
3970.91796875	0.00833333333333333	0	-30	-7.14583333333333	1	0.841796875
3974.0849609375	0.00833333333333333	0	30	2.40625	2	0.8349609375
3977.27734375	0.00833333333333333	0	-30	-7.14583333333333	1	0.666015625
3980.2021484375	0.00833333333333333	0	-30	-7.02083333333333	1	0.6298828125
3983.21875	0.00833333333333333	0	30	2.28125	2	2.4296875
3987.693359375	0.00833333333333333	0	30	2.28125	1	1.443359375
3991.4765625	0.00833333333333333	0	30	2.28125	2	0.69140625
3994.384765625	0.00833333333333333	0	30	2.28125	2	0.8798828125
3997.53515625	0.00833333333333333	0	-30	-7.02083333333333	1	0.6015625
4000.3837890625	0.00833333333333333	0	-30	-7.02083333333333	1	1.1845703125
4003.71875	0.00833333333333333	0	30	2.28125	2	0.7060546875
4006.7431640625	0.00833333333333333	0	-30	-7.02083333333333	1	0.4736328125
4009.3095703125	0.00833333333333333	0	-30	-7.02083333333333	1	0.611328125
4012.3681640625	0.00833333333333333	0	-30	-6.89583333333333	1	0.6494140625
4015.17578125	0.00833333333333333	0	-30	-6.89583333333333	1	0.689453125
4018.0009765625	0.00833333333333333	0	-30	-6.89583333333333	1	0.8720703125
4020.93359375	0.00833333333333333	0	-30	-6.89583333333333	1	0.99609375
4024.3837890625	0.00833333333333333	0	-30	-6.89583333333333	1	0.578125
4027.28515625	0.00833333333333333	0	30	2.28125	2	1.2041015625
4030.642578125	0.00833333333333333	0	30	2.28125	2	0.6708984375
4033.359375	0.00833333333333333	0	30	2.15625	2	0.74609375
4036.3515625	0.00833333333333333	0	30	2.15625	2	0.619140625
4039.41796875	0.00833333333333333	0	30	2.15625	2	0.6005859375
