onset	duration	titr	surround	centre	response	rt
0.701171875	0.00833333333333333	1	NaN	-11	1	0.455078125
3.392578125	0.00833333333333333	1	NaN	-10	1	0.427734375
6.25	0.00833333333333333	1	30	10	2	0.4580078125
9.2265625	0.00833333333333333	1	30	-17	2	0.498046875
12.1005859375	0.00833333333333333	1	NaN	12	2	0.560546875
15.04296875	0.00833333333333333	1	NaN	-9	1	0.513671875
17.9921875	0.00833333333333333	1	NaN	-8	1	0.4765625
20.951171875	0.00833333333333333	1	-30	19	2	0.6220703125
24.05078125	0.00833333333333333	1	30	9	2	0.818359375
27.109375	0.00833333333333333	1	-30	-14	1	0.82421875
30.234375	0.00833333333333333	1	NaN	-7	1	0.5224609375
33.0751953125	0.00833333333333333	1	NaN	-6	1	0.39453125
36	0.00833333333333333	1	-30	-13	1	0.60546875
39.0673828125	0.00833333333333333	1	NaN	-5	1	0.4658203125
41.6337890625	0.00833333333333333	1	-30	18	2	0.5
44.333984375	0.00833333333333333	1	NaN	11	2	0.4482421875
47.083984375	0.00833333333333333	1	-30	17	2	0.4501953125
50.0419921875	0.00833333333333333	1	-30	-12	1	0.66796875
53.2333984375	0.00833333333333333	1	30	-18	2	3.5166015625
58.9169921875	0.00833333333333333	1	NaN	10	2	0.521484375
61.5751953125	0.00833333333333333	1	30	8	2	0.703125
64.6162109375	0.00833333333333333	1	-30	-11	2	0.7265625
67.3505859375	0.00833333333333333	1	30	-19	1	0.48828125
69.9833984375	0.00833333333333333	1	NaN	-4	1	0.462890625
72.8583984375	0.00833333333333333	1	-30	-12	1	0.7080078125
75.966796875	0.00833333333333333	1	30	7	1	1.599609375
79.658203125	0.00833333333333333	1	-30	-11	1	0.701171875
82.8740234375	0.00833333333333333	1	-30	-10	1	0.5732421875
85.5751953125	0.00833333333333333	1	30	-18	1	0.591796875
88.4833984375	0.00833333333333333	1	-30	16	2	0.4521484375
91.125	0.00833333333333333	1	NaN	-3	1	0.970703125
94.3154296875	0.00833333333333333	1	NaN	-2	1	0.5478515625
97.2666015625	0.00833333333333333	1	-30	15	2	0.388671875
99.75	0.00833333333333333	1	NaN	-1	2	1.1298828125
102.9833984375	0.00833333333333333	1	NaN	-2	2	0.8642578125
106.25	0.00833333333333333	1	NaN	9	2	0.4697265625
109.0244140625	0.00833333333333333	1	30	-17	1	0.4150390625
111.8828125	0.00833333333333333	1	NaN	8	2	0.3974609375
114.3828125	0.00833333333333333	1	-30	14	2	0.4169921875
117.0234375	0.00833333333333333	1	-30	13	2	0.4169921875
119.783203125	0.00833333333333333	1	30	-16	1	0.4326171875
122.58984375	0.00833333333333333	1	-30	12	2	0.4345703125
125.32421875	0.00833333333333333	1	NaN	-3	1	0.396484375
127.8408203125	0.00833333333333333	1	-30	11	2	0.50390625
130.5234375	0.00833333333333333	1	-30	-9	2	0.6689453125
133.291015625	0.00833333333333333	1	-30	10	2	0.4052734375
136.21484375	0.00833333333333333	1	-30	-10	2	0.8740234375
139.4404296875	0.00833333333333333	1	30	-15	1	0.4404296875
142.1572265625	0.00833333333333333	1	30	8	2	0.7392578125
145.107421875	0.00833333333333333	1	-30	-11	1	0.5654296875
148.048828125	0.00833333333333333	1	30	-14	1	0.4482421875
162.0908203125	0.00833333333333333	1	NaN	-2	1	0.5986328125
165.048828125	0.00833333333333333	1	NaN	7	2	0.4013671875
167.939453125	0.00833333333333333	1	-30	9	2	0.478515625
170.57421875	0.00833333333333333	1	-30	-10	2	0.5
173.0400390625	0.00833333333333333	1	30	7	2	0.521484375
175.8564453125	0.00833333333333333	1	-30	-11	2	0.6904296875
178.681640625	0.00833333333333333	1	30	6	1	0.5126953125
181.4736328125	0.00833333333333333	1	30	-13	1	0.4248046875
184.115234375	0.00833333333333333	1	-30	8	2	0.4638671875
186.873046875	0.00833333333333333	1	-30	7	2	0.4658203125
189.615234375	0.00833333333333333	1	NaN	6	2	0.4189453125
192.0654296875	0.00833333333333333	1	NaN	-1	2	0.5126953125
194.7314453125	0.00833333333333333	1	NaN	-2	2	0.9912109375
198.056640625	0.00833333333333333	1	-30	-12	1	0.673828125
201.03125	0.00833333333333333	1	-30	-11	1	0.4833984375
203.748046875	0.00833333333333333	1	NaN	-3	1	0.3828125
206.4228515625	0.00833333333333333	1	30	7	1	0.4599609375
209.3564453125	0.00833333333333333	1	NaN	-2	1	0.4384765625
212.22265625	0.00833333333333333	1	-30	-10	1	0.4609375
215.1064453125	0.00833333333333333	1	-30	6	2	0.5615234375
218.130859375	0.00833333333333333	1	-30	-9	1	0.6728515625
221.2900390625	0.00833333333333333	1	NaN	-1	1	3.337890625
226.8232421875	0.00833333333333333	1	30	-12	1	0.5087890625
229.755859375	0.00833333333333333	1	NaN	0	2	0.48828125
232.498046875	0.00833333333333333	1	NaN	-1	2	0.681640625
235.40625	0.00833333333333333	1	30	8	2	0.4462890625
238.0810546875	0.00833333333333333	1	-30	5	2	0.39453125
240.8720703125	0.00833333333333333	1	NaN	5	2	0.4365234375
243.5556640625	0.00833333333333333	1	30	7	2	0.296875
245.939453125	0.00833333333333333	1	-30	4	2	0.2568359375
248.5146484375	0.00833333333333333	1	-30	-8	2	0.2978515625
251.0810546875	0.00833333333333333	1	NaN	-2	2	0.37109375
253.5224609375	0.00833333333333333	1	-30	3	2	0.3544921875
256.2138671875	0.00833333333333333	1	-30	-9	2	0.630859375
258.9892578125	0.00833333333333333	1	-30	2	2	0.439453125
261.7392578125	0.00833333333333333	1	NaN	4	2	0.43359375
264.7138671875	0.00833333333333333	1	NaN	-3	1	0.4912109375
267.48046875	0.00833333333333333	1	NaN	3	2	0.6201171875
270.48828125	0.00833333333333333	1	-30	-10	1	0.564453125
273.1884765625	0.00833333333333333	1	NaN	2	2	0.44921875
275.8056640625	0.00833333333333333	1	30	-11	1	0.439453125
278.8056640625	0.00833333333333333	1	NaN	-2	1	0.431640625
281.455078125	0.00833333333333333	1	NaN	1	2	0.5107421875
284.421875	0.00833333333333333	1	NaN	-1	2	0.439453125
286.98046875	0.00833333333333333	1	NaN	-2	2	0.46484375
289.61328125	0.00833333333333333	1	30	-10	1	0.408203125
292.4970703125	0.00833333333333333	1	NaN	0	2	0.4052734375
295.1806640625	0.00833333333333333	1	NaN	-1	2	0.43359375
297.7216796875	0.00833333333333333	1	NaN	-3	2	0.587890625
300.6630859375	0.00833333333333333	1	NaN	-2	1	0.54296875
303.5966796875	0.00833333333333333	1	-30	1	2	0.44921875
306.3134765625	0.00833333333333333	1	NaN	-4	1	0.4130859375
309.10546875	0.00833333333333333	1	-30	0	2	0.5087890625
312.1552734375	0.00833333333333333	1	NaN	-3	2	0.603515625
315.0380859375	0.00833333333333333	1	NaN	-1	2	0.5205078125
317.87109375	0.00833333333333333	1	NaN	-4	1	0.51171875
320.5966796875	0.00833333333333333	1	30	6	2	0.490234375
323.580078125	0.00833333333333333	1	NaN	-2	2	0.4033203125
326.0712890625	0.00833333333333333	1	30	-9	1	0.439453125
328.5712890625	0.00833333333333333	1	-30	-9	1	0.5390625
331.3876953125	0.00833333333333333	1	NaN	-3	1	0.458984375
334.154296875	0.00833333333333333	1	NaN	-2	1	0.380859375
336.955078125	0.00833333333333333	1	30	-8	1	0.419921875
339.50390625	0.00833333333333333	1	30	5	1	0.423828125
342.353515625	0.00833333333333333	1	-30	-8	1	0.3896484375
345.1796875	0.00833333333333333	1	-30	-7	1	0.4443359375
348.13671875	0.00833333333333333	1	30	6	1	0.375
350.6875	0.00833333333333333	1	30	7	1	0.423828125
353.6044921875	0.00833333333333333	1	30	-7	1	0.435546875
356.470703125	0.00833333333333333	1	-30	-6	1	0.4169921875
359.3623046875	0.00833333333333333	1	30	-6	1	0.4541015625
362.2373046875	0.00833333333333333	1	30	8	1	0.35546875
364.9794921875	0.00833333333333333	1	NaN	-1	1	0.404296875
367.787109375	0.00833333333333333	1	NaN	0	1	0.4296875
370.6279296875	0.00833333333333333	1	NaN	1	1	0.404296875
373.2294921875	0.00833333333333333	1	30	9	2	0.802734375
376.37109375	0.00833333333333333	1	30	8	2	0.5732421875
379.345703125	0.00833333333333333	1	-30	-5	2	0.55078125
382.2958984375	0.00833333333333333	1	30	-5	1	0.47265625
384.8125	0.00833333333333333	1	30	7	1	0.5
387.787109375	0.00833333333333333	1	-30	-1	1	0.4140625
390.228515625	0.00833333333333333	1	NaN	2	2	0.701171875
393.103515625	0.00833333333333333	1	30	-4	1	0.42578125
395.6455078125	0.00833333333333333	1	30	-3	1	0.4033203125
398.5205078125	0.00833333333333333	1	-30	-6	1	0.544921875
401.3701171875	0.00833333333333333	1	30	8	2	0.5107421875
403.9951171875	0.00833333333333333	1	NaN	1	2	0.4140625
406.912109375	0.00833333333333333	1	-30	0	2	0.45703125
409.4609375	0.00833333333333333	1	-30	-1	2	0.5244140625
412.4453125	0.00833333333333333	1	NaN	0	2	0.6201171875
415.27734375	0.00833333333333333	1	-30	-2	2	0.4521484375
418.052734375	0.00833333333333333	1	30	7	2	0.3974609375
420.703125	0.00833333333333333	1	30	-2	1	0.5146484375
423.4697265625	0.00833333333333333	1	30	6	2	0.7568359375
426.3779296875	0.00833333333333333	1	NaN	-1	2	0.3359375
428.8701171875	0.00833333333333333	1	30	5	2	0.6201171875
431.8779296875	0.00833333333333333	1	30	-1	1	0.4609375
434.64453125	0.00833333333333333	1	-30	-3	2	0.501953125
437.6865234375	0.00833333333333333	1	-30	-4	2	0.4921875
440.244140625	0.00833333333333333	1	-30	-5	2	0.3828125
443.169921875	0.00833333333333333	1	NaN	-2	1	0.537109375
445.8603515625	0.00833333333333333	1	30	4	1	0.5185546875
448.4697265625	0.00833333333333333	1	NaN	-1	1	0.3330078125
451.044921875	0.00833333333333333	1	-30	-6	1	0.501953125
453.994140625	0.00833333333333333	1	30	5	2	0.6728515625
457.1533203125	0.00833333333333333	1	-30	-5	2	0.6015625
460.177734375	0.00833333333333333	1	-30	-6	1	0.6259765625
473.2109375	0.00833333333333333	1	NaN	0	2	1.13671875
476.560546875	0.00833333333333333	1	-30	-5	2	0.4833984375
479.203125	0.00833333333333333	1	-30	-6	1	0.6806640625
482.03515625	0.00833333333333333	1	NaN	-1	1	0.4169921875
484.9111328125	0.00833333333333333	1	NaN	0	1	0.4208984375
487.5693359375	0.00833333333333333	1	30	0	1	0.4033203125
489.9931640625	0.00833333333333333	1	NaN	1	1	0.4033203125
492.4599609375	0.00833333333333333	1	30	1	1	0.4326171875
495.0771484375	0.00833333333333333	1	NaN	2	2	0.5830078125
497.8857421875	0.00833333333333333	1	NaN	1	2	0.470703125
500.77734375	0.00833333333333333	1	NaN	0	2	0.4189453125
503.6845703125	0.00833333333333333	1	NaN	-1	2	0.423828125
506.5185546875	0.00833333333333333	1	NaN	-2	2	1.0380859375
509.6181640625	0.00833333333333333	1	NaN	-3	1	0.474609375
512.6357421875	0.00833333333333333	1	NaN	-2	1	0.4736328125
515.53515625	0.00833333333333333	1	NaN	-1	1	0.40625
518.119140625	0.00833333333333333	1	30	2	1	0.4375
520.77734375	0.00833333333333333	1	30	3	1	0.35546875
523.52734375	0.00833333333333333	1	30	4	1	1.7021484375
527.66796875	0.00833333333333333	1	NaN	0	2	0.521484375
530.251953125	0.00833333333333333	1	30	5	2	0.78515625
533.5107421875	0.00833333333333333	1	30	4	2	0.5029296875
536.54296875	0.00833333333333333	1	30	3	2	0.703125
539.8603515625	0.00833333333333333	1	30	2	2	0.521484375
542.5087890625	0.00833333333333333	1	30	1	1	0.5693359375
545.4345703125	0.00833333333333333	1	30	2	1	0.595703125
548.509765625	0.00833333333333333	1	30	3	1	0.48828125
551.2265625	0.00833333333333333	1	30	4	1	0.4599609375
553.9013671875	0.00833333333333333	1	30	5	2	0.5126953125
556.66796875	0.00833333333333333	1	30	4	2	0.38671875
559.392578125	0.00833333333333333	1	30	3	2	0.3896484375
562.1513671875	0.00833333333333333	1	30	2	2	0.431640625
564.7763671875	0.00833333333333333	1	30	1	2	0.470703125
567.7265625	0.00833333333333333	1	30	0	1	0.640625
570.8681640625	0.00833333333333333	1	30	1	1	0.466796875
573.6181640625	0.00833333333333333	1	30	2	1	0.396484375
576.42578125	0.00833333333333333	1	30	3	1	0.501953125
578.984375	0.00833333333333333	1	30	4	1	0.4150390625
581.7431640625	0.00833333333333333	1	30	5	1	0.3203125
584.17578125	0.00833333333333333	1	30	6	1	0.3193359375
586.6591796875	0.00833333333333333	1	30	7	2	0.5322265625
589.326171875	0.00833333333333333	1	30	6	2	0.42578125
591.92578125	0.00833333333333333	1	30	5	2	0.44921875
594.5263671875	0.00833333333333333	1	30	4	2	0.3134765625
597.0166015625	0.00833333333333333	1	30	3	2	0.359375
599.859375	0.00833333333333333	1	30	2	2	0.3564453125
602.6591796875	0.00833333333333333	1	30	1	2	0.404296875
605.6005859375	0.00833333333333333	1	30	0	1	0.4951171875
608.109375	0.00833333333333333	1	30	1	1	0.40234375
610.9169921875	0.00833333333333333	1	30	2	1	0.5068359375
613.892578125	0.00833333333333333	1	30	3	1	0.3720703125
616.5166015625	0.00833333333333333	1	30	4	1	0.3076171875
619.1923828125	0.00833333333333333	1	30	5	1	0.3837890625
621.9921875	0.00833333333333333	1	30	6	1	0.400390625
624.8671875	0.00833333333333333	1	30	7	2	0.5419921875
627.6259765625	0.00833333333333333	1	30	5.33333333333333	2	0.3271484375
630.2744140625	0.00833333333333333	1	-30	-7.08333333333333	1	0.57421875
633.125	0.00833333333333333	1	NaN	-1.08333333333333	1	0.6279296875
635.9169921875	0.00833333333333333	1	30	4.33333333333333	1	0.8681640625
639.009765625	0.00833333333333333	1	-30	-6.95833333333333	1	0.5361328125
642.0009765625	0.00833333333333333	1	30	4.45833333333333	1	0.3759765625
644.7666015625	0.00833333333333333	1	30	5.20833333333333	1	0.474609375
647.6748046875	0.00833333333333333	1	-30	-6.08333333333333	1	0.6064453125
650.6083984375	0.00833333333333333	1	30	5.33333333333333	1	0.4326171875
653.5498046875	0.00833333333333333	1	NaN	-0.958333333333333	1	0.5078125
656.3671875	0.00833333333333333	1	NaN	-2.08333333333333	1	0.466796875
659.2490234375	0.00833333333333333	1	NaN	-0.833333333333333	1	0.400390625
661.974609375	0.00833333333333333	1	NaN	-1.95833333333333	1	0.3154296875
664.8076171875	0.00833333333333333	1	-30	-6.83333333333333	1	0.4423828125
667.349609375	0.00833333333333333	1	30	4.58333333333333	1	0.4765625
670.19140625	0.00833333333333333	1	30	5.45833333333333	1	0.466796875
673.06640625	0.00833333333333333	1	NaN	-0.708333333333333	1	0.3916015625
675.783203125	0.00833333333333333	1	30	5.58333333333333	1	0.35546875
678.283203125	0.00833333333333333	1	-30	-5.95833333333333	1	0.4951171875
681.25	0.00833333333333333	1	NaN	-1.83333333333333	1	0.640625
683.9912109375	0.00833333333333333	1	NaN	-1.70833333333333	1	0.4755859375
686.69140625	0.00833333333333333	1	-30	-6.70833333333333	1	0.4404296875
689.625	0.00833333333333333	1	30	4.70833333333333	1	0.3935546875
692.5830078125	0.00833333333333333	1	-30	-5.83333333333333	1	0.3720703125
695.2158203125	0.00833333333333333	1	NaN	-0.583333333333333	1	0.6826171875
698.1064453125	0.00833333333333333	1	NaN	-1.58333333333333	1	0.384765625
700.857421875	0.00833333333333333	1	-30	-6.58333333333333	1	0.3623046875
703.69921875	0.00833333333333333	1	-30	-6.45833333333333	1	0.2802734375
706.4912109375	0.00833333333333333	1	30	5.70833333333333	1	0.263671875
709.1328125	0.00833333333333333	1	30	4.83333333333333	1	0.375
711.9736328125	0.00833333333333333	1	30	5.83333333333333	1	0.326171875
714.44921875	0.00833333333333333	1	NaN	-0.458333333333333	1	0.3623046875
716.9736328125	0.00833333333333333	1	30	4.95833333333333	2	0.4140625
719.564453125	0.00833333333333333	1	-30	-5.70833333333333	2	0.4951171875
722.4072265625	0.00833333333333333	1	-30	-5.83333333333333	2	0.484375
725.33203125	0.00833333333333333	1	NaN	-1.45833333333333	1	0.5517578125
728.0400390625	0.00833333333333333	1	-30	-5.95833333333333	2	0.5400390625
731.048828125	0.00833333333333333	1	NaN	-1.33333333333333	1	0.69140625
734.19921875	0.00833333333333333	1	NaN	-1.20833333333333	1	0.4765625
736.798828125	0.00833333333333333	1	NaN	-0.333333333333333	1	0.5498046875
739.47265625	0.00833333333333333	1	30	4.83333333333333	1	0.3798828125
742.015625	0.00833333333333333	1	-30	-6.08333333333333	1	0.3486328125
744.7490234375	0.00833333333333333	1	NaN	-1.08333333333333	1	0.3671875
747.58203125	0.00833333333333333	1	NaN	-0.208333333333333	1	0.5341796875
750.4404296875	0.00833333333333333	1	-30	-6.33333333333333	1	0.388671875
753.107421875	0.00833333333333333	1	30	5.95833333333333	2	0.41796875
756.056640625	0.00833333333333333	1	NaN	-0.0833333333333333	1	0.388671875
758.7568359375	0.00833333333333333	1	-30	-6.20833333333333	2	0.51171875
761.5654296875	0.00833333333333333	1	30	5.83333333333333	2	0.5439453125
764.1904296875	0.00833333333333333	1	-30	-6.33333333333333	2	0.7509765625
767.4736328125	0.00833333333333333	1	30	5.70833333333333	2	0.4111328125
770.0986328125	0.00833333333333333	1	NaN	0.0416666666666667	2	0.36328125
772.998046875	0.00833333333333333	1	30	5.58333333333333	2	0.3837890625
791.08984375	0.00833333333333333	1	-30	-5.95833333333333	1	0.64453125
794.0810546875	0.00833333333333333	1	NaN	-0.0833333333333333	2	0.4775390625
796.9560546875	0.00833333333333333	1	NaN	-0.958333333333333	2	0.41796875
799.7978515625	0.00833333333333333	1	NaN	-1.08333333333333	2	0.3447265625
802.380859375	0.00833333333333333	1	30	5.45833333333333	2	0.3857421875
805.0146484375	0.00833333333333333	1	-30	-6.45833333333333	2	0.416015625
807.572265625	0.00833333333333333	1	NaN	-0.208333333333333	2	0.3779296875
810.1474609375	0.00833333333333333	1	-30	-5.83333333333333	2	0.6826171875
813.3134765625	0.00833333333333333	1	-30	-6.58333333333333	2	0.509765625
816.248046875	0.00833333333333333	1	30	4.95833333333333	1	1.0146484375
819.7392578125	0.00833333333333333	1	NaN	-1.20833333333333	1	0.6357421875
822.755859375	0.00833333333333333	1	30	5.08333333333333	2	0.8828125
825.771484375	0.00833333333333333	1	-30	-5.95833333333333	1	0.67578125
828.90625	0.00833333333333333	1	NaN	-1.08333333333333	2	0.5810546875
831.9892578125	0.00833333333333333	1	30	5.33333333333333	2	0.8583984375
835.189453125	0.00833333333333333	1	-30	-5.83333333333333	1	0.75390625
837.9892578125	0.00833333333333333	1	30	5.20833333333333	2	0.818359375
841.1142578125	0.00833333333333333	1	30	5.08333333333333	2	0.62109375
844.322265625	0.00833333333333333	1	NaN	-1.20833333333333	1	0.9814453125
847.7060546875	0.00833333333333333	1	30	4.95833333333333	1	0.5341796875
850.388671875	0.00833333333333333	1	NaN	-0.333333333333333	1	0.5712890625
853.47265625	0.00833333333333333	1	NaN	-0.208333333333333	2	0.54296875
856.2138671875	0.00833333333333333	1	-30	-5.70833333333333	2	0.5546875
859.263671875	0.00833333333333333	1	30	4.95833333333333	1	0.544921875
862.0302734375	0.00833333333333333	1	30	5.08333333333333	1	0.5146484375
864.7138671875	0.00833333333333333	1	30	5.08333333333333	2	0.71875
867.921875	0.00833333333333333	1	NaN	-0.333333333333333	2	0.6943359375
870.9794921875	0.00833333333333333	1	30	5.20833333333333	2	0.517578125
874.0556640625	0.00833333333333333	1	30	4.95833333333333	2	0.712890625
876.9306640625	0.00833333333333333	1	30	4.83333333333333	2	0.7177734375
880.263671875	0.00833333333333333	1	-30	-5.83333333333333	2	0.697265625
883.3046875	0.00833333333333333	1	NaN	-0.458333333333333	2	0.736328125
886.3212890625	0.00833333333333333	1	30	5.08333333333333	2	0.439453125
889.1708984375	0.00833333333333333	1	30	4.70833333333333	2	0.5419921875
891.9296875	0.00833333333333333	1	30	4.58333333333333	2	0.51953125
894.6298828125	0.00833333333333333	1	-30	-5.95833333333333	2	0.4111328125
897.60546875	0.00833333333333333	1	NaN	-1.08333333333333	2	0.5166015625
900.529296875	0.00833333333333333	1	30	4.45833333333333	2	0.4404296875
903.1630859375	0.00833333333333333	1	NaN	-0.583333333333333	2	0.4150390625
905.86328125	0.00833333333333333	1	30	4.95833333333333	2	0.39453125
908.455078125	0.00833333333333333	1	30	4.83333333333333	2	0.3544921875
910.9462890625	0.00833333333333333	1	NaN	-1.20833333333333	2	0.3193359375
913.62109375	0.00833333333333333	1	NaN	-1.33333333333333	2	0.3408203125
916.046875	0.00833333333333333	1	-30	-6.08333333333333	2	0.37890625
918.845703125	0.00833333333333333	1	NaN	-0.708333333333333	2	0.3408203125
921.2294921875	0.00833333333333333	1	-30	-6.20833333333333	2	0.4130859375
923.9453125	0.00833333333333333	1	30	4.70833333333333	2	0.3212890625
926.36328125	0.00833333333333333	1	NaN	-1.45833333333333	2	0.3916015625
929.23828125	0.00833333333333333	1	30	4.58333333333333	2	0.33984375
932.0625	0.00833333333333333	1	30	4.45833333333333	2	1.0439453125
935.271484375	0.00833333333333333	1	30	4.33333333333333	2	0.443359375
938.287109375	0.00833333333333333	1	-30	-6.33333333333333	1	0.947265625
941.5283203125	0.00833333333333333	1	NaN	-1.58333333333333	1	0.642578125
944.62109375	0.00833333333333333	1	-30	-6.70833333333333	2	0.75
947.4873046875	0.00833333333333333	1	-30	-6.83333333333333	1	0.5556640625
950.25390625	0.00833333333333333	1	NaN	-0.833333333333333	1	0.96484375
953.4794921875	0.00833333333333333	1	NaN	-1.45833333333333	2	0.9482421875
956.537109375	0.00833333333333333	1	-30	-6.20833333333333	1	0.7626953125
959.6787109375	0.00833333333333333	1	NaN	-1.58333333333333	1	0.5087890625
962.3447265625	0.00833333333333333	1	30	4.33333333333333	1	0.6025390625
965.3125	0.00833333333333333	1	NaN	-1.45833333333333	1	0.4833984375
968.3125	0.00833333333333333	1	-30	-6.08333333333333	2	0.7236328125
971.2041015625	0.00833333333333333	1	30	4.45833333333333	1	0.607421875
974.1123046875	0.00833333333333333	1	30	4.20833333333333	1	0.7236328125
977.1357421875	0.00833333333333333	1	-30	-6.20833333333333	1	0.5966796875
980.2119140625	0.00833333333333333	1	30	4.58333333333333	1	0.5283203125
983.3037109375	0.00833333333333333	1	30	4.33333333333333	1	0.97265625
986.8291015625	0.00833333333333333	1	-30	-6.08333333333333	1	0.607421875
989.845703125	0.00833333333333333	1	30	4.70833333333333	2	0.88671875
993.228515625	0.00833333333333333	1	NaN	-1.33333333333333	1	0.6318359375
996.044921875	0.00833333333333333	1	NaN	-1.20833333333333	1	0.5439453125
998.9619140625	0.00833333333333333	1	NaN	-1.08333333333333	2	0.875
1002.203125	0.00833333333333333	1	-30	-5.95833333333333	1	0.5859375
1005.0947265625	0.00833333333333333	1	30	4.45833333333333	2	0.6865234375
1008.0869140625	0.00833333333333333	1	-30	-5.83333333333333	1	0.58984375
1011.2197265625	0.00833333333333333	1	30	4.33333333333333	1	0.689453125
1014.4697265625	0.00833333333333333	1	-30	-6.70833333333333	1	0.7919921875
1017.486328125	0.00833333333333333	1	NaN	-1.20833333333333	1	0.52734375
1020.1787109375	0.00833333333333333	1	30	4.45833333333333	2	0.8427734375
1023.294921875	0.00833333333333333	1	30	4.33333333333333	1	0.6630859375
1026.310546875	0.00833333333333333	1	NaN	-1.08333333333333	1	0.607421875
1029.169921875	0.00833333333333333	1	30	4.58333333333333	1	0.587890625
1032.1201171875	0.00833333333333333	1	30	4.70833333333333	2	0.6142578125
1035.328125	0.00833333333333333	1	30	4.58333333333333	1	0.5576171875
1038.1865234375	0.00833333333333333	1	NaN	-0.708333333333333	1	0.66796875
1041.2197265625	0.00833333333333333	1	-30	-5.70833333333333	1	0.650390625
1044.453125	0.00833333333333333	1	30	4.45833333333333	2	0.6416015625
1047.361328125	0.00833333333333333	1	NaN	-0.583333333333333	1	0.7734375
1050.3115234375	0.00833333333333333	1	30	4.70833333333333	2	0.4306640625
1053.2529296875	0.00833333333333333	1	NaN	-0.458333333333333	2	0.5537109375
1056.369140625	0.00833333333333333	1	-30	-6.58333333333333	1	0.5576171875
1059.001953125	0.00833333333333333	1	30	4.58333333333333	1	0.6123046875
1061.6943359375	0.00833333333333333	1	NaN	-0.958333333333333	1	0.47265625
1064.427734375	0.00833333333333333	1	30	4.70833333333333	1	0.634765625
1067.2197265625	0.00833333333333333	1	-30	-6.45833333333333	1	0.4833984375
1069.9853515625	0.00833333333333333	1	-30	-5.58333333333333	1	0.7822265625
1073.0107421875	0.00833333333333333	1	NaN	-0.833333333333333	1	0.564453125
1075.810546875	0.00833333333333333	1	30	4.83333333333333	2	0.5732421875
1078.876953125	0.00833333333333333	1	NaN	-0.708333333333333	2	0.802734375
1082.0849609375	0.00833333333333333	1	30	4.33333333333333	2	0.4990234375
1085.09375	0.00833333333333333	1	30	4.70833333333333	2	0.578125
1087.994140625	0.00833333333333333	1	30	4.58333333333333	2	0.4375
1090.51953125	0.00833333333333333	1	-30	-5.45833333333333	2	0.4326171875
1103.2099609375	0.00833333333333333	1	-30	-5.58333333333333	1	0.5341796875
1106.05078125	0.00833333333333333	1	NaN	-0.833333333333333	2	0.845703125
1109.2021484375	0.00833333333333333	1	-30	-6.33333333333333	1	0.8701171875
1112.435546875	0.00833333333333333	1	-30	-6.20833333333333	1	0.724609375
1115.3515625	0.00833333333333333	1	NaN	-0.583333333333333	1	0.697265625
1118.126953125	0.00833333333333333	1	30	4.20833333333333	1	0.4814453125
1121.1435546875	0.00833333333333333	1	NaN	-0.958333333333333	1	0.4736328125
1124.134765625	0.00833333333333333	1	NaN	-0.833333333333333	1	0.490234375
1126.9853515625	0.00833333333333333	1	30	4.33333333333333	1	0.34375
1129.54296875	0.00833333333333333	1	-30	-6.08333333333333	1	0.498046875
1132.6015625	0.00833333333333333	1	30	4.45833333333333	1	0.4716796875
1135.3935546875	0.00833333333333333	1	NaN	-0.458333333333333	1	0.3837890625
1137.9345703125	0.00833333333333333	1	30	4.45833333333333	1	0.458984375
1140.6181640625	0.00833333333333333	1	NaN	-0.333333333333333	1	0.462890625
1143.4755859375	0.00833333333333333	1	NaN	-0.208333333333333	1	0.4619140625
1146.359375	0.00833333333333333	1	NaN	-0.708333333333333	1	0.4501953125
1149.2509765625	0.00833333333333333	1	30	4.58333333333333	1	0.40625
1151.9091796875	0.00833333333333333	1	NaN	-0.583333333333333	1	0.4365234375
1154.6015625	0.00833333333333333	1	-30	-5.95833333333333	2	0.591796875
1157.7265625	0.00833333333333333	1	-30	-5.45833333333333	1	0.4833984375
1160.6005859375	0.00833333333333333	1	30	4.70833333333333	1	0.4970703125
1163.234375	0.00833333333333333	1	NaN	-0.0833333333333333	1	0.6796875
1166.3251953125	0.00833333333333333	1	30	4.83333333333333	1	0.533203125
1168.9765625	0.00833333333333333	1	-30	-6.08333333333333	1	0.521484375
1172	0.00833333333333333	1	30	4.95833333333333	2	0.5546875
1174.8671875	0.00833333333333333	1	30	4.58333333333333	1	0.5673828125
1177.634765625	0.00833333333333333	1	NaN	-0.458333333333333	2	0.599609375
1180.7841796875	0.00833333333333333	1	-30	-5.95833333333333	1	0.6826171875
1183.7841796875	0.00833333333333333	1	NaN	0.0416666666666667	2	0.490234375
1186.7919921875	0.00833333333333333	1	NaN	-0.0833333333333333	2	0.466796875
1189.6171875	0.00833333333333333	1	NaN	-0.208333333333333	2	0.5537109375
1192.5341796875	0.00833333333333333	1	-30	-5.33333333333333	2	0.8291015625
1195.68359375	0.00833333333333333	1	NaN	-0.583333333333333	2	0.4794921875
1198.275390625	0.00833333333333333	1	30	4.70833333333333	2	0.6796875
1201.4580078125	0.00833333333333333	1	NaN	-0.708333333333333	2	0.537109375
1204.267578125	0.00833333333333333	1	30	4.58333333333333	2	0.51171875
1206.8583984375	0.00833333333333333	1	NaN	-0.833333333333333	2	0.4169921875
1209.4580078125	0.00833333333333333	1	-30	-5.83333333333333	2	0.43359375
1212.208984375	0.00833333333333333	1	NaN	-0.333333333333333	2	0.5146484375
1214.875	0.00833333333333333	1	NaN	-0.458333333333333	2	0.400390625
1217.775390625	0.00833333333333333	1	30	4.45833333333333	2	0.5166015625
1220.650390625	0.00833333333333333	1	30	4.33333333333333	2	0.41015625
1223.3251953125	0.00833333333333333	1	-30	-5.95833333333333	2	0.4384765625
1226.1748046875	0.00833333333333333	1	30	4.20833333333333	2	0.62109375
1228.9169921875	0.00833333333333333	1	-30	-5.45833333333333	2	0.54296875
1231.6416015625	0.00833333333333333	1	NaN	-0.958333333333333	2	0.458984375
1234.3994140625	0.00833333333333333	1	-30	-5.58333333333333	2	0.4287109375
1237.0087890625	0.00833333333333333	1	-30	-6.08333333333333	2	0.5234375
1239.775390625	0.00833333333333333	1	-30	-6.20833333333333	1	0.5732421875
1242.81640625	0.00833333333333333	1	NaN	-0.583333333333333	2	0.5400390625
1245.533203125	0.00833333333333333	1	NaN	-0.708333333333333	2	0.83203125
1248.9169921875	0.00833333333333333	1	NaN	-0.833333333333333	2	0.51171875
1251.775390625	0.00833333333333333	1	-30	-5.70833333333333	2	0.5732421875
1254.75	0.00833333333333333	1	-30	-6.08333333333333	2	0.791015625
1257.875	0.00833333333333333	1	-30	-6.20833333333333	2	0.4580078125
1260.908203125	0.00833333333333333	1	NaN	-1.08333333333333	2	0.44921875
1263.8662109375	0.00833333333333333	1	-30	-5.83333333333333	2	0.5146484375
1266.931640625	0.00833333333333333	1	30	4.08333333333333	1	0.6181640625
1269.6572265625	0.00833333333333333	1	NaN	-1.20833333333333	1	0.64453125
1272.6572265625	0.00833333333333333	1	-30	-5.95833333333333	1	0.6044921875
1275.482421875	0.00833333333333333	1	-30	-6.33333333333333	2	0.2998046875
1277.8916015625	0.00833333333333333	1	30	4.20833333333333	1	0.5302734375
1280.7744140625	0.00833333333333333	1	30	4.33333333333333	2	0.6318359375
1283.9580078125	0.00833333333333333	1	30	4.20833333333333	2	0.50390625
1286.5908203125	0.00833333333333333	1	30	4.08333333333333	2	0.51171875
1289.4326171875	0.00833333333333333	1	30	3.95833333333333	2	0.7099609375
1292.2490234375	0.00833333333333333	1	NaN	-1.08333333333333	2	0.525390625
1295.19921875	0.00833333333333333	1	-30	-5.83333333333333	2	0.6953125
1298.1982421875	0.00833333333333333	1	NaN	-0.958333333333333	2	0.6318359375
1301.19921875	0.00833333333333333	1	30	3.83333333333333	2	0.5751953125
1303.982421875	0.00833333333333333	1	30	3.70833333333333	1	0.8720703125
1307.416015625	0.00833333333333333	1	-30	-5.95833333333333	1	0.703125
1310.607421875	0.00833333333333333	1	-30	-6.45833333333333	1	0.615234375
1313.673828125	0.00833333333333333	1	-30	-6.33333333333333	1	0.796875
1316.806640625	0.00833333333333333	1	-30	-6.20833333333333	1	0.671875
1319.83984375	0.00833333333333333	1	-30	-6.08333333333333	1	0.615234375
1322.57421875	0.00833333333333333	1	-30	-5.95833333333333	1	0.529296875
1325.5986328125	0.00833333333333333	1	-30	-5.83333333333333	1	0.521484375
1328.57421875	0.00833333333333333	1	-30	-5.83333333333333	1	0.4736328125
1331.365234375	0.00833333333333333	1	-30	-5.70833333333333	1	0.4345703125
1334.0234375	0.00833333333333333	1	NaN	-1.08333333333333	1	0.49609375
1336.8974609375	0.00833333333333333	1	-30	-5.70833333333333	1	0.7587890625
1339.857421875	0.00833333333333333	1	-30	-5.58333333333333	1	0.4306640625
1342.564453125	0.00833333333333333	1	NaN	-0.958333333333333	1	0.4033203125
1345.4736328125	0.00833333333333333	1	-30	-5.45833333333333	1	0.55078125
1348.33984375	0.00833333333333333	1	-30	-5.58333333333333	1	0.5244140625
1351.4150390625	0.00833333333333333	1	NaN	-0.833333333333333	1	0.4970703125
1354.255859375	0.00833333333333333	1	NaN	-0.708333333333333	1	0.6328125
1357.40625	0.00833333333333333	1	NaN	-0.583333333333333	1	0.4423828125
1359.931640625	0.00833333333333333	1	-30	-5.45833333333333	1	0.796875
1363.013671875	0.00833333333333333	1	-30	-5.33333333333333	1	0.6513671875
1365.923828125	0.00833333333333333	1	-30	-5.20833333333333	1	0.7490234375
1369.1728515625	0.00833333333333333	1	-30	-5.08333333333333	1	0.7080078125
1372.28125	0.00833333333333333	1	NaN	-0.458333333333333	1	0.759765625
1375.455078125	0.00833333333333333	1	NaN	-0.333333333333333	1	0.5625
1378.2314453125	0.00833333333333333	1	NaN	-0.208333333333333	1	0.505859375
1381.064453125	0.00833333333333333	1	NaN	-0.0833333333333333	1	0.5126953125
1384.005859375	0.00833333333333333	1	-30	-5.33333333333333	1	0.6435546875
1387.0234375	0.00833333333333333	1	NaN	0.0416666666666667	1	0.4423828125
1389.623046875	0.00833333333333333	1	NaN	0.166666666666667	1	0.4501953125
1392.2060546875	0.00833333333333333	1	-30	-5.20833333333333	1	0.6279296875
1395.0556640625	0.00833333333333333	1	-30	-4.95833333333333	1	0.4423828125
1397.9482421875	0.00833333333333333	1	-30	-4.83333333333333	1	0.509765625
1400.8056640625	0.00833333333333333	1	-30	-5.08333333333333	1	1.171875
1415.814453125	0.00833333333333333	1	NaN	0.291666666666667	2	0.587890625
1418.6640625	0.00833333333333333	1	NaN	0.166666666666667	2	0.498046875
1421.697265625	0.00833333333333333	1	NaN	0.0416666666666667	2	0.4091796875
1424.314453125	0.00833333333333333	1	-30	-4.70833333333333	2	0.599609375
1427.2392578125	0.00833333333333333	1	-30	-4.95833333333333	2	0.5478515625
1430.1142578125	0.00833333333333333	1	NaN	-0.0833333333333333	2	0.46484375
1432.97265625	0.00833333333333333	1	NaN	-0.208333333333333	2	0.341796875
1435.72265625	0.00833333333333333	1	-30	-4.83333333333333	2	0.3837890625
1438.3134765625	0.00833333333333333	1	-30	-4.95833333333333	2	0.4892578125
1441.0390625	0.00833333333333333	1	-30	-5.08333333333333	2	0.580078125
1444.205078125	0.00833333333333333	1	NaN	-0.333333333333333	2	0.390625
1446.7958984375	0.00833333333333333	1	-30	-5.20833333333333	2	0.51171875
1449.85546875	0.00833333333333333	1	-30	-5.33333333333333	2	0.3720703125
1452.7216796875	0.00833333333333333	1	-30	-5.45833333333333	2	0.44140625
1455.4384765625	0.00833333333333333	1	NaN	-0.458333333333333	2	0.4287109375
1457.98828125	0.00833333333333333	1	NaN	-0.583333333333333	2	0.359375
1460.7216796875	0.00833333333333333	1	-30	-5.58333333333333	2	0.5859375
1463.6552734375	0.00833333333333333	1	NaN	-0.708333333333333	2	0.4521484375
1466.4296875	0.00833333333333333	1	-30	-5.70833333333333	1	0.56640625
1469.4794921875	0.00833333333333333	1	NaN	-0.833333333333333	1	0.541015625
1472.263671875	0.00833333333333333	1	NaN	-0.708333333333333	2	0.556640625
1475.36328125	0.00833333333333333	1	NaN	-0.833333333333333	2	0.4736328125
1478.36328125	0.00833333333333333	1	-30	-5.58333333333333	1	0.5771484375
1481.4970703125	0.00833333333333333	1	NaN	-0.958333333333333	1	0.4990234375
1484.3134765625	0.00833333333333333	1	-30	-5.45833333333333	1	0.6591796875
1487.513671875	0.00833333333333333	1	-30	-5.33333333333333	1	0.5390625
1490.49609375	0.00833333333333333	1	NaN	-0.833333333333333	1	0.3642578125
1493.271484375	0.00833333333333333	1	-30	-5.20833333333333	1	0.453125
1496.1884765625	0.00833333333333333	1	-30	-5.08333333333333	1	0.4326171875
1499.0966796875	0.00833333333333333	1	NaN	-0.708333333333333	1	0.412109375
1501.962890625	0.00833333333333333	1	-30	-4.95833333333333	1	0.37890625
1504.705078125	0.00833333333333333	1	NaN	-0.583333333333333	1	0.404296875
1507.5869140625	0.00833333333333333	1	-30	-4.83333333333333	1	0.40234375
1510.1376953125	0.00833333333333333	1	-30	-4.70833333333333	1	0.4677734375
1512.8203125	0.00833333333333333	1	NaN	-0.458333333333333	1	0.41796875
1515.6376953125	0.00833333333333333	1	-30	-4.58333333333333	1	0.416015625
1518.2041015625	0.00833333333333333	1	NaN	-0.333333333333333	1	0.3779296875
1521.0048828125	0.00833333333333333	1	-30	-4.45833333333333	1	1.041015625
1524.2958984375	0.00833333333333333	1	NaN	-0.208333333333333	2	0.4775390625
1527.01171875	0.00833333333333333	1	-30	-4.33333333333333	1	0.505859375
1530.0712890625	0.00833333333333333	1	-30	-4.20833333333333	1	0.5185546875
1532.9541015625	0.00833333333333333	1	-30	-4.08333333333333	2	0.580078125
1535.9375	0.00833333333333333	1	-30	-4.20833333333333	2	0.7724609375
1538.8369140625	0.00833333333333333	1	NaN	-0.333333333333333	1	2.033203125
1543.3037109375	0.00833333333333333	1	NaN	-0.208333333333333	1	0.5263671875
1546.00390625	0.00833333333333333	1	-30	-4.33333333333333	1	0.53125
1548.6708984375	0.00833333333333333	1	NaN	-0.0833333333333333	2	0.615234375
1551.4541015625	0.00833333333333333	1	-30	-4.20833333333333	1	0.5361328125
1554.0625	0.00833333333333333	1	-30	-4.08333333333333	1	0.568359375
1556.912109375	0.00833333333333333	1	-30	-3.95833333333333	1	0.5830078125
1559.9208984375	0.00833333333333333	1	-30	-3.83333333333333	1	0.3828125
1562.3955078125	0.00833333333333333	1	-30	-3.70833333333333	1	0.5390625
1565.3623046875	0.00833333333333333	1	-30	-3.58333333333333	1	0.6611328125
1568.162109375	0.00833333333333333	1	-30	-3.45833333333333	1	0.716796875
1571.12890625	0.00833333333333333	1	-30	-3.33333333333333	1	0.734375
1574.3955078125	0.00833333333333333	1	-30	-3.20833333333333	1	0.66796875
1577.328125	0.00833333333333333	1	-30	-3.08333333333333	1	0.5595703125
1580.1455078125	0.00833333333333333	1	-30	-2.95833333333333	2	0.646484375
1583.00390625	0.00833333333333333	1	-30	-3.08333333333333	1	0.7880859375
1585.986328125	0.00833333333333333	1	-30	-2.95833333333333	1	0.75
1588.861328125	0.00833333333333333	1	-30	-2.83333333333333	2	0.5947265625
1591.912109375	0.00833333333333333	0	30	4.47708333333333	1	0.599609375
1594.736328125	0.00833333333333333	0	-30	-5.20833333333333	1	0.6162109375
1597.51171875	0.00833333333333333	0	30	4.47708333333333	1	0.5126953125
1600.5859375	0.00833333333333333	0	30	4.47708333333333	2	0.5830078125
1603.3876953125	0.00833333333333333	0	30	4.47708333333333	2	0.564453125
1606.310546875	0.00833333333333333	0	30	4.47708333333333	1	0.7294921875
1609.2451171875	0.00833333333333333	0	-30	-5.20833333333333	1	0.587890625
1612.2197265625	0.00833333333333333	0	30	4.47708333333333	1	0.46875
1614.7783203125	0.00833333333333333	0	30	4.47708333333333	1	0.599609375
1617.578125	0.00833333333333333	0	-30	-5.20833333333333	2	1.0947265625
1620.89453125	0.00833333333333333	0	30	4.47708333333333	1	0.6826171875
1624.1279296875	0.00833333333333333	0	-30	-5.20833333333333	1	0.6259765625
1626.9609375	0.00833333333333333	0	-30	-5.20833333333333	1	0.5205078125
1629.7197265625	0.00833333333333333	0	-30	-5.20833333333333	1	0.505859375
1632.6611328125	0.00833333333333333	0	30	4.47708333333333	1	0.5400390625
1635.6025390625	0.00833333333333333	0	-30	-5.20833333333333	1	0.3828125
1638.3349609375	0.00833333333333333	0	-30	-5.20833333333333	1	0.5546875
1641.4443359375	0.00833333333333333	0	30	4.60208333333333	2	0.8134765625
1644.3525390625	0.00833333333333333	0	30	4.60208333333333	1	0.6015625
1647.21875	0.00833333333333333	0	-30	-5.08333333333333	1	0.7841796875
1650.3271484375	0.00833333333333333	0	-30	-5.08333333333333	1	0.5068359375
1653.03515625	0.00833333333333333	0	-30	-5.08333333333333	1	0.54296875
1656.1025390625	0.00833333333333333	0	-30	-5.08333333333333	1	0.443359375
1658.876953125	0.00833333333333333	0	30	4.60208333333333	1	0.8291015625
1662.2265625	0.00833333333333333	0	30	4.60208333333333	1	0.7353515625
1665.427734375	0.00833333333333333	0	30	4.60208333333333	1	0.6064453125
1668.109375	0.00833333333333333	0	-30	-5.08333333333333	1	0.517578125
1670.8603515625	0.00833333333333333	0	-30	-4.95833333333333	1	0.7822265625
1674.21875	0.00833333333333333	0	-30	-4.95833333333333	1	0.8955078125
1677.501953125	0.00833333333333333	0	-30	-4.95833333333333	1	0.61328125
1680.46875	0.00833333333333333	0	30	4.60208333333333	2	0.8623046875
1683.9765625	0.00833333333333333	0	30	4.60208333333333	2	0.5947265625
1687.09375	0.00833333333333333	0	-30	-4.95833333333333	1	0.669921875
1689.943359375	0.00833333333333333	0	-30	-4.95833333333333	1	0.6201171875
1692.8935546875	0.00833333333333333	0	-30	-4.83333333333333	1	0.60546875
1695.96875	0.00833333333333333	0	-30	-4.83333333333333	1	0.5302734375
1698.84375	0.00833333333333333	0	30	4.60208333333333	1	0.607421875
1701.6767578125	0.00833333333333333	0	30	4.60208333333333	1	0.5185546875
1704.435546875	0.00833333333333333	0	-30	-4.83333333333333	1	0.65625
1707.509765625	0.00833333333333333	0	30	4.60208333333333	1	0.56640625
1710.59375	0.00833333333333333	0	-30	-4.83333333333333	1	0.6259765625
1713.3603515625	0.00833333333333333	0	30	4.60208333333333	1	0.580078125
1716.3681640625	0.00833333333333333	0	-30	-4.83333333333333	1	0.484375
1718.9765625	0.00833333333333333	0	30	4.60208333333333	1	1.03515625
1722.634765625	0.00833333333333333	0	-30	-4.70833333333333	1	0.7939453125
1725.8349609375	0.00833333333333333	0	-30	-4.70833333333333	2	0.74609375
1729.1181640625	0.00833333333333333	0	-30	-4.70833333333333	2	0.75
1732.2099609375	0.00833333333333333	0	30	4.72708333333333	2	0.70703125
1735.568359375	0.00833333333333333	0	30	4.72708333333333	2	0.5322265625
1738.6767578125	0.00833333333333333	0	-30	-4.70833333333333	1	0.84765625
1741.6767578125	0.00833333333333333	0	-30	-4.70833333333333	1	0.6640625
1744.658203125	0.00833333333333333	0	30	4.72708333333333	1	0.5791015625
1747.509765625	0.00833333333333333	0	-30	-4.70833333333333	1	0.6796875
1750.3759765625	0.00833333333333333	0	30	4.72708333333333	1	0.4775390625
1753.1591796875	0.00833333333333333	0	30	4.72708333333333	2	0.509765625
1755.9423828125	0.00833333333333333	0	30	4.72708333333333	2	0.52734375
1758.734375	0.00833333333333333	0	30	4.72708333333333	1	0.71875
1761.8251953125	0.00833333333333333	0	30	4.72708333333333	2	0.64453125
1764.634765625	0.00833333333333333	0	30	4.72708333333333	1	0.794921875
1767.7841796875	0.00833333333333333	0	-30	-4.70833333333333	2	0.669921875
1770.833984375	0.00833333333333333	0	30	4.72708333333333	2	1.0361328125
1774.201171875	0.00833333333333333	0	30	4.72708333333333	1	0.63671875
1777.4091796875	0.00833333333333333	0	30	4.72708333333333	1	1.357421875
1781.3251953125	0.00833333333333333	0	-30	-4.70833333333333	2	0.640625
1784.17578125	0.00833333333333333	0	30	4.72708333333333	2	0.7587890625
1787.1923828125	0.00833333333333333	0	30	4.72708333333333	1	0.75
1790.3408203125	0.00833333333333333	0	30	4.72708333333333	1	0.59375
1793.2421875	0.00833333333333333	0	-30	-4.70833333333333	1	0.587890625
1796.2421875	0.00833333333333333	0	30	4.72708333333333	2	0.685546875
1799.17578125	0.00833333333333333	0	30	4.72708333333333	2	0.9912109375
1802.658203125	0.00833333333333333	0	30	4.72708333333333	1	0.64453125
1805.8583984375	0.00833333333333333	0	30	4.72708333333333	1	1.7490234375
1810.150390625	0.00833333333333333	0	30	4.72708333333333	1	0.5771484375
1813.1162109375	0.00833333333333333	0	30	4.72708333333333	1	0.5
1816.1748046875	0.00833333333333333	0	-30	-4.70833333333333	1	0.552734375
1819.3330078125	0.00833333333333333	0	-30	-4.70833333333333	1	0.642578125
1822.474609375	0.00833333333333333	0	-30	-4.70833333333333	1	0.8369140625
1825.6494140625	0.00833333333333333	0	-30	-4.70833333333333	1	0.55859375
1828.5830078125	0.00833333333333333	0	-30	-4.58333333333333	1	0.5693359375
1831.658203125	0.00833333333333333	0	-30	-4.58333333333333	1	0.5732421875
1872.857421875	0.00833333333333333	0	30	4.72708333333333	2	1.3193359375
1876.623046875	0.00833333333333333	0	-30	-4.58333333333333	1	0.921875
1880.0068359375	0.00833333333333333	0	30	4.72708333333333	2	0.826171875
1882.9990234375	0.00833333333333333	0	-30	-4.58333333333333	2	0.5947265625
1886.06640625	0.00833333333333333	0	30	4.72708333333333	2	0.607421875
1889.2412109375	0.00833333333333333	0	-30	-4.58333333333333	2	0.5361328125
1892.0986328125	0.00833333333333333	0	30	4.72708333333333	2	0.599609375
1894.7578125	0.00833333333333333	0	-30	-4.58333333333333	1	1.068359375
1898.166015625	0.00833333333333333	0	-30	-4.58333333333333	1	0.68359375
1901.3486328125	0.00833333333333333	0	-30	-4.58333333333333	1	0.59765625
1904.32421875	0.00833333333333333	0	30	4.72708333333333	1	0.40625
1906.9072265625	0.00833333333333333	0	-30	-4.58333333333333	1	0.806640625
1910.0908203125	0.00833333333333333	0	30	4.72708333333333	1	0.703125
1913.306640625	0.00833333333333333	0	-30	-4.58333333333333	2	0.583984375
1916.08203125	0.00833333333333333	0	30	4.72708333333333	2	0.7041015625
1919.08203125	0.00833333333333333	0	-30	-4.58333333333333	2	0.560546875
1922.0478515625	0.00833333333333333	0	-30	-4.58333333333333	1	0.6826171875
1924.8984375	0.00833333333333333	0	30	4.72708333333333	1	0.48046875
1927.58203125	0.00833333333333333	0	-30	-4.58333333333333	1	0.7890625
1930.5986328125	0.00833333333333333	0	30	4.72708333333333	1	0.564453125
1933.615234375	0.00833333333333333	0	-30	-4.58333333333333	2	0.7958984375
1936.8896484375	0.00833333333333333	0	-30	-4.58333333333333	1	0.59375
1939.58203125	0.00833333333333333	0	-30	-4.58333333333333	1	0.5576171875
1942.7236328125	0.00833333333333333	0	-30	-4.58333333333333	1	0.759765625
1945.623046875	0.00833333333333333	0	30	4.72708333333333	2	1.1484375
1949.03125	0.00833333333333333	0	-30	-4.58333333333333	1	2.0927734375
1953.4228515625	0.00833333333333333	0	30	4.72708333333333	2	0.6689453125
1956.681640625	0.00833333333333333	0	30	4.72708333333333	2	0.673828125
1959.6806640625	0.00833333333333333	0	30	4.72708333333333	2	0.5068359375
1962.6318359375	0.00833333333333333	0	30	4.72708333333333	1	0.564453125
1965.6650390625	0.00833333333333333	0	30	4.72708333333333	1	0.5947265625
1968.73046875	0.00833333333333333	0	-30	-4.58333333333333	1	0.9619140625
1972.1806640625	0.00833333333333333	0	30	4.72708333333333	1	0.52734375
1975.1142578125	0.00833333333333333	0	30	4.72708333333333	2	0.7705078125
1978.34765625	0.00833333333333333	0	30	4.72708333333333	1	0.77734375
1981.2216796875	0.00833333333333333	0	-30	-4.45833333333333	1	0.607421875
1984.4306640625	0.00833333333333333	0	30	4.72708333333333	2	0.837890625
1987.5810546875	0.00833333333333333	0	-30	-4.45833333333333	1	0.52734375
1990.5712890625	0.00833333333333333	0	-30	-4.45833333333333	2	0.41796875
1993.48046875	0.00833333333333333	0	30	4.72708333333333	2	0.6123046875
1996.380859375	0.00833333333333333	0	30	4.72708333333333	1	0.44921875
1999.3388671875	0.00833333333333333	0	30	4.72708333333333	1	0.5859375
2002.34765625	0.00833333333333333	0	-30	-4.45833333333333	1	0.6494140625
2005.2138671875	0.00833333333333333	0	30	4.72708333333333	2	0.6796875
2008.080078125	0.00833333333333333	0	-30	-4.45833333333333	1	0.61328125
2011.1884765625	0.00833333333333333	0	30	4.72708333333333	2	0.7607421875
2014.1220703125	0.00833333333333333	0	30	4.72708333333333	1	0.740234375
2017.1142578125	0.00833333333333333	0	-30	-4.45833333333333	1	0.763671875
2020.47265625	0.00833333333333333	0	30	4.72708333333333	1	0.861328125
2023.712890625	0.00833333333333333	0	-30	-4.45833333333333	2	0.60546875
2026.8388671875	0.00833333333333333	0	30	4.72708333333333	1	0.53515625
2029.5390625	0.00833333333333333	0	30	4.72708333333333	1	0.5947265625
2032.421875	0.00833333333333333	0	-30	-4.45833333333333	1	0.6484375
2035.271484375	0.00833333333333333	0	-30	-4.45833333333333	1	0.5908203125
2038.4140625	0.00833333333333333	0	-30	-4.45833333333333	1	1.3046875
2041.9638671875	0.00833333333333333	0	30	4.72708333333333	1	0.6904296875
2045.205078125	0.00833333333333333	0	-30	-4.45833333333333	1	0.6337890625
2048.197265625	0.00833333333333333	0	30	4.85208333333333	1	0.5458984375
2050.98046875	0.00833333333333333	0	-30	-4.45833333333333	1	0.578125
2053.73046875	0.00833333333333333	0	30	4.85208333333333	1	0.62109375
2056.5048828125	0.00833333333333333	0	-30	-4.33333333333333	2	0.7578125
2059.6796875	0.00833333333333333	0	30	4.85208333333333	1	0.5751953125
2062.470703125	0.00833333333333333	0	-30	-4.33333333333333	2	0.736328125
2065.421875	0.00833333333333333	0	30	4.85208333333333	1	0.625
2068.4052734375	0.00833333333333333	0	-30	-4.33333333333333	2	0.8505859375
2071.4384765625	0.00833333333333333	0	-30	-4.33333333333333	2	0.6728515625
2074.330078125	0.00833333333333333	0	-30	-4.33333333333333	2	0.8857421875
2077.3623046875	0.00833333333333333	0	-30	-4.45833333333333	2	0.765625
2080.61328125	0.00833333333333333	0	30	4.85208333333333	1	0.5546875
2083.3037109375	0.00833333333333333	0	30	4.97708333333333	1	0.537109375
2086.3466796875	0.00833333333333333	0	-30	-4.45833333333333	2	1.341796875
2090.1875	0.00833333333333333	0	-30	-4.45833333333333	2	0.8125
2093.2626953125	0.00833333333333333	0	-30	-4.45833333333333	1	0.9853515625
2096.462890625	0.00833333333333333	0	-30	-4.45833333333333	1	0.849609375
2099.7626953125	0.00833333333333333	0	30	4.97708333333333	1	0.58984375
2102.6298828125	0.00833333333333333	0	30	4.97708333333333	2	0.642578125
2105.8779296875	0.00833333333333333	0	-30	-4.45833333333333	2	0.6826171875
2108.9208984375	0.00833333333333333	0	30	4.97708333333333	1	0.6396484375
2111.7880859375	0.00833333333333333	0	30	4.97708333333333	1	0.6767578125
2114.662109375	0.00833333333333333	0	30	4.97708333333333	2	0.7392578125
2124.8037109375	0.00833333333333333	0	-30	-4.45833333333333	2	0.6220703125
2127.720703125	0.00833333333333333	0	-30	-4.45833333333333	2	0.560546875
2130.453125	0.00833333333333333	0	30	4.97708333333333	1	0.916015625
2133.6787109375	0.00833333333333333	0	-30	-4.45833333333333	2	0.3466796875
2136.6123046875	0.00833333333333333	0	30	4.97708333333333	1	0.6689453125
2139.7119140625	0.00833333333333333	0	-30	-4.45833333333333	1	0.5537109375
2142.4541015625	0.00833333333333333	0	-30	-4.45833333333333	1	0.6435546875
2145.4033203125	0.00833333333333333	0	30	4.97708333333333	2	0.55859375
2148.1875	0.00833333333333333	0	30	4.97708333333333	1	0.56640625
2150.8623046875	0.00833333333333333	0	-30	-4.45833333333333	1	0.427734375
2153.669921875	0.00833333333333333	0	-30	-4.45833333333333	1	0.541015625
2156.412109375	0.00833333333333333	0	-30	-4.45833333333333	2	0.509765625
2159.3369140625	0.00833333333333333	0	30	4.97708333333333	1	0.689453125
2162.5703125	0.00833333333333333	0	-30	-4.45833333333333	1	0.6083984375
2165.4775390625	0.00833333333333333	0	-30	-4.45833333333333	1	0.3974609375
2168.4287109375	0.00833333333333333	0	30	4.97708333333333	1	0.56640625
2171.453125	0.00833333333333333	0	-30	-4.45833333333333	1	0.5419921875
2174.5283203125	0.00833333333333333	0	30	4.97708333333333	1	0.5146484375
2177.15234375	0.00833333333333333	0	30	4.97708333333333	1	0.458984375
2179.828125	0.00833333333333333	0	30	5.10208333333333	1	0.806640625
2182.84375	0.00833333333333333	0	30	5.10208333333333	2	0.4716796875
2185.4619140625	0.00833333333333333	0	-30	-4.45833333333333	1	0.7177734375
2188.4951171875	0.00833333333333333	0	30	5.10208333333333	1	0.4599609375
2191.294921875	0.00833333333333333	0	-30	-4.45833333333333	1	0.4443359375
2194.01953125	0.00833333333333333	0	-30	-4.33333333333333	1	0.6396484375
2197.119140625	0.00833333333333333	0	30	5.10208333333333	2	0.5888671875
2200.236328125	0.00833333333333333	0	30	5.10208333333333	1	0.623046875
2203.2685546875	0.00833333333333333	0	-30	-4.33333333333333	2	0.455078125
2206.1865234375	0.00833333333333333	0	-30	-4.33333333333333	1	0.6572265625
2209.419921875	0.00833333333333333	0	-30	-4.33333333333333	1	0.6240234375
2212.26953125	0.00833333333333333	0	30	5.10208333333333	2	0.6064453125
2215.3525390625	0.00833333333333333	0	30	5.10208333333333	1	0.5478515625
2218.328125	0.00833333333333333	0	30	5.10208333333333	1	0.4521484375
2221.1611328125	0.00833333333333333	0	30	5.10208333333333	1	0.443359375
2223.7607421875	0.00833333333333333	0	30	5.10208333333333	2	0.4921875
2226.453125	0.00833333333333333	0	30	5.10208333333333	2	0.7119140625
2229.3095703125	0.00833333333333333	0	-30	-4.33333333333333	1	0.6953125
2232.1611328125	0.00833333333333333	0	-30	-4.33333333333333	2	0.4677734375
2235.1357421875	0.00833333333333333	0	30	5.10208333333333	2	0.541015625
2238.15234375	0.00833333333333333	0	30	5.10208333333333	2	0.4765625
2240.9111328125	0.00833333333333333	0	30	5.10208333333333	2	0.5263671875
2244.03515625	0.00833333333333333	0	-30	-4.33333333333333	2	0.4501953125
2247.0693359375	0.00833333333333333	0	30	4.97708333333333	2	0.7763671875
2250.244140625	0.00833333333333333	0	30	4.97708333333333	1	0.6171875
2252.9189453125	0.00833333333333333	0	30	4.97708333333333	1	0.630859375
2255.818359375	0.00833333333333333	0	-30	-4.33333333333333	2	0.546875
2258.9853515625	0.00833333333333333	0	-30	-4.33333333333333	1	0.8447265625
2262.1259765625	0.00833333333333333	0	-30	-4.33333333333333	1	0.6796875
2264.9931640625	0.00833333333333333	0	-30	-4.33333333333333	1	0.6923828125
2268.060546875	0.00833333333333333	0	-30	-4.33333333333333	1	0.5693359375
2270.7685546875	0.00833333333333333	0	30	4.97708333333333	1	0.7333984375
2273.818359375	0.00833333333333333	0	30	4.97708333333333	1	0.564453125
2276.501953125	0.00833333333333333	0	30	4.97708333333333	1	0.5361328125
2279.509765625	0.00833333333333333	0	30	5.10208333333333	2	0.896484375
2282.8515625	0.00833333333333333	0	-30	-4.33333333333333	1	0.802734375
2285.951171875	0.00833333333333333	0	30	5.10208333333333	1	0.7998046875
2288.96875	0.00833333333333333	0	-30	-4.20833333333333	2	0.7744140625
2292.0517578125	0.00833333333333333	0	30	5.10208333333333	2	0.626953125
2295.0849609375	0.00833333333333333	0	-30	-4.20833333333333	2	0.7216796875
2298.1845703125	0.00833333333333333	0	30	5.10208333333333	2	2.302734375
2302.91015625	0.00833333333333333	0	30	5.10208333333333	2	0.609375
2305.8681640625	0.00833333333333333	0	30	5.10208333333333	1	0.7470703125
2308.984375	0.00833333333333333	0	30	5.10208333333333	1	0.6552734375
2311.943359375	0.00833333333333333	0	-30	-4.20833333333333	1	0.6396484375
2314.7333984375	0.00833333333333333	0	-30	-4.20833333333333	2	0.6181640625
2317.79296875	0.00833333333333333	0	30	5.10208333333333	2	0.5029296875
2320.54296875	0.00833333333333333	0	-30	-4.20833333333333	2	0.5205078125
2323.208984375	0.00833333333333333	0	30	5.10208333333333	2	0.55078125
2326.29296875	0.00833333333333333	0	-30	-4.20833333333333	2	0.5224609375
2329.201171875	0.00833333333333333	0	30	5.10208333333333	2	0.462890625
2331.826171875	0.00833333333333333	0	30	5.10208333333333	2	0.4541015625
2334.5673828125	0.00833333333333333	0	-30	-4.20833333333333	2	0.4404296875
2337.2841796875	0.00833333333333333	0	-30	-4.20833333333333	2	0.404296875
2340.0498046875	0.00833333333333333	0	-30	-4.33333333333333	2	0.486328125
2343.0263671875	0.00833333333333333	0	-30	-4.33333333333333	1	0.6298828125
2345.8759765625	0.00833333333333333	0	30	5.10208333333333	2	0.5888671875
2348.8505859375	0.00833333333333333	0	30	4.97708333333333	2	0.6064453125
2351.8173828125	0.00833333333333333	0	30	4.97708333333333	1	0.7431640625
2355.05859375	0.00833333333333333	0	30	4.97708333333333	1	0.7744140625
2358.109375	0.00833333333333333	0	30	4.97708333333333	2	0.6591796875
2368.1171875	0.00833333333333333	0	-30	-4.33333333333333	1	0.8916015625
2371.1337890625	0.00833333333333333	0	-30	-4.33333333333333	1	0.779296875
2374.275390625	0.00833333333333333	0	30	4.97708333333333	1	0.58984375
2377.05859375	0.00833333333333333	0	-30	-4.33333333333333	1	0.6630859375
2379.9423828125	0.00833333333333333	0	30	4.97708333333333	2	0.962890625
2383.4501953125	0.00833333333333333	0	-30	-4.33333333333333	2	0.607421875
2386.6416015625	0.00833333333333333	0	-30	-4.33333333333333	2	0.4326171875
2389.2822265625	0.00833333333333333	0	-30	-4.33333333333333	2	0.5517578125
2392.2333984375	0.00833333333333333	0	-30	-4.33333333333333	2	0.896484375
2395.6005859375	0.00833333333333333	0	30	4.97708333333333	2	0.521484375
2398.3916015625	0.00833333333333333	0	30	4.97708333333333	2	0.74609375
2401.400390625	0.00833333333333333	0	-30	-4.33333333333333	2	0.8173828125
2404.3583984375	0.00833333333333333	0	-30	-4.45833333333333	1	0.556640625
2407.158203125	0.00833333333333333	0	30	4.97708333333333	2	0.7958984375
2410.2919921875	0.00833333333333333	0	30	4.97708333333333	2	0.5908203125
2413.2919921875	0.00833333333333333	0	30	4.85208333333333	1	0.791015625
2416.5	0.00833333333333333	0	-30	-4.45833333333333	2	0.5107421875
2419.3662109375	0.00833333333333333	0	30	4.85208333333333	1	0.7802734375
2422.6318359375	0.00833333333333333	0	30	4.85208333333333	2	0.6513671875
2425.6494140625	0.00833333333333333	0	30	4.85208333333333	2	0.59375
2428.716796875	0.00833333333333333	0	-30	-4.45833333333333	2	0.6943359375
2431.5830078125	0.00833333333333333	0	30	4.85208333333333	1	0.7001953125
2434.5576171875	0.00833333333333333	0	-30	-4.45833333333333	1	0.59765625
2437.474609375	0.00833333333333333	0	30	4.85208333333333	2	0.6083984375
2440.5908203125	0.00833333333333333	0	-30	-4.45833333333333	1	0.7802734375
2443.69140625	0.00833333333333333	0	30	4.85208333333333	2	0.8486328125
2446.81640625	0.00833333333333333	0	-30	-4.45833333333333	2	0.7470703125
2449.94921875	0.00833333333333333	0	-30	-4.45833333333333	2	0.822265625
2453.0908203125	0.00833333333333333	0	30	4.85208333333333	2	0.6328125
2456.0068359375	0.00833333333333333	0	-30	-4.45833333333333	2	0.541015625
2458.8662109375	0.00833333333333333	0	30	4.85208333333333	2	0.5537109375
2461.94140625	0.00833333333333333	0	30	4.85208333333333	2	0.7666015625
2464.8486328125	0.00833333333333333	0	-30	-4.45833333333333	2	0.515625
2467.498046875	0.00833333333333333	0	30	4.72708333333333	2	0.5703125
2470.1826171875	0.00833333333333333	0	-30	-4.45833333333333	2	0.509765625
2473.1572265625	0.00833333333333333	0	30	4.72708333333333	2	0.53515625
2476.2744140625	0.00833333333333333	0	-30	-4.58333333333333	2	0.634765625
2479.0322265625	0.00833333333333333	0	30	4.72708333333333	1	0.716796875
2481.9326171875	0.00833333333333333	0	-30	-4.58333333333333	1	1
2485.3486328125	0.00833333333333333	0	-30	-4.58333333333333	1	0.744140625
2488.357421875	0.00833333333333333	0	-30	-4.58333333333333	1	0.51953125
2491.3486328125	0.00833333333333333	0	-30	-4.58333333333333	1	0.728515625
2494.3984375	0.00833333333333333	0	30	4.72708333333333	1	0.654296875
2497.5068359375	0.00833333333333333	0	-30	-4.58333333333333	1	0.6025390625
2500.4990234375	0.00833333333333333	0	-30	-4.45833333333333	1	0.7939453125
2503.5234375	0.00833333333333333	0	-30	-4.45833333333333	1	0.6416015625
2506.298828125	0.00833333333333333	0	-30	-4.45833333333333	1	0.875
2509.673828125	0.00833333333333333	0	30	4.72708333333333	2	0.6123046875
2512.9482421875	0.00833333333333333	0	30	4.72708333333333	2	0.609375
2516.1484375	0.00833333333333333	0	30	4.72708333333333	1	0.75390625
2519.08203125	0.00833333333333333	0	-30	-4.45833333333333	1	0.7001953125
2522.1318359375	0.00833333333333333	0	30	4.72708333333333	1	0.7138671875
2525.373046875	0.00833333333333333	0	-30	-4.45833333333333	1	0.689453125
2528.3486328125	0.00833333333333333	0	30	4.72708333333333	1	0.6494140625
2531.34765625	0.00833333333333333	0	30	4.72708333333333	1	0.5068359375
2534.22265625	0.00833333333333333	0	30	4.72708333333333	1	0.591796875
2536.98046875	0.00833333333333333	0	30	4.85208333333333	1	0.650390625
2540.0732421875	0.00833333333333333	0	30	4.85208333333333	1	0.525390625
2542.9560546875	0.00833333333333333	0	-30	-4.33333333333333	1	0.4990234375
2545.9560546875	0.00833333333333333	0	-30	-4.33333333333333	1	0.7392578125
2549.1474609375	0.00833333333333333	0	-30	-4.33333333333333	1	0.5712890625
2551.9716796875	0.00833333333333333	0	30	4.85208333333333	1	0.5712890625
2554.814453125	0.00833333333333333	0	30	4.85208333333333	1	0.537109375
2557.9228515625	0.00833333333333333	0	30	4.85208333333333	1	0.5322265625
2560.8974609375	0.00833333333333333	0	30	4.97708333333333	1	0.494140625
2563.5478515625	0.00833333333333333	0	30	4.97708333333333	1	0.53125
2566.447265625	0.00833333333333333	0	-30	-4.33333333333333	1	0.583984375
2569.4228515625	0.00833333333333333	0	-30	-4.33333333333333	1	0.689453125
2572.3974609375	0.00833333333333333	0	30	4.97708333333333	1	0.5703125
2575.3642578125	0.00833333333333333	0	-30	-4.20833333333333	1	0.7236328125
2578.4638671875	0.00833333333333333	0	30	4.97708333333333	1	0.6640625
2581.2890625	0.00833333333333333	0	-30	-4.20833333333333	1	3.1435546875
2586.8056640625	0.00833333333333333	0	-30	-4.20833333333333	2	0.6904296875
2590.005859375	0.00833333333333333	0	-30	-4.20833333333333	1	0.7060546875
2592.8642578125	0.00833333333333333	0	30	4.97708333333333	1	0.576171875
2595.697265625	0.00833333333333333	0	-30	-4.20833333333333	1	0.7353515625
2598.5634765625	0.00833333333333333	0	-30	-4.20833333333333	1	1.26953125
2602.1630859375	0.00833333333333333	0	-30	-4.20833333333333	2	0.501953125
2604.9970703125	0.00833333333333333	0	-30	-4.20833333333333	2	0.5234375
2607.7138671875	0.00833333333333333	0	-30	-4.20833333333333	2	0.638671875
2617.9638671875	0.00833333333333333	0	-30	-4.20833333333333	1	0.5810546875
2620.8720703125	0.00833333333333333	0	30	5.10208333333333	2	0.6494140625
2623.8544921875	0.00833333333333333	0	30	5.10208333333333	2	0.779296875
2626.8046875	0.00833333333333333	0	30	5.10208333333333	2	0.6123046875
2629.5546875	0.00833333333333333	0	-30	-4.20833333333333	1	0.7431640625
2632.5634765625	0.00833333333333333	0	-30	-4.20833333333333	2	0.7822265625
2635.521484375	0.00833333333333333	0	30	5.10208333333333	2	0.5927734375
2638.4130859375	0.00833333333333333	0	-30	-4.20833333333333	2	0.556640625
2641.25390625	0.00833333333333333	0	30	5.10208333333333	2	0.8203125
2644.3046875	0.00833333333333333	0	-30	-4.20833333333333	2	0.7373046875
2647.1962890625	0.00833333333333333	0	-30	-4.20833333333333	2	1.158203125
2650.8046875	0.00833333333333333	0	-30	-4.20833333333333	2	0.4931640625
2653.529296875	0.00833333333333333	0	30	4.97708333333333	2	0.4013671875
2656.5126953125	0.00833333333333333	0	30	4.97708333333333	2	0.4580078125
2659.12109375	0.00833333333333333	0	30	4.97708333333333	2	0.59375
2662.2958984375	0.00833333333333333	0	-30	-4.33333333333333	2	0.6748046875
2665.3466796875	0.00833333333333333	0	30	4.97708333333333	2	1.3447265625
2668.8212890625	0.00833333333333333	0	-30	-4.33333333333333	1	1.3662109375
2672.7548828125	0.00833333333333333	0	30	4.97708333333333	2	0.65625
2675.9208984375	0.00833333333333333	0	-30	-4.33333333333333	2	0.5302734375
2678.7294921875	0.00833333333333333	0	30	4.85208333333333	1	0.76171875
2681.6875	0.00833333333333333	0	-30	-4.33333333333333	2	1.1474609375
2685.0205078125	0.00833333333333333	0	30	4.85208333333333	1	0.6552734375
2687.8544921875	0.00833333333333333	0	-30	-4.33333333333333	1	0.94140625
2690.970703125	0.00833333333333333	0	30	4.85208333333333	1	1.0888671875
2694.25390625	0.00833333333333333	0	30	4.85208333333333	1	0.59765625
2696.962890625	0.00833333333333333	0	-30	-4.33333333333333	2	1.12890625
2700.595703125	0.00833333333333333	0	30	4.85208333333333	1	0.728515625
2703.50390625	0.00833333333333333	0	30	4.97708333333333	1	0.484375
2706.0947265625	0.00833333333333333	0	-30	-4.33333333333333	1	1.0048828125
2709.486328125	0.00833333333333333	0	-30	-4.33333333333333	1	0.7099609375
2712.537109375	0.00833333333333333	0	-30	-4.33333333333333	1	1.1396484375
2716.1708984375	0.00833333333333333	0	-30	-4.33333333333333	2	0.8818359375
2719.662109375	0.00833333333333333	0	-30	-4.33333333333333	2	0.6708984375
2722.662109375	0.00833333333333333	0	-30	-4.33333333333333	1	1.23046875
2726.287109375	0.00833333333333333	0	-30	-4.33333333333333	1	0.78125
2729.40234375	0.00833333333333333	0	30	4.97708333333333	1	0.5947265625
2732.1455078125	0.00833333333333333	0	-30	-4.33333333333333	1	0.6591796875
2735.26171875	0.00833333333333333	0	30	4.97708333333333	1	0.8076171875
2738.3037109375	0.00833333333333333	0	-30	-4.33333333333333	2	1.326171875
2741.953125	0.00833333333333333	0	-30	-4.33333333333333	2	1.00390625
2745.361328125	0.00833333333333333	0	30	4.97708333333333	1	0.98046875
2748.5283203125	0.00833333333333333	0	30	4.97708333333333	1	0.7734375
2751.861328125	0.00833333333333333	0	30	5.10208333333333	1	1.4404296875
2755.5869140625	0.00833333333333333	0	-30	-4.33333333333333	1	0.5947265625
2758.552734375	0.00833333333333333	0	-30	-4.33333333333333	2	1.3095703125
2762.453125	0.00833333333333333	0	-30	-4.33333333333333	1	1.2333984375
2766.0361328125	0.00833333333333333	0	-30	-4.33333333333333	1	0.74609375
2768.89453125	0.00833333333333333	0	30	5.10208333333333	1	0.6318359375
2771.861328125	0.00833333333333333	0	30	5.10208333333333	1	0.6171875
2774.6611328125	0.00833333333333333	0	30	5.10208333333333	1	0.609375
2777.7529296875	0.00833333333333333	0	-30	-4.33333333333333	1	0.5576171875
2780.6025390625	0.00833333333333333	0	30	5.10208333333333	1	0.68359375
2783.927734375	0.00833333333333333	0	30	5.22708333333333	1	0.646484375
2786.935546875	0.00833333333333333	0	30	5.22708333333333	1	0.630859375
2790.1025390625	0.00833333333333333	0	30	5.22708333333333	1	0.640625
2793.203125	0.00833333333333333	0	-30	-4.33333333333333	1	0.5634765625
2796.119140625	0.00833333333333333	0	30	5.22708333333333	2	0.7919921875
2799.2685546875	0.00833333333333333	0	-30	-4.33333333333333	1	0.5947265625
2802.0361328125	0.00833333333333333	0	-30	-4.20833333333333	1	0.634765625
2804.90234375	0.00833333333333333	0	-30	-4.20833333333333	1	0.6484375
2808.1279296875	0.00833333333333333	0	30	5.22708333333333	2	0.615234375
2811.2353515625	0.00833333333333333	0	-30	-4.20833333333333	1	0.8525390625
2814.5439453125	0.00833333333333333	0	-30	-4.20833333333333	1	0.8076171875
2817.935546875	0.00833333333333333	0	30	5.22708333333333	2	0.6484375
2820.884765625	0.00833333333333333	0	30	5.22708333333333	1	1.2587890625
2824.65234375	0.00833333333333333	0	30	5.22708333333333	2	0.6279296875
2827.7265625	0.00833333333333333	0	-30	-4.20833333333333	2	0.4970703125
2830.4775390625	0.00833333333333333	0	30	5.22708333333333	2	0.5224609375
2833.4609375	0.00833333333333333	0	30	5.22708333333333	2	0.515625
2836.46875	0.00833333333333333	0	-30	-4.20833333333333	2	0.4755859375
2839.376953125	0.00833333333333333	0	-30	-4.20833333333333	2	0.7353515625
2842.458984375	0.00833333333333333	0	30	5.22708333333333	2	0.4619140625
2845.3017578125	0.00833333333333333	0	-30	-4.20833333333333	2	0.4267578125
2847.8935546875	0.00833333333333333	0	30	5.22708333333333	2	0.6435546875
2850.91015625	0.00833333333333333	0	-30	-4.20833333333333	2	0.642578125
2853.9765625	0.00833333333333333	0	30	5.10208333333333	1	0.904296875
2857.4521484375	0.00833333333333333	0	30	5.10208333333333	2	0.541015625
2860.251953125	0.00833333333333333	0	-30	-4.33333333333333	2	0.62890625
2863.0771484375	0.00833333333333333	0	30	5.10208333333333	2	0.68359375
2873.4267578125	0.00833333333333333	0	30	5.10208333333333	2	0.9423828125
2876.91015625	0.00833333333333333	0	-30	-4.33333333333333	1	0.5234375
2879.9755859375	0.00833333333333333	0	30	5.10208333333333	1	0.9697265625
2883.3173828125	0.00833333333333333	0	30	5.10208333333333	1	0.98828125
2886.7431640625	0.00833333333333333	0	30	5.10208333333333	1	0.9072265625
2889.78515625	0.00833333333333333	0	-30	-4.33333333333333	2	0.5205078125
2892.8515625	0.00833333333333333	0	30	5.10208333333333	2	0.7666015625
2895.9091796875	0.00833333333333333	0	-30	-4.33333333333333	2	0.5732421875
2898.8095703125	0.00833333333333333	0	30	5.10208333333333	1	0.544921875
2901.9599609375	0.00833333333333333	0	30	5.10208333333333	1	0.73046875
2904.9755859375	0.00833333333333333	0	-30	-4.33333333333333	1	0.611328125
2907.9345703125	0.00833333333333333	0	30	5.10208333333333	1	0.9716796875
2911.43359375	0.00833333333333333	0	30	5.10208333333333	1	0.712890625
2914.6259765625	0.00833333333333333	0	-30	-4.33333333333333	1	0.521484375
2917.3505859375	0.00833333333333333	0	30	5.10208333333333	1	0.580078125
2920.5009765625	0.00833333333333333	0	30	5.22708333333333	1	0.470703125
2923.201171875	0.00833333333333333	0	-30	-4.33333333333333	1	0.4736328125
2926.234375	0.00833333333333333	0	-30	-4.33333333333333	1	0.8330078125
2929.1337890625	0.00833333333333333	0	30	5.22708333333333	1	0.765625
2932.234375	0.00833333333333333	0	30	5.22708333333333	1	0.8173828125
2935.517578125	0.00833333333333333	0	-30	-4.33333333333333	1	0.6376953125
2938.7255859375	0.00833333333333333	0	-30	-4.20833333333333	1	0.7177734375
2942.05078125	0.00833333333333333	0	-30	-4.20833333333333	1	0.705078125
2944.93359375	0.00833333333333333	0	-30	-4.20833333333333	1	0.6865234375
2948.0751953125	0.00833333333333333	0	-30	-4.20833333333333	1	0.5927734375
2950.958984375	0.00833333333333333	0	-30	-4.20833333333333	1	0.63671875
2953.9833984375	0.00833333333333333	0	-30	-4.08333333333333	1	0.5888671875
2956.7421875	0.00833333333333333	0	30	5.22708333333333	1	0.57421875
2959.958984375	0.00833333333333333	0	-30	-4.08333333333333	1	0.525390625
2962.875	0.00833333333333333	0	-30	-4.08333333333333	1	0.4892578125
2965.716796875	0.00833333333333333	0	-30	-4.08333333333333	1	0.4560546875
2968.5244140625	0.00833333333333333	0	-30	-4.08333333333333	1	0.6796875
2971.4169921875	0.00833333333333333	0	30	5.22708333333333	1	0.5556640625
2974.458984375	0.00833333333333333	0	30	5.35208333333333	1	0.681640625
2977.599609375	0.00833333333333333	0	-30	-3.95833333333333	1	0.8056640625
2980.724609375	0.00833333333333333	0	-30	-3.95833333333333	1	0.7763671875
2983.9169921875	0.00833333333333333	0	-30	-3.95833333333333	2	1.48046875
2987.982421875	0.00833333333333333	0	30	5.35208333333333	2	0.615234375
2990.716796875	0.00833333333333333	0	-30	-3.95833333333333	2	0.6328125
2993.9501953125	0.00833333333333333	0	30	5.35208333333333	1	0.6396484375
2997.1240234375	0.00833333333333333	0	30	5.35208333333333	1	0.6416015625
2999.8583984375	0.00833333333333333	0	30	5.35208333333333	1	0.5234375
3002.7412109375	0.00833333333333333	0	30	5.35208333333333	1	0.6240234375
3005.7001953125	0.00833333333333333	0	-30	-3.95833333333333	1	0.505859375
3008.5654296875	0.00833333333333333	0	30	5.35208333333333	1	0.400390625
3011.0751953125	0.00833333333333333	0	-30	-3.95833333333333	1	1.8505859375
3015.232421875	0.00833333333333333	0	30	5.47708333333333	2	0.701171875
3018.107421875	0.00833333333333333	0	30	5.47708333333333	1	0.6982421875
3021.1318359375	0.00833333333333333	0	30	5.47708333333333	1	0.4990234375
3023.8330078125	0.00833333333333333	0	-30	-3.95833333333333	1	0.61328125
3026.748046875	0.00833333333333333	0	-30	-3.95833333333333	1	0.5791015625
3029.5322265625	0.00833333333333333	0	-30	-3.95833333333333	1	0.41015625
3032.0654296875	0.00833333333333333	0	-30	-3.83333333333333	1	0.46875
3034.8994140625	0.00833333333333333	0	-30	-3.83333333333333	1	0.4677734375
3037.5322265625	0.00833333333333333	0	-30	-3.83333333333333	1	0.5302734375
3040.224609375	0.00833333333333333	0	30	5.47708333333333	1	0.494140625
3042.9990234375	0.00833333333333333	0	-30	-3.83333333333333	1	0.48046875
3046.0908203125	0.00833333333333333	0	-30	-3.83333333333333	1	0.4765625
3049.1572265625	0.00833333333333333	0	30	5.47708333333333	1	0.4501953125
3051.7822265625	0.00833333333333333	0	-30	-3.70833333333333	1	0.44921875
3054.640625	0.00833333333333333	0	-30	-3.70833333333333	1	0.462890625
3057.681640625	0.00833333333333333	0	-30	-3.70833333333333	1	0.4375
3060.3740234375	0.00833333333333333	0	-30	-3.70833333333333	1	0.5771484375
3063.439453125	0.00833333333333333	0	-30	-3.70833333333333	1	0.3525390625
3066.240234375	0.00833333333333333	0	30	5.47708333333333	1	0.5595703125
3069.248046875	0.00833333333333333	0	-30	-3.58333333333333	1	1.2802734375
3072.931640625	0.00833333333333333	0	30	5.60208333333333	2	0.884765625
3076.33984375	0.00833333333333333	0	30	5.60208333333333	1	0.6201171875
3079.33984375	0.00833333333333333	0	30	5.60208333333333	1	0.46875
3082.306640625	0.00833333333333333	0	30	5.60208333333333	1	0.685546875
3085.1904296875	0.00833333333333333	0	30	5.60208333333333	1	0.6337890625
3088.3896484375	0.00833333333333333	0	-30	-3.58333333333333	1	0.5390625
3091.2822265625	0.00833333333333333	0	30	5.60208333333333	1	0.5908203125
3094.1982421875	0.00833333333333333	0	30	5.72708333333333	1	0.5146484375
3097.2900390625	0.00833333333333333	0	-30	-3.58333333333333	1	0.7666015625
3100.1982421875	0.00833333333333333	0	-30	-3.58333333333333	1	0.74609375
3103.513671875	0.00833333333333333	0	30	5.72708333333333	1	0.9111328125
3106.6650390625	0.00833333333333333	0	30	5.72708333333333	1	0.6240234375
3109.8564453125	0.00833333333333333	0	-30	-3.58333333333333	1	0.80078125
3113.0400390625	0.00833333333333333	0	30	5.72708333333333	2	0.697265625
3139.7138671875	0.00833333333333333	0	30	5.72708333333333	2	0.6318359375
3142.73046875	0.00833333333333333	0	-30	-3.45833333333333	1	0.6474609375
3145.880859375	0.00833333333333333	0	30	5.72708333333333	2	0.705078125
3148.8056640625	0.00833333333333333	0	-30	-3.45833333333333	2	0.556640625
3151.8974609375	0.00833333333333333	0	30	5.72708333333333	2	0.47265625
3154.8720703125	0.00833333333333333	0	-30	-3.45833333333333	2	0.4501953125
3157.7138671875	0.00833333333333333	0	-30	-3.45833333333333	2	0.5771484375
3160.7138671875	0.00833333333333333	0	-30	-3.45833333333333	2	0.4892578125
3163.4462890625	0.00833333333333333	0	-30	-3.45833333333333	2	0.6923828125
3166.48046875	0.00833333333333333	0	30	5.72708333333333	2	0.6025390625
3169.2216796875	0.00833333333333333	0	30	5.60208333333333	2	0.7978515625
3172.23046875	0.00833333333333333	0	-30	-3.58333333333333	2	0.65234375
3175.263671875	0.00833333333333333	0	-30	-3.58333333333333	2	0.5556640625
3178.2138671875	0.00833333333333333	0	-30	-3.58333333333333	2	0.4619140625
3180.837890625	0.00833333333333333	0	-30	-3.58333333333333	2	0.517578125
3183.7392578125	0.00833333333333333	0	-30	-3.58333333333333	2	0.4482421875
3186.87109375	0.00833333333333333	0	-30	-3.70833333333333	2	0.46875
3189.6376953125	0.00833333333333333	0	30	5.60208333333333	2	0.4462890625
3192.23046875	0.00833333333333333	0	30	5.60208333333333	2	0.4296875
3194.888671875	0.00833333333333333	0	-30	-3.70833333333333	2	0.4267578125
3197.830078125	0.00833333333333333	0	-30	-3.70833333333333	2	0.4140625
3200.5966796875	0.00833333333333333	0	-30	-3.70833333333333	2	0.4638671875
3203.4052734375	0.00833333333333333	0	30	5.60208333333333	2	0.4228515625
3206.1298828125	0.00833333333333333	0	-30	-3.70833333333333	2	0.39453125
3208.962890625	0.00833333333333333	0	30	5.60208333333333	2	0.3134765625
3211.5126953125	0.00833333333333333	0	30	5.47708333333333	2	0.34765625
3214.3369140625	0.00833333333333333	0	-30	-3.83333333333333	2	0.5478515625
3217.345703125	0.00833333333333333	0	-30	-3.83333333333333	2	0.37890625
3220.2041015625	0.00833333333333333	0	30	5.47708333333333	2	0.4970703125
3222.99609375	0.00833333333333333	0	30	5.47708333333333	2	0.3681640625
3226.00390625	0.00833333333333333	0	30	5.47708333333333	2	0.392578125
3228.705078125	0.00833333333333333	0	-30	-3.83333333333333	2	0.3798828125
3231.2548828125	0.00833333333333333	0	30	5.47708333333333	2	0.3662109375
3234.146484375	0.00833333333333333	0	-30	-3.83333333333333	2	0.4111328125
3236.8955078125	0.00833333333333333	0	-30	-3.83333333333333	1	0.677734375
3239.896484375	0.00833333333333333	0	30	5.35208333333333	1	0.5966796875
3242.9951171875	0.00833333333333333	0	-30	-3.83333333333333	1	0.650390625
3245.8798828125	0.00833333333333333	0	-30	-3.83333333333333	2	0.861328125
3249.0791015625	0.00833333333333333	0	30	5.35208333333333	1	0.6865234375
3252.0126953125	0.00833333333333333	0	30	5.35208333333333	1	0.9853515625
3255.111328125	0.00833333333333333	0	-30	-3.83333333333333	1	0.478515625
3258.1123046875	0.00833333333333333	0	-30	-3.83333333333333	1	0.509765625
3261.220703125	0.00833333333333333	0	30	5.35208333333333	1	0.513671875
3264.0205078125	0.00833333333333333	0	30	5.35208333333333	1	0.498046875
3266.6787109375	0.00833333333333333	0	-30	-3.83333333333333	1	0.51953125
3269.4208984375	0.00833333333333333	0	30	5.47708333333333	2	0.76953125
3272.578125	0.00833333333333333	0	-30	-3.83333333333333	2	0.7646484375
3275.9208984375	0.00833333333333333	0	-30	-3.83333333333333	1	0.7578125
3278.9951171875	0.00833333333333333	0	-30	-3.83333333333333	2	0.8037109375
3282.26171875	0.00833333333333333	0	-30	-3.83333333333333	1	0.640625
3285.1943359375	0.00833333333333333	0	30	5.47708333333333	2	0.7880859375
3288.5859375	0.00833333333333333	0	-30	-3.83333333333333	2	0.884765625
3291.5859375	0.00833333333333333	0	-30	-3.83333333333333	2	0.61328125
3294.486328125	0.00833333333333333	0	30	5.47708333333333	2	0.9609375
3297.8037109375	0.00833333333333333	0	-30	-3.83333333333333	2	0.5478515625
3300.8115234375	0.00833333333333333	0	30	5.47708333333333	2	0.4677734375
3303.4951171875	0.00833333333333333	0	30	5.47708333333333	2	0.50390625
3306.51953125	0.00833333333333333	0	30	5.35208333333333	2	0.7041015625
3309.5791015625	0.00833333333333333	0	30	5.35208333333333	1	1.052734375
3313.1455078125	0.00833333333333333	0	30	5.35208333333333	2	0.5419921875
3315.8447265625	0.00833333333333333	0	-30	-3.83333333333333	2	0.53125
3318.611328125	0.00833333333333333	0	30	5.35208333333333	1	0.8369140625
3321.71875	0.00833333333333333	0	-30	-3.83333333333333	2	0.4814453125
3324.703125	0.00833333333333333	0	30	5.35208333333333	1	0.78515625
3327.619140625	0.00833333333333333	0	30	5.35208333333333	1	0.6611328125
3330.3857421875	0.00833333333333333	0	-30	-3.95833333333333	1	0.56640625
3333.13671875	0.00833333333333333	0	30	5.35208333333333	2	0.51171875
3335.9443359375	0.00833333333333333	0	-30	-3.95833333333333	2	0.5361328125
3338.861328125	0.00833333333333333	0	30	5.35208333333333	2	0.466796875
3341.6025390625	0.00833333333333333	0	30	5.35208333333333	1	0.853515625
3345.001953125	0.00833333333333333	0	-30	-3.95833333333333	1	0.55859375
3348.1025390625	0.00833333333333333	0	-30	-3.95833333333333	1	0.658203125
3351.3017578125	0.00833333333333333	0	30	5.35208333333333	1	0.5390625
3354.27734375	0.00833333333333333	0	30	5.35208333333333	1	0.6357421875
3357.2275390625	0.00833333333333333	0	-30	-3.95833333333333	2	0.6376953125
3360.3017578125	0.00833333333333333	0	30	5.35208333333333	2	0.4677734375
3362.9189453125	0.00833333333333333	0	30	5.35208333333333	2	0.41015625
3365.8681640625	0.00833333333333333	0	30	5.35208333333333	1	0.869140625
3369.259765625	0.00833333333333333	0	30	5.35208333333333	1	0.61328125
3372.126953125	0.00833333333333333	0	30	5.35208333333333	1	0.642578125
3380.7685546875	0.00833333333333333	0	-30	-3.95833333333333	1	0.705078125
3383.634765625	0.00833333333333333	0	30	5.35208333333333	2	0.7109375
3386.4931640625	0.00833333333333333	0	30	5.35208333333333	2	0.4931640625
3389.443359375	0.00833333333333333	0	-30	-3.95833333333333	2	0.646484375
3392.5771484375	0.00833333333333333	0	30	5.35208333333333	2	0.4013671875
3395.177734375	0.00833333333333333	0	-30	-3.95833333333333	1	0.6728515625
3398.28515625	0.00833333333333333	0	-30	-3.95833333333333	2	0.4453125
3401.3017578125	0.00833333333333333	0	30	5.35208333333333	2	0.4287109375
3404.0595703125	0.00833333333333333	0	-30	-3.95833333333333	2	0.5986328125
3406.8349609375	0.00833333333333333	0	-30	-3.95833333333333	1	0.583984375
3409.8095703125	0.00833333333333333	0	-30	-3.95833333333333	2	0.521484375
3412.4423828125	0.00833333333333333	0	30	5.35208333333333	2	0.46484375
3415.4013671875	0.00833333333333333	0	-30	-3.95833333333333	2	0.4658203125
3418.4765625	0.00833333333333333	0	-30	-3.95833333333333	2	0.5263671875
3421.42578125	0.00833333333333333	0	30	5.22708333333333	2	0.537109375
3424.1181640625	0.00833333333333333	0	-30	-3.95833333333333	2	0.525390625
3426.92578125	0.00833333333333333	0	30	5.22708333333333	2	0.7099609375
3430.142578125	0.00833333333333333	0	-30	-3.95833333333333	2	0.541015625
3433.2255859375	0.00833333333333333	0	-30	-4.08333333333333	1	0.75390625
3436.5341796875	0.00833333333333333	0	30	5.22708333333333	2	0.501953125
3439.21875	0.00833333333333333	0	-30	-4.08333333333333	2	0.6728515625
3441.9921875	0.00833333333333333	0	30	5.22708333333333	2	0.4599609375
3444.8837890625	0.00833333333333333	0	-30	-4.08333333333333	2	0.49609375
3447.6171875	0.00833333333333333	0	30	5.22708333333333	2	0.474609375
3450.42578125	0.00833333333333333	0	30	5.10208333333333	2	0.38671875
3452.9501953125	0.00833333333333333	0	-30	-4.08333333333333	2	0.4697265625
3455.8173828125	0.00833333333333333	0	30	5.10208333333333	2	0.451171875
3458.6513671875	0.00833333333333333	0	30	5.10208333333333	2	0.353515625
3461.267578125	0.00833333333333333	0	30	5.10208333333333	2	0.3291015625
3463.8505859375	0.00833333333333333	0	30	5.10208333333333	2	0.42578125
3466.642578125	0.00833333333333333	0	30	4.97708333333333	2	0.41015625
3469.5	0.00833333333333333	0	-30	-4.08333333333333	2	0.5205078125
3472.2333984375	0.00833333333333333	0	-30	-4.08333333333333	2	0.8349609375
3475.3505859375	0.00833333333333333	0	-30	-4.20833333333333	1	0.6943359375
3478.25	0.00833333333333333	0	30	4.97708333333333	1	0.619140625
3481.392578125	0.00833333333333333	0	-30	-4.20833333333333	2	0.64453125
3484.4755859375	0.00833333333333333	0	30	4.97708333333333	1	0.529296875
3487.2998046875	0.00833333333333333	0	-30	-4.20833333333333	2	0.666015625
3490.083984375	0.00833333333333333	0	-30	-4.20833333333333	2	0.42578125
3492.7587890625	0.00833333333333333	0	-30	-4.20833333333333	1	0.5341796875
3495.466796875	0.00833333333333333	0	-30	-4.20833333333333	1	0.5390625
3498.341796875	0.00833333333333333	0	30	4.97708333333333	1	0.4638671875
3501.05859375	0.00833333333333333	0	30	4.97708333333333	1	0.779296875
3504.2587890625	0.00833333333333333	0	30	4.97708333333333	1	0.619140625
3506.8916015625	0.00833333333333333	0	30	5.10208333333333	1	0.72265625
3509.783203125	0.00833333333333333	0	-30	-4.20833333333333	1	0.8466796875
3512.9833984375	0.00833333333333333	0	30	5.10208333333333	1	0.654296875
3515.841796875	0.00833333333333333	0	-30	-4.20833333333333	2	0.796875
3518.75	0.00833333333333333	0	-30	-4.20833333333333	2	0.8564453125
3521.666015625	0.00833333333333333	0	30	5.10208333333333	1	0.884765625
3524.8330078125	0.00833333333333333	0	30	5.10208333333333	2	0.5654296875
3527.57421875	0.00833333333333333	0	30	5.10208333333333	2	0.6884765625
3530.3408203125	0.00833333333333333	0	-30	-4.20833333333333	2	0.7294921875
3533.408203125	0.00833333333333333	0	30	5.10208333333333	2	0.7744140625
3536.6826171875	0.00833333333333333	0	30	5.10208333333333	2	0.5400390625
3539.541015625	0.00833333333333333	0	30	5.10208333333333	2	0.4658203125
3542.2333984375	0.00833333333333333	0	-30	-4.20833333333333	2	0.365234375
3545.2080078125	0.00833333333333333	0	30	4.97708333333333	2	0.6875
3548.1171875	0.00833333333333333	0	30	4.97708333333333	2	0.6416015625
3551.1171875	0.00833333333333333	0	-30	-4.20833333333333	2	0.578125
3554.166015625	0.00833333333333333	0	30	4.97708333333333	2	0.4814453125
3556.8076171875	0.00833333333333333	0	-30	-4.33333333333333	2	1.2958984375
3560.33203125	0.00833333333333333	0	-30	-4.33333333333333	2	1.2919921875
3564.1669921875	0.00833333333333333	0	-30	-4.33333333333333	1	0.6806640625
3567.0244140625	0.00833333333333333	0	-30	-4.33333333333333	2	0.607421875
3570.015625	0.00833333333333333	0	30	4.97708333333333	2	0.5439453125
3573.0078125	0.00833333333333333	0	-30	-4.33333333333333	2	0.49609375
3575.798828125	0.00833333333333333	0	30	4.97708333333333	2	0.513671875
3578.798828125	0.00833333333333333	0	30	4.85208333333333	2	0.4970703125
3581.5322265625	0.00833333333333333	0	-30	-4.33333333333333	2	0.404296875
3584.19921875	0.00833333333333333	0	30	4.85208333333333	2	0.5126953125
3586.9990234375	0.00833333333333333	0	-30	-4.33333333333333	2	0.3623046875
3589.96484375	0.00833333333333333	0	-30	-4.33333333333333	2	0.419921875
3592.7900390625	0.00833333333333333	0	30	4.85208333333333	2	0.4111328125
3595.33984375	0.00833333333333333	0	30	4.85208333333333	2	0.4208984375
3597.8564453125	0.00833333333333333	0	30	4.85208333333333	2	0.6083984375
3600.8154296875	0.00833333333333333	0	-30	-4.45833333333333	2	0.865234375
3603.95703125	0.00833333333333333	0	-30	-4.45833333333333	2	1.171875
3607.3994140625	0.00833333333333333	0	30	4.72708333333333	2	1.017578125
3610.4814453125	0.00833333333333333	0	-30	-4.45833333333333	2	1.072265625
3619.20703125	0.00833333333333333	0	-30	-4.45833333333333	2	0.802734375
3622.2646484375	0.00833333333333333	0	30	4.72708333333333	2	1.1455078125
3625.9560546875	0.00833333333333333	0	30	4.72708333333333	1	0.7900390625
3629.2392578125	0.00833333333333333	0	30	4.72708333333333	2	0.6103515625
3632.2900390625	0.00833333333333333	0	30	4.72708333333333	1	0.927734375
3635.3232421875	0.00833333333333333	0	30	4.72708333333333	1	0.6865234375
3638.4228515625	0.00833333333333333	0	30	4.72708333333333	1	0.8037109375
3641.4150390625	0.00833333333333333	0	-30	-4.45833333333333	1	0.5791015625
3644.3232421875	0.00833333333333333	0	30	4.72708333333333	1	0.51171875
3647.0556640625	0.00833333333333333	0	30	4.72708333333333	1	0.4912109375
3650.1064453125	0.00833333333333333	0	-30	-4.45833333333333	1	0.759765625
3653.2236328125	0.00833333333333333	0	-30	-4.45833333333333	1	0.4345703125
3655.8056640625	0.00833333333333333	0	-30	-4.45833333333333	1	0.4931640625
3658.7138671875	0.00833333333333333	0	-30	-4.45833333333333	1	0.46484375
3661.2724609375	0.00833333333333333	0	30	4.85208333333333	1	0.650390625
3664.2392578125	0.00833333333333333	0	-30	-4.33333333333333	1	0.68359375
3667.1904296875	0.00833333333333333	0	30	4.85208333333333	2	0.7490234375
3670.1806640625	0.00833333333333333	0	30	4.85208333333333	1	1.2626953125
3673.7060546875	0.00833333333333333	0	-30	-4.33333333333333	1	0.6171875
3676.47265625	0.00833333333333333	0	30	4.85208333333333	1	0.5224609375
3679.4052734375	0.00833333333333333	0	30	4.85208333333333	2	0.8779296875
3682.9140625	0.00833333333333333	0	30	4.85208333333333	1	0.7939453125
3685.78125	0.00833333333333333	0	30	4.85208333333333	1	0.630859375
3688.796875	0.00833333333333333	0	30	4.85208333333333	1	0.5986328125
3691.947265625	0.00833333333333333	0	30	4.85208333333333	2	0.6484375
3694.921875	0.00833333333333333	0	30	4.85208333333333	1	0.802734375
3698.1640625	0.00833333333333333	0	-30	-4.33333333333333	1	0.6318359375
3701.0966796875	0.00833333333333333	0	30	4.85208333333333	1	0.53125
3703.7890625	0.00833333333333333	0	30	4.85208333333333	2	0.623046875
3706.921875	0.00833333333333333	0	30	4.85208333333333	1	0.7060546875
3709.9306640625	0.00833333333333333	0	-30	-4.33333333333333	1	0.4736328125
3712.8056640625	0.00833333333333333	0	30	4.85208333333333	1	1.1591796875
3716.2392578125	0.00833333333333333	0	-30	-4.33333333333333	1	0.708984375
3719.2802734375	0.00833333333333333	0	-30	-4.20833333333333	1	0.5966796875
3722.296875	0.00833333333333333	0	30	4.85208333333333	1	0.62109375
3725.087890625	0.00833333333333333	0	30	4.85208333333333	1	0.6533203125
3727.98828125	0.00833333333333333	0	-30	-4.20833333333333	1	1.033203125
3731.3212890625	0.00833333333333333	0	30	4.85208333333333	2	0.931640625
3734.74609375	0.00833333333333333	0	-30	-4.20833333333333	2	0.626953125
3738.0126953125	0.00833333333333333	0	-30	-4.20833333333333	1	0.8251953125
3741.0634765625	0.00833333333333333	0	30	4.85208333333333	2	0.6943359375
3744.1220703125	0.00833333333333333	0	30	4.85208333333333	2	1.33203125
3747.837890625	0.00833333333333333	0	-30	-4.20833333333333	1	0.6474609375
3750.61328125	0.00833333333333333	0	-30	-4.20833333333333	1	0.6484375
3753.7548828125	0.00833333333333333	0	-30	-4.20833333333333	2	0.69140625
3757.021484375	0.00833333333333333	0	30	4.85208333333333	1	0.728515625
3759.9375	0.00833333333333333	0	30	4.85208333333333	1	1.236328125
3763.2548828125	0.00833333333333333	0	-30	-4.20833333333333	2	0.6396484375
3766.24609375	0.00833333333333333	0	30	4.85208333333333	1	0.7529296875
3769.1875	0.00833333333333333	0	-30	-4.20833333333333	1	0.962890625
3772.5205078125	0.00833333333333333	0	-30	-4.20833333333333	1	0.9501953125
3775.9296875	0.00833333333333333	0	30	4.85208333333333	1	0.8046875
3779.1298828125	0.00833333333333333	0	-30	-4.20833333333333	1	0.8291015625
3782.462890625	0.00833333333333333	0	30	4.85208333333333	2	0.6962890625
3785.6708984375	0.00833333333333333	0	-30	-4.20833333333333	1	0.8798828125
3788.9453125	0.00833333333333333	0	-30	-4.20833333333333	1	0.7021484375
3791.9287109375	0.00833333333333333	0	-30	-4.08333333333333	2	0.7822265625
3795.0791015625	0.00833333333333333	0	30	4.85208333333333	2	0.6083984375
3798.2958984375	0.00833333333333333	0	-30	-4.08333333333333	2	0.5751953125
3801.2626953125	0.00833333333333333	0	-30	-4.08333333333333	2	0.6328125
3804.12890625	0.00833333333333333	0	30	4.85208333333333	2	0.5107421875
3806.9794921875	0.00833333333333333	0	-30	-4.08333333333333	2	0.484375
3810.021484375	0.00833333333333333	0	-30	-4.08333333333333	2	0.5625
3812.8212890625	0.00833333333333333	0	30	4.85208333333333	2	0.5068359375
3815.8955078125	0.00833333333333333	0	30	4.85208333333333	2	0.49609375
3819.0380859375	0.00833333333333333	0	-30	-4.20833333333333	2	0.44140625
3822.12890625	0.00833333333333333	0	30	4.72708333333333	2	0.439453125
3824.74609375	0.00833333333333333	0	30	4.72708333333333	2	0.478515625
3827.478515625	0.00833333333333333	0	30	4.72708333333333	2	0.6416015625
3830.3212890625	0.00833333333333333	0	-30	-4.20833333333333	2	0.615234375
3833.3876953125	0.00833333333333333	0	30	4.72708333333333	2	0.5244140625
3836.5029296875	0.00833333333333333	0	30	4.72708333333333	2	0.5625
3839.51171875	0.00833333333333333	0	-30	-4.20833333333333	2	0.77734375
3842.8876953125	0.00833333333333333	0	-30	-4.20833333333333	2	0.5693359375
3845.9033203125	0.00833333333333333	0	30	4.60208333333333	1	1.841796875
3849.8779296875	0.00833333333333333	0	-30	-4.20833333333333	1	0.634765625
3852.853515625	0.00833333333333333	0	-30	-4.20833333333333	1	0.603515625
3855.6875	0.00833333333333333	0	30	4.60208333333333	1	0.6015625
3858.8447265625	0.00833333333333333	0	30	4.60208333333333	1	0.564453125
3861.8779296875	0.00833333333333333	0	-30	-4.20833333333333	1	0.7158203125
3877.3369140625	0.00833333333333333	0	-30	-4.20833333333333	1	0.5849609375
3880.169921875	0.00833333333333333	0	30	4.60208333333333	2	0.5283203125
3882.994140625	0.00833333333333333	0	-30	-4.20833333333333	2	0.568359375
3885.65234375	0.00833333333333333	0	-30	-4.20833333333333	1	0.56640625
3888.5029296875	0.00833333333333333	0	-30	-4.20833333333333	1	0.4755859375
3891.427734375	0.00833333333333333	0	-30	-4.20833333333333	1	0.486328125
3894.078125	0.00833333333333333	0	30	4.60208333333333	1	0.556640625
3896.736328125	0.00833333333333333	0	-30	-4.20833333333333	1	0.5546875
3899.5361328125	0.00833333333333333	0	30	4.60208333333333	1	0.5302734375
3902.5859375	0.00833333333333333	0	-30	-4.20833333333333	1	0.4970703125
3905.1865234375	0.00833333333333333	0	-30	-4.08333333333333	1	0.46484375
3908.044921875	0.00833333333333333	0	-30	-4.08333333333333	2	0.7978515625
3911.26953125	0.00833333333333333	0	-30	-4.08333333333333	1	0.5498046875
3914.310546875	0.00833333333333333	0	-30	-4.08333333333333	1	0.46875
3917.302734375	0.00833333333333333	0	30	4.60208333333333	1	0.548828125
3919.9521484375	0.00833333333333333	0	30	4.60208333333333	1	0.5146484375
3922.7353515625	0.00833333333333333	0	-30	-4.08333333333333	1	0.64453125
3925.90234375	0.00833333333333333	0	-30	-4.08333333333333	1	0.62890625
3929.0185546875	0.00833333333333333	0	-30	-4.08333333333333	2	0.5927734375
3931.78515625	0.00833333333333333	0	30	4.60208333333333	1	0.6748046875
3934.96875	0.00833333333333333	0	-30	-4.08333333333333	2	0.771484375
3938.068359375	0.00833333333333333	0	30	4.72708333333333	1	0.87109375
3941.2607421875	0.00833333333333333	0	-30	-4.08333333333333	2	0.599609375
3944.2275390625	0.00833333333333333	0	-30	-4.08333333333333	2	0.640625
3947.259765625	0.00833333333333333	0	-30	-4.08333333333333	2	0.9921875
3950.65234375	0.00833333333333333	0	30	4.72708333333333	2	0.984375
3953.8271484375	0.00833333333333333	0	30	4.72708333333333	2	1.017578125
3957.443359375	0.00833333333333333	0	30	4.72708333333333	2	0.6650390625
3960.5263671875	0.00833333333333333	0	30	4.72708333333333	2	0.5419921875
3963.2099609375	0.00833333333333333	0	-30	-4.20833333333333	2	0.5068359375
3965.96875	0.00833333333333333	0	30	4.72708333333333	2	0.2998046875
3968.4599609375	0.00833333333333333	0	-30	-4.20833333333333	2	0.3369140625
3970.951171875	0.00833333333333333	0	30	4.60208333333333	2	0.326171875
3973.66015625	0.00833333333333333	0	-30	-4.20833333333333	2	0.3046875
3976.0595703125	0.00833333333333333	0	30	4.60208333333333	2	0.28125
3978.7099609375	0.00833333333333333	0	30	4.60208333333333	2	0.3515625
3981.3515625	0.00833333333333333	0	-30	-4.20833333333333	2	0.58984375
3984.4013671875	0.00833333333333333	0	-30	-4.20833333333333	2	0.732421875
3987.576171875	0.00833333333333333	0	30	4.60208333333333	2	0.701171875
3990.7177734375	0.00833333333333333	0	30	4.60208333333333	2	0.5517578125
3993.4267578125	0.00833333333333333	0	-30	-4.33333333333333	2	0.4033203125
3996.267578125	0.00833333333333333	0	30	4.47708333333333	2	0.2822265625
3999.0009765625	0.00833333333333333	0	30	4.47708333333333	2	0.4931640625
4002.076171875	0.00833333333333333	0	-30	-4.33333333333333	2	0.6103515625
4004.9931640625	0.00833333333333333	0	30	4.47708333333333	2	0.61328125
4007.9345703125	0.00833333333333333	0	-30	-4.33333333333333	2	0.751953125
4011.1259765625	0.00833333333333333	0	-30	-4.33333333333333	2	0.392578125
4013.7763671875	0.00833333333333333	0	30	4.47708333333333	2	0.3662109375
4016.30078125	0.00833333333333333	0	30	4.47708333333333	2	0.3701171875
4019.2763671875	0.00833333333333333	0	30	4.35208333333333	2	0.505859375
4022.3427734375	0.00833333333333333	0	30	4.35208333333333	2	0.50390625
4024.9765625	0.00833333333333333	0	-30	-4.33333333333333	2	0.5986328125
4027.775390625	0.00833333333333333	0	-30	-4.45833333333333	2	0.6953125
4031.025390625	0.00833333333333333	0	-30	-4.45833333333333	1	0.662109375
4034.18359375	0.00833333333333333	0	30	4.35208333333333	2	0.5595703125
4037.3173828125	0.00833333333333333	0	-30	-4.45833333333333	1	0.6416015625
4040.375	0.00833333333333333	0	30	4.35208333333333	1	0.6083984375
4043.1337890625	0.00833333333333333	0	-30	-4.45833333333333	1	0.4169921875
4046.03515625	0.00833333333333333	0	-30	-4.45833333333333	1	0.4677734375
4048.78515625	0.00833333333333333	0	30	4.35208333333333	1	0.3505859375
4051.458984375	0.00833333333333333	0	30	4.35208333333333	2	0.6845703125
4054.3583984375	0.00833333333333333	0	30	4.35208333333333	1	0.5927734375
4057.17578125	0.00833333333333333	0	-30	-4.45833333333333	1	0.5361328125
4059.833984375	0.00833333333333333	0	-30	-4.33333333333333	1	0.3095703125
4062.44140625	0.00833333333333333	0	-30	-4.33333333333333	1	0.294921875
4065.2919921875	0.00833333333333333	0	-30	-4.33333333333333	1	0.2197265625
4067.8671875	0.00833333333333333	0	30	4.35208333333333	1	0.380859375
4070.591796875	0.00833333333333333	0	-30	-4.33333333333333	1	0.560546875
4073.56640625	0.00833333333333333	0	-30	-4.33333333333333	1	0.3134765625
4076.4169921875	0.00833333333333333	0	-30	-4.20833333333333	1	0.3671875
4078.875	0.00833333333333333	0	30	4.35208333333333	1	0.4619140625
4081.6669921875	0.00833333333333333	0	30	4.35208333333333	1	0.25390625
4084.3583984375	0.00833333333333333	0	30	4.35208333333333	1	0.322265625
4086.8505859375	0.00833333333333333	0	-30	-4.20833333333333	1	0.390625
4089.599609375	0.00833333333333333	0	-30	-4.20833333333333	1	0.2333984375
4092.44921875	0.00833333333333333	0	30	4.47708333333333	1	0.3115234375
4094.9326171875	0.00833333333333333	0	-30	-4.20833333333333	1	0.3564453125
4097.5498046875	0.00833333333333333	0	-30	-4.20833333333333	1	0.3955078125
4100.1328125	0.00833333333333333	0	30	4.47708333333333	1	0.2919921875
4102.625	0.00833333333333333	0	-30	-4.08333333333333	1	0.224609375
