onset	duration	titr	surround	centre	response	rt
325.208984375	0.00833333333333333	1	-30	-15	2	1.587890625
329.091796875	0.00833333333333333	1	-30	-16	1	1.5859375
332.8173828125	0.00833333333333333	1	30	15	2	0.9794921875
336.19140625	0.00833333333333333	1	-30	-15	1	1.318359375
339.658203125	0.00833333333333333	1	-30	-14	1	0.9150390625
343.0166015625	0.00833333333333333	1	30	14	2	1.30078125
346.400390625	0.00833333333333333	1	NaN	15	2	0.8056640625
349.4580078125	0.00833333333333333	1	30	-15	1	0.8759765625
352.8154296875	0.00833333333333333	1	30	13	2	1.134765625
356.240234375	0.00833333333333333	1	30	12	1	1.6298828125
360	0.00833333333333333	1	-30	-13	1	0.89453125
363.0986328125	0.00833333333333333	1	30	13	2	1.435546875
366.7998046875	0.00833333333333333	1	-30	-12	1	1.1904296875
370.2744140625	0.00833333333333333	1	NaN	14	2	1.6357421875
374.365234375	0.00833333333333333	1	-30	-11	1	1.177734375
377.982421875	0.00833333333333333	1	NaN	-15	1	1.1044921875
381.1328125	0.00833333333333333	1	30	-14	1	2.1376953125
385.3916015625	0.00833333333333333	1	30	-13	1	1.2158203125
388.7158203125	0.00833333333333333	1	NaN	13	2	1.66796875
392.44140625	0.00833333333333333	1	-30	-10	1	1.654296875
396.44921875	0.00833333333333333	1	-30	15	2	1.166015625
399.6982421875	0.00833333333333333	1	NaN	12	2	1.205078125
403.0576171875	0.00833333333333333	1	-30	-9	1	2.1025390625
407.5576171875	0.00833333333333333	1	-30	-8	1	2.1064453125
412.1826171875	0.00833333333333333	1	-30	-7	2	2.25
416.798828125	0.00833333333333333	1	NaN	11	2	1.4248046875
420.3154296875	0.00833333333333333	1	-30	14	2	1.6533203125
424.3486328125	0.00833333333333333	1	NaN	10	2	1.3798828125
428.0322265625	0.00833333333333333	1	NaN	-14	1	0.9765625
431.0322265625	0.00833333333333333	1	-30	13	2	1.16015625
434.2646484375	0.00833333333333333	1	30	-12	1	1.087890625
437.72265625	0.00833333333333333	1	NaN	-13	1	1.1826171875
441.240234375	0.00833333333333333	1	-30	12	2	0.8330078125
444.2734375	0.00833333333333333	1	-30	11	2	1.19140625
447.6064453125	0.00833333333333333	1	-30	-8	2	1.0908203125
450.9482421875	0.00833333333333333	1	30	-11	2	2.0849609375
455.3984375	0.00833333333333333	1	NaN	9	2	1.146484375
458.814453125	0.00833333333333333	1	30	12	1	1.9873046875
462.9404296875	0.00833333333333333	1	-30	10	2	0.8212890625
465.83984375	0.00833333333333333	1	30	13	2	1.658203125
469.6728515625	0.00833333333333333	1	NaN	8	2	1.9365234375
474.005859375	0.00833333333333333	1	-30	-9	1	1.091796875
477.22265625	0.00833333333333333	1	NaN	-12	1	0.8349609375
480.3896484375	0.00833333333333333	1	30	-12	1	0.99609375
483.5400390625	0.00833333333333333	1	-30	-8	2	1.23828125
487.248046875	0.00833333333333333	1	30	-11	1	0.8818359375
490.5146484375	0.00833333333333333	1	-30	9	2	1.0322265625
493.630859375	0.00833333333333333	1	30	12	1	1.1875
496.96484375	0.00833333333333333	1	-30	8	2	0.7822265625
500.0302734375	0.00833333333333333	1	-30	7	2	1.32421875
503.689453125	0.00833333333333333	1	-30	-9	1	1.2890625
507.40625	0.00833333333333333	1	-30	-8	2	1.900390625
511.8056640625	0.00833333333333333	1	NaN	7	2	0.9658203125
515.22265625	0.00833333333333333	1	30	-10	1	0.7490234375
518.2060546875	0.00833333333333333	1	NaN	-11	1	1.7890625
522.322265625	0.00833333333333333	1	-30	6	1	1.6494140625
526.1220703125	0.00833333333333333	1	NaN	6	1	1.44921875
529.9052734375	0.00833333333333333	1	30	13	2	2.6826171875
534.7724609375	0.00833333333333333	1	30	-9	1	0.775390625
538.0556640625	0.00833333333333333	1	NaN	7	2	1.2919921875
541.447265625	0.00833333333333333	1	-30	-9	2	1.4609375
545.3056640625	0.00833333333333333	1	-30	-10	1	2.04296875
549.513671875	0.00833333333333333	1	NaN	6	1	1.146484375
552.9052734375	0.00833333333333333	1	30	12	1	1.0908203125
556.4541015625	0.00833333333333333	1	-30	-9	1	1.0068359375
559.5634765625	0.00833333333333333	1	NaN	7	2	1.361328125
563.197265625	0.00833333333333333	1	30	13	2	1.4951171875
567.1787109375	0.00833333333333333	1	30	-8	1	0.7138671875
570.171875	0.00833333333333333	1	30	12	1	1.4169921875
573.99609375	0.00833333333333333	1	30	-7	1	1.0009765625
577.23046875	0.00833333333333333	1	30	-6	1	1.287109375
580.646484375	0.00833333333333333	1	-30	-8	1	1.4873046875
584.2119140625	0.00833333333333333	1	-30	7	2	0.8095703125
587.1796875	0.00833333333333333	1	-30	6	2	4.7060546875
594.0966796875	0.00833333333333333	1	NaN	6	2	1.3251953125
597.470703125	0.00833333333333333	1	30	13	2	1.5673828125
601.2216796875	0.00833333333333333	1	-30	5	2	1.49609375
604.99609375	0.00833333333333333	1	-30	-7	2	2.146484375
609.2548828125	0.00833333333333333	1	NaN	5	1	2.1591796875
613.779296875	0.00833333333333333	1	NaN	-10	1	1.5556640625
617.6796875	0.00833333333333333	1	NaN	6	2	1.4150390625
621.4375	0.00833333333333333	1	NaN	5	2	1.8017578125
731.2265625	0.00833333333333333	1	-30	4	2	0.7275390625
734.244140625	0.00833333333333333	1	NaN	-9	1	0.5419921875
736.9853515625	0.00833333333333333	1	-30	3	2	0.6572265625
739.6357421875	0.00833333333333333	1	NaN	4	2	1.0791015625
742.8857421875	0.00833333333333333	1	NaN	3	2	1.1650390625
746.51953125	0.00833333333333333	1	30	-5	1	0.69140625
749.494140625	0.00833333333333333	1	-30	2	2	0.7890625
752.744140625	0.00833333333333333	1	-30	-8	2	0.8984375
755.8359375	0.00833333333333333	1	NaN	-8	1	0.8955078125
758.84375	0.00833333333333333	1	NaN	-7	1	0.87890625
762.134765625	0.00833333333333333	1	NaN	2	2	0.97265625
765.3857421875	0.00833333333333333	1	NaN	1	1	1.009765625
768.4521484375	0.00833333333333333	1	30	-4	1	0.7109375
771.6025390625	0.00833333333333333	1	-30	1	2	0.6728515625
774.7431640625	0.00833333333333333	1	NaN	-6	1	0.7001953125
777.7939453125	0.00833333333333333	1	NaN	2	1	0.8974609375
780.8935546875	0.00833333333333333	1	-30	-9	1	0.9267578125
783.9853515625	0.00833333333333333	1	NaN	3	1	0.6669921875
786.693359375	0.00833333333333333	1	-30	-8	1	0.791015625
789.6845703125	0.00833333333333333	1	-30	-7	1	0.82421875
792.6181640625	0.00833333333333333	1	-30	0	1	0.650390625
795.384765625	0.00833333333333333	1	-30	1	2	0.5712890625
798.3515625	0.00833333333333333	1	-30	-6	2	0.541015625
801.1923828125	0.00833333333333333	1	-30	0	2	1.251953125
804.8603515625	0.00833333333333333	1	30	-3	1	0.6884765625
807.79296875	0.00833333333333333	1	30	-2	1	0.916015625
810.8017578125	0.00833333333333333	1	-30	-1	2	1.05078125
814.29296875	0.00833333333333333	1	30	-1	1	0.6875
817.443359375	0.00833333333333333	1	30	0	1	0.673828125
820.3349609375	0.00833333333333333	1	-30	-2	2	1.3818359375
823.943359375	0.00833333333333333	1	30	1	1	0.837890625
827.134765625	0.00833333333333333	1	NaN	-5	1	1.0224609375
830.4091796875	0.00833333333333333	1	NaN	4	2	0.755859375
833.30859375	0.00833333333333333	1	30	2	1	0.880859375
836.5673828125	0.00833333333333333	1	-30	-3	2	0.8701171875
839.6513671875	0.00833333333333333	1	-30	-4	1	0.70703125
842.7177734375	0.00833333333333333	1	NaN	3	1	0.576171875
845.4677734375	0.00833333333333333	1	NaN	-4	1	0.7861328125
848.4921875	0.00833333333333333	1	NaN	-3	1	0.833984375
851.734375	0.00833333333333333	1	NaN	-2	1	0.6953125
854.80078125	0.00833333333333333	1	NaN	-1	1	0.5576171875
857.80078125	0.00833333333333333	1	NaN	0	1	1.109375
860.9677734375	0.00833333333333333	1	-30	-3	1	2.0546875
865.158203125	0.00833333333333333	1	NaN	1	1	1.0966796875
868.7255859375	0.00833333333333333	1	NaN	2	1	0.9765625
872.0751953125	0.00833333333333333	1	NaN	4	2	0.587890625
874.80859375	0.00833333333333333	1	NaN	3	2	0.8056640625
877.8994140625	0.00833333333333333	1	30	3	1	0.68359375
880.650390625	0.00833333333333333	1	30	4	1	0.716796875
883.5166015625	0.00833333333333333	1	NaN	2	2	0.642578125
886.416015625	0.00833333333333333	1	-30	-2	2	0.6953125
889.1748046875	0.00833333333333333	1	NaN	1	1	0.6484375
892.3583984375	0.00833333333333333	1	-30	-3	2	0.6572265625
895.1337890625	0.00833333333333333	1	NaN	2	1	0.841796875
898.31640625	0.00833333333333333	1	30	5	1	1.076171875
901.8583984375	0.00833333333333333	1	30	6	1	0.853515625
905.1171875	0.00833333333333333	1	NaN	3	2	1.1064453125
908.7412109375	0.00833333333333333	1	NaN	2	2	0.626953125
911.732421875	0.00833333333333333	1	30	7	1	0.9794921875
914.8583984375	0.00833333333333333	1	30	8	2	0.837890625
918.216796875	0.00833333333333333	1	30	7	1	0.7197265625
921.30859375	0.00833333333333333	1	30	8	1	0.9638671875
924.3076171875	0.00833333333333333	1	NaN	1	1	1.1171875
927.6083984375	0.00833333333333333	1	30	9	2	0.8642578125
930.625	0.00833333333333333	1	-30	-4	2	0.671875
933.625	0.00833333333333333	1	-30	-5	2	0.7841796875
936.6494140625	0.00833333333333333	1	NaN	2	2	0.7509765625
939.69921875	0.00833333333333333	1	30	8	2	0.861328125
942.615234375	0.00833333333333333	1	30	7	2	0.8896484375
945.96484375	0.00833333333333333	1	-30	-6	2	0.67578125
949.033203125	0.00833333333333333	1	-30	-7	2	1
952.57421875	0.00833333333333333	1	-30	-8	1	1.458984375
956.3154296875	0.00833333333333333	1	-30	-7	2	0.830078125
959.5908203125	0.00833333333333333	1	-30	-8	2	0.73828125
962.548828125	0.00833333333333333	1	NaN	1	2	0.8212890625
965.8662109375	0.00833333333333333	1	NaN	0	2	1.583984375
969.6494140625	0.00833333333333333	1	NaN	-1	1	0.6640625
972.541015625	0.00833333333333333	1	30	6	1	0.876953125
975.732421875	0.00833333333333333	1	30	7	1	0.8212890625
978.69921875	0.00833333333333333	1	NaN	0	2	0.7509765625
982.07421875	0.00833333333333333	1	-30	-9	1	0.7197265625
985.0078125	0.00833333333333333	1	NaN	-1	1	0.6748046875
988.08984375	0.00833333333333333	1	30	8	1	1.3046875
991.70703125	0.00833333333333333	1	-30	-8	1	0.7119140625
994.681640625	0.00833333333333333	1	-30	-7	1	0.8486328125
997.640625	0.00833333333333333	1	-30	-6	2	0.6103515625
1000.3818359375	0.00833333333333333	1	30	9	1	1.0048828125
1003.7734375	0.00833333333333333	1	NaN	0	1	0.837890625
1007.015625	0.00833333333333333	1	NaN	1	1	0.6669921875
1009.83203125	0.00833333333333333	1	NaN	2	1	1.3955078125
1013.673828125	0.00833333333333333	1	30	10	2	0.75390625
1016.755859375	0.00833333333333333	1	NaN	3	2	0.775390625
1019.6904296875	0.00833333333333333	1	30	9	1	1.0732421875
1022.9228515625	0.00833333333333333	1	NaN	2	1	0.81640625
1025.740234375	0.00833333333333333	1	30	10	1	1.0634765625
1029.1484375	0.00833333333333333	1	30	11	2	0.759765625
1084.1396484375	0.00833333333333333	1	30	10	2	0.8583984375
1087.4892578125	0.00833333333333333	1	30	9	2	0.732421875
1090.447265625	0.00833333333333333	1	30	8	2	0.974609375
1093.697265625	0.00833333333333333	1	30	7	2	0.98828125
1096.904296875	0.00833333333333333	1	30	6	1	0.6533203125
1099.755859375	0.00833333333333333	1	30	10	2	0.7138671875
1102.697265625	0.00833333333333333	1	NaN	2.83333333333333	2	0.8134765625
1105.830078125	0.00833333333333333	1	NaN	1.83333333333333	1	0.6083984375
1108.8720703125	0.00833333333333333	1	-30	-6.58333333333333	1	1.2626953125
1112.1474609375	0.00833333333333333	1	-30	-7.58333333333333	2	1.2431640625
1115.455078125	0.00833333333333333	1	30	9.875	1	1.53515625
1119.2470703125	0.00833333333333333	1	NaN	1.95833333333333	1	0.720703125
1122.0126953125	0.00833333333333333	1	30	11	1	0.890625
1125.3798828125	0.00833333333333333	1	-30	-7.70833333333333	1	0.8271484375
1128.580078125	0.00833333333333333	1	-30	-7.58333333333333	2	0.8359375
1131.7138671875	0.00833333333333333	1	-30	-7.70833333333333	2	0.61328125
1134.4384765625	0.00833333333333333	1	NaN	2.70833333333333	2	0.5849609375
1137.521484375	0.00833333333333333	1	-30	-6.45833333333333	1	0.765625
1140.6220703125	0.00833333333333333	1	NaN	2.58333333333333	2	0.6337890625
1143.36328125	0.00833333333333333	1	30	10	2	0.66796875
1146.4794921875	0.00833333333333333	1	30	11.125	2	0.759765625
1149.4951171875	0.00833333333333333	1	30	9.875	2	0.640625
1152.5380859375	0.00833333333333333	1	-30	-7.83333333333333	1	0.7822265625
1155.587890625	0.00833333333333333	1	30	9.75	2	1.15625
1158.845703125	0.00833333333333333	1	30	11	1	0.9541015625
1161.8798828125	0.00833333333333333	1	30	11.125	2	0.8720703125
1165.0458984375	0.00833333333333333	1	NaN	2.45833333333333	1	1.322265625
1168.5791015625	0.00833333333333333	1	-30	-6.33333333333333	2	2.2451171875
1172.955078125	0.00833333333333333	1	-30	-6.45833333333333	2	1.4453125
1176.9375	0.00833333333333333	1	-30	-6.58333333333333	1	0.9990234375
1180.470703125	0.00833333333333333	1	NaN	2.08333333333333	2	0.8740234375
1183.6962890625	0.00833333333333333	1	NaN	2.58333333333333	2	0.6728515625
1186.9365234375	0.00833333333333333	1	-30	-7.70833333333333	2	0.6962890625
1190.2041015625	0.00833333333333333	1	NaN	2.45833333333333	1	1.861328125
1194.3544921875	0.00833333333333333	1	NaN	1.95833333333333	2	2.302734375
1198.7041015625	0.00833333333333333	1	30	11	2	1.193359375
1202.0458984375	0.00833333333333333	1	30	9.625	2	1.3876953125
1205.8291015625	0.00833333333333333	1	-30	-7.83333333333333	1	1.5087890625
1209.5537109375	0.00833333333333333	1	NaN	1.83333333333333	2	1.2314453125
1212.9033203125	0.00833333333333333	1	30	10.875	1	2.1142578125
1217.287109375	0.00833333333333333	1	NaN	1.70833333333333	1	0.73046875
1220.0869140625	0.00833333333333333	1	30	9.5	2	0.8994140625
1223.4951171875	0.00833333333333333	1	NaN	1.83333333333333	1	0.7626953125
1226.328125	0.00833333333333333	1	-30	-6.45833333333333	2	2.5546875
1231.3525390625	0.00833333333333333	1	30	11	1	2.345703125
1236.0361328125	0.00833333333333333	1	NaN	2.58333333333333	2	0.5185546875
1238.6357421875	0.00833333333333333	1	30	11.125	2	0.8623046875
1241.970703125	0.00833333333333333	1	NaN	1.95833333333333	2	0.728515625
1245.177734375	0.00833333333333333	1	-30	-7.70833333333333	1	0.76953125
1248.2451171875	0.00833333333333333	1	NaN	1.83333333333333	2	0.75
1251.26171875	0.00833333333333333	1	-30	-6.58333333333333	2	0.6533203125
1254.1201171875	0.00833333333333333	1	30	11	2	0.7470703125
1257.38671875	0.00833333333333333	1	NaN	1.70833333333333	2	0.880859375
1260.7119140625	0.00833333333333333	1	NaN	1.58333333333333	1	0.787109375
1263.51171875	0.00833333333333333	1	30	10.875	2	0.84375
1266.3369140625	0.00833333333333333	1	NaN	2.45833333333333	1	1.05078125
1269.611328125	0.00833333333333333	1	-30	-7.58333333333333	1	0.919921875
1272.626953125	0.00833333333333333	1	NaN	1.70833333333333	2	0.96875
1276.03515625	0.00833333333333333	1	30	9.375	1	0.720703125
1278.994140625	0.00833333333333333	1	NaN	2.58333333333333	1	0.7939453125
1281.876953125	0.00833333333333333	1	30	9.5	1	1.119140625
1285.427734375	0.00833333333333333	1	30	9.625	1	1
1288.861328125	0.00833333333333333	1	-30	-7.45833333333333	1	0.974609375
1292.052734375	0.00833333333333333	1	NaN	2.70833333333333	1	0.671875
1294.861328125	0.00833333333333333	1	NaN	2.83333333333333	1	0.791015625
1297.79296875	0.00833333333333333	1	NaN	1.58333333333333	1	0.859375
1300.828125	0.00833333333333333	1	-30	-7.33333333333333	1	0.80859375
1304.09375	0.00833333333333333	1	-30	-6.70833333333333	2	1.0625
1307.65234375	0.00833333333333333	1	30	9.75	2	0.880859375
1310.634765625	0.00833333333333333	1	NaN	1.70833333333333	1	0.681640625
1313.4443359375	0.00833333333333333	1	-30	-7.20833333333333	1	1.13671875
1317.0107421875	0.00833333333333333	1	NaN	1.83333333333333	1	1.07421875
1320.41015625	0.00833333333333333	1	-30	-7.08333333333333	2	0.9951171875
1323.7353515625	0.00833333333333333	1	30	10.75	1	1.2216796875
1326.9521484375	0.00833333333333333	1	-30	-7.20833333333333	1	1.181640625
1330.4609375	0.00833333333333333	1	NaN	2.95833333333333	1	2.1611328125
1335.0107421875	0.00833333333333333	1	-30	-6.83333333333333	1	0.970703125
1338.2021484375	0.00833333333333333	1	30	9.625	2	1.0517578125
1341.53515625	0.00833333333333333	1	30	9.5	1	0.806640625
1344.5517578125	0.00833333333333333	1	NaN	1.95833333333333	1	0.982421875
1348.0849609375	0.00833333333333333	1	NaN	2.08333333333333	1	1.609375
1351.810546875	0.00833333333333333	1	NaN	3.08333333333333	1	1.53125
1355.52734375	0.00833333333333333	1	-30	-7.08333333333333	2	0.87890625
1358.5595703125	0.00833333333333333	1	NaN	3.20833333333333	1	1.1904296875
1361.78515625	0.00833333333333333	1	30	10.875	2	0.7412109375
1364.568359375	0.00833333333333333	1	30	10.75	2	0.88671875
1367.8681640625	0.00833333333333333	1	30	9.625	2	1.1630859375
1371.4013671875	0.00833333333333333	1	-30	-7.20833333333333	1	0.7412109375
1374.41796875	0.00833333333333333	1	NaN	3.33333333333333	1	1.0048828125
1377.78515625	0.00833333333333333	1	-30	-6.70833333333333	1	0.89453125
1380.701171875	0.00833333333333333	1	NaN	2.20833333333333	1	0.666015625
1383.78515625	0.00833333333333333	1	30	9.5	1	0.734375
1470.7333984375	0.00833333333333333	1	NaN	2.33333333333333	2	2.205078125
1475.4833984375	0.00833333333333333	1	30	10.625	2	1.7109375
1479.4248046875	0.00833333333333333	1	NaN	3.45833333333333	2	1.9052734375
1483.7998046875	0.00833333333333333	1	NaN	2.20833333333333	2	1.03515625
1487.0986328125	0.00833333333333333	1	NaN	3.33333333333333	2	0.6962890625
1490.19140625	0.00833333333333333	1	-30	-7.08333333333333	2	0.71484375
1493.2001953125	0.00833333333333333	1	NaN	2.08333333333333	2	0.826171875
1496.3916015625	0.00833333333333333	1	-30	-6.58333333333333	2	0.70703125
1499.6650390625	0.00833333333333333	1	30	10.5	2	0.8984375
1502.7744140625	0.00833333333333333	1	NaN	3.20833333333333	2	0.6123046875
1505.5	0.00833333333333333	1	NaN	1.95833333333333	2	0.8076171875
1508.4326171875	0.00833333333333333	1	30	9.625	1	1.3388671875
1511.7998046875	0.00833333333333333	1	NaN	1.83333333333333	2	0.580078125
1514.5166015625	0.00833333333333333	1	30	9.75	1	2.22265625
1519.166015625	0.00833333333333333	1	-30	-7.20833333333333	2	0.8291015625
1522.19921875	0.00833333333333333	1	NaN	1.70833333333333	2	1.1728515625
1525.748046875	0.00833333333333333	1	NaN	1.58333333333333	1	0.8798828125
1529.015625	0.00833333333333333	1	NaN	1.70833333333333	2	1.140625
1532.390625	0.00833333333333333	1	NaN	1.58333333333333	1	0.685546875
1535.2412109375	0.00833333333333333	1	-30	-7.33333333333333	2	0.7392578125
1538.3994140625	0.00833333333333333	1	NaN	3.08333333333333	1	0.6611328125
1541.3828125	0.00833333333333333	1	NaN	3.20833333333333	2	1.013671875
1544.8076171875	0.00833333333333333	1	NaN	1.70833333333333	2	0.9091796875
1547.9990234375	0.00833333333333333	1	NaN	3.08333333333333	2	0.7578125
1551.0986328125	0.00833333333333333	1	-30	-7.45833333333333	2	0.75390625
1554.0810546875	0.00833333333333333	1	-30	-6.70833333333333	2	1.01953125
1557.58203125	0.00833333333333333	1	NaN	2.95833333333333	2	0.7666015625
1560.5576171875	0.00833333333333333	1	-30	-6.83333333333333	2	0.6796875
1563.3740234375	0.00833333333333333	1	30	10.375	2	1.19921875
1566.982421875	0.00833333333333333	1	30	10.25	1	1.4228515625
1570.8154296875	0.00833333333333333	1	-30	-6.95833333333333	2	0.9658203125
1574.1240234375	0.00833333333333333	1	30	10.375	1	1.08984375
1577.4990234375	0.00833333333333333	1	-30	-7.58333333333333	2	0.794921875
1580.46484375	0.00833333333333333	1	NaN	2.83333333333333	2	0.7724609375
1583.6318359375	0.00833333333333333	1	NaN	2.70833333333333	1	1.7099609375
1587.71484375	0.00833333333333333	1	30	9.875	2	0.8193359375
1590.623046875	0.00833333333333333	1	30	10.5	2	0.6552734375
1593.4482421875	0.00833333333333333	1	30	9.75	1	0.8701171875
1596.53125	0.00833333333333333	1	NaN	2.83333333333333	2	0.7470703125
1599.689453125	0.00833333333333333	1	NaN	2.70833333333333	2	0.6611328125
1602.556640625	0.00833333333333333	1	NaN	2.58333333333333	2	0.8095703125
1605.4306640625	0.00833333333333333	1	30	10.375	2	0.9033203125
1608.8056640625	0.00833333333333333	1	NaN	2.45833333333333	2	0.5927734375
1611.4814453125	0.00833333333333333	1	30	10.25	2	1.7890625
1615.705078125	0.00833333333333333	1	30	10.125	1	0.8212890625
1618.6884765625	0.00833333333333333	1	30	9.875	2	0.662109375
1621.48828125	0.00833333333333333	1	NaN	1.58333333333333	2	1.2626953125
1625.08984375	0.00833333333333333	1	NaN	2.33333333333333	2	0.876953125
1628.08984375	0.00833333333333333	1	NaN	2.20833333333333	1	0.8369140625
1631.130859375	0.00833333333333333	1	30	9.75	2	1.029296875
1634.6474609375	0.00833333333333333	1	-30	-7.70833333333333	2	1.0234375
1638.15625	0.00833333333333333	1	NaN	1.45833333333333	1	1.04296875
1641.4306640625	0.00833333333333333	1	30	10.25	2	1.4248046875
1645.1728515625	0.00833333333333333	1	30	9.625	1	0.6748046875
1648.2724609375	0.00833333333333333	1	NaN	2.33333333333333	1	2.4072265625
1653.1640625	0.00833333333333333	1	30	10.125	1	1.0439453125
1656.6884765625	0.00833333333333333	1	NaN	1.58333333333333	1	0.767578125
1659.4892578125	0.00833333333333333	1	NaN	2.45833333333333	2	0.87109375
1662.763671875	0.00833333333333333	1	-30	-7.08333333333333	1	0.7568359375
1665.6220703125	0.00833333333333333	1	-30	-6.95833333333333	1	0.72265625
1668.505859375	0.00833333333333333	1	30	10.25	1	0.638671875
1671.4970703125	0.00833333333333333	1	NaN	2.33333333333333	1	0.83203125
1674.60546875	0.00833333333333333	1	NaN	2.45833333333333	1	1.05078125
1678.11328125	0.00833333333333333	1	-30	-7.83333333333333	1	0.7119140625
1681.0302734375	0.00833333333333333	1	-30	-7.70833333333333	1	0.7548828125
1683.845703125	0.00833333333333333	1	NaN	2.58333333333333	2	0.546875
1686.7470703125	0.00833333333333333	1	-30	-6.83333333333333	1	1.7978515625
1690.5302734375	0.00833333333333333	1	NaN	1.70833333333333	1	0.5908203125
1693.6298828125	0.00833333333333333	1	30	9.75	1	0.7236328125
1696.8134765625	0.00833333333333333	1	NaN	2.45833333333333	1	0.611328125
1699.8720703125	0.00833333333333333	1	-30	-6.70833333333333	2	0.77734375
1702.9970703125	0.00833333333333333	1	NaN	1.83333333333333	1	0.6689453125
1706.0634765625	0.00833333333333333	1	-30	-7.58333333333333	1	0.7060546875
1708.8125	0.00833333333333333	1	-30	-7.45833333333333	1	0.708984375
1711.763671875	0.00833333333333333	1	-30	-6.83333333333333	2	0.845703125
1714.671875	0.00833333333333333	1	-30	-6.95833333333333	2	0.7939453125
1717.705078125	0.00833333333333333	1	30	9.875	2	0.9931640625
1721.1796875	0.00833333333333333	1	NaN	1.95833333333333	2	1.1259765625
1724.4208984375	0.00833333333333333	1	30	9.75	2	1.021484375
1727.8798828125	0.00833333333333333	1	30	9.625	2	2.0029296875
1732.021484375	0.00833333333333333	1	NaN	1.83333333333333	2	1.6845703125
1736.0205078125	0.00833333333333333	1	-30	-7.33333333333333	2	0.7265625
1739.1708984375	0.00833333333333333	1	30	10.375	2	0.759765625
1742.11328125	0.00833333333333333	1	-30	-7.45833333333333	2	0.6416015625
1745.26171875	0.00833333333333333	1	-30	-7.08333333333333	2	0.9169921875
1748.669921875	0.00833333333333333	1	30	9.5	2	0.9013671875
1751.9541015625	0.00833333333333333	1	30	9.375	2	1.0732421875
1755.0791015625	0.00833333333333333	1	30	9.25	1	0.67578125
1757.8544921875	0.00833333333333333	1	NaN	1.70833333333333	1	0.8046875
1760.662109375	0.00833333333333333	1	NaN	1.83333333333333	1	0.78125
1763.654296875	0.00833333333333333	1	-30	-7.20833333333333	1	0.845703125
1766.587890625	0.00833333333333333	1	-30	-7.08333333333333	1	0.6796875
1769.4453125	0.00833333333333333	1	30	10.25	1	0.7265625
1859.27734375	0.00833333333333333	1	NaN	1.95833333333333	2	0.9609375
1862.7197265625	0.00833333333333333	1	30	9.375	2	0.7265625
1865.560546875	0.00833333333333333	1	30	9.25	1	1.5498046875
1869.1611328125	0.00833333333333333	1	-30	-7.58333333333333	2	0.677734375
1872.177734375	0.00833333333333333	1	30	10.375	2	0.7255859375
1875.111328125	0.00833333333333333	1	-30	-6.95833333333333	2	0.5673828125
1877.8271484375	0.00833333333333333	1	-30	-7.70833333333333	1	1.15625
1881.3857421875	0.00833333333333333	1	-30	-7.08333333333333	2	0.59765625
1884.0439453125	0.00833333333333333	1	-30	-7.58333333333333	2	0.69140625
1886.96875	0.00833333333333333	1	-30	-7.20833333333333	2	0.54296875
1890.0361328125	0.00833333333333333	1	-30	-7.33333333333333	2	0.5634765625
1892.9189453125	0.00833333333333333	1	-30	-7.45833333333333	2	0.5458984375
1895.935546875	0.00833333333333333	1	-30	-7.70833333333333	2	0.82421875
1898.9853515625	0.00833333333333333	1	-30	-7.83333333333333	2	0.58203125
1901.8681640625	0.00833333333333333	1	-30	-7.58333333333333	2	0.580078125
1904.9521484375	0.00833333333333333	1	-30	-7.70833333333333	1	1.056640625
1908.318359375	0.00833333333333333	1	-30	-7.95833333333333	1	0.833984375
1911.560546875	0.00833333333333333	1	-30	-7.58333333333333	2	1
1914.693359375	0.00833333333333333	1	-30	-7.70833333333333	2	0.890625
1917.859375	0.00833333333333333	1	-30	-7.83333333333333	2	0.6455078125
1920.8271484375	0.00833333333333333	1	-30	-7.95833333333333	1	1.5419921875
1924.5263671875	0.00833333333333333	1	-30	-7.83333333333333	2	0.75390625
1927.6435546875	0.00833333333333333	1	-30	-7.95833333333333	1	0.62890625
1930.509765625	0.00833333333333333	1	-30	-7.83333333333333	2	0.5869140625
1933.1513671875	0.00833333333333333	0	-30	-7.44583333333333	2	0.9775390625
1936.4765625	0.00833333333333333	0	30	9.99375	2	0.6533203125
1939.3095703125	0.00833333333333333	0	30	9.99375	2	1.251953125
1942.9931640625	0.00833333333333333	0	-30	-7.44583333333333	1	0.6806640625
1945.876953125	0.00833333333333333	0	-30	-7.44583333333333	2	0.62890625
1948.6591796875	0.00833333333333333	0	-30	-7.44583333333333	2	0.7744140625
1951.4599609375	0.00833333333333333	0	30	9.99375	2	0.60546875
1954.234375	0.00833333333333333	0	30	9.99375	2	0.8310546875
1957.4931640625	0.00833333333333333	0	30	9.99375	2	0.6923828125
1960.576171875	0.00833333333333333	0	-30	-7.44583333333333	2	1.2978515625
1964.201171875	0.00833333333333333	0	30	9.86875	2	0.896484375
1967.5849609375	0.00833333333333333	0	30	9.86875	2	1.12109375
1970.9765625	0.00833333333333333	0	30	9.86875	2	0.9853515625
1974.29296875	0.00833333333333333	0	30	9.86875	2	1.0048828125
1977.6513671875	0.00833333333333333	0	-30	-7.44583333333333	2	0.9267578125
1980.91796875	0.00833333333333333	0	-30	-7.44583333333333	2	1.1962890625
1984.1923828125	0.00833333333333333	0	-30	-7.57083333333333	2	1.2021484375
1987.708984375	0.00833333333333333	0	-30	-7.57083333333333	2	1.3095703125
1991.2421875	0.00833333333333333	0	30	9.86875	1	0.8642578125
1994.267578125	0.00833333333333333	0	-30	-7.57083333333333	2	0.958984375
1997.4833984375	0.00833333333333333	0	-30	-7.57083333333333	2	1.583984375
2001.158203125	0.00833333333333333	0	30	9.86875	2	0.9169921875
2004.2509765625	0.00833333333333333	0	-30	-7.57083333333333	2	0.8720703125
2007.1923828125	0.00833333333333333	0	-30	-7.69583333333333	2	1.203125
2010.6923828125	0.00833333333333333	0	-30	-7.69583333333333	1	1.0068359375
2013.9091796875	0.00833333333333333	0	30	9.86875	2	1.1748046875
2017.125	0.00833333333333333	0	30	9.86875	2	0.8388671875
2020.216796875	0.00833333333333333	0	-30	-7.69583333333333	2	0.9951171875
2023.42578125	0.00833333333333333	0	30	9.86875	2	0.810546875
2026.80859375	0.00833333333333333	0	-30	-7.69583333333333	2	0.8193359375
2029.8505859375	0.00833333333333333	0	30	9.86875	2	23.9306640625
2055.9248046875	0.00833333333333333	0	30	9.74375	2	3.736328125
2061.7568359375	0.00833333333333333	0	30	9.74375	2	1.408203125
2065.2666015625	0.00833333333333333	0	-30	-7.69583333333333	1	0.8671875
2068.6240234375	0.00833333333333333	0	-30	-7.69583333333333	1	1.173828125
2071.8662109375	0.00833333333333333	0	-30	-7.69583333333333	1	1.099609375
2075.32421875	0.00833333333333333	0	-30	-7.69583333333333	1	0.9853515625
2078.7080078125	0.00833333333333333	0	-30	-7.69583333333333	2	1.09765625
2081.94140625	0.00833333333333333	0	30	9.74375	2	1.056640625
2085.291015625	0.00833333333333333	0	-30	-7.69583333333333	2	1.130859375
2088.5908203125	0.00833333333333333	0	30	9.74375	2	1.2236328125
2091.9404296875	0.00833333333333333	0	-30	-7.69583333333333	2	2.193359375
2096.357421875	0.00833333333333333	0	30	9.74375	2	2.7607421875
2101.599609375	0.00833333333333333	0	-30	-7.69583333333333	2	2.3193359375
2106.1494140625	0.00833333333333333	0	30	9.61875	1	1.7451171875
2109.923828125	0.00833333333333333	0	30	9.61875	2	0.6669921875
2112.732421875	0.00833333333333333	0	-30	-7.69583333333333	2	0.7060546875
2115.8984375	0.00833333333333333	0	-30	-7.82083333333333	1	1.5009765625
2119.8994140625	0.00833333333333333	0	-30	-7.82083333333333	2	1.443359375
2123.5908203125	0.00833333333333333	0	30	9.61875	2	0.7607421875
2126.765625	0.00833333333333333	0	30	9.61875	2	0.6337890625
2129.7978515625	0.00833333333333333	0	30	9.61875	2	0.625
2132.45703125	0.00833333333333333	0	-30	-7.82083333333333	1	0.7587890625
2135.556640625	0.00833333333333333	0	30	9.61875	1	0.7392578125
2138.6064453125	0.00833333333333333	0	-30	-7.82083333333333	2	1.0654296875
2141.990234375	0.00833333333333333	0	30	9.61875	1	1.3935546875
2145.748046875	0.00833333333333333	0	30	9.61875	2	0.8916015625
2148.9150390625	0.00833333333333333	0	-30	-7.82083333333333	1	0.61328125
2152.0654296875	0.00833333333333333	0	30	9.61875	1	0.5830078125
2154.96484375	0.00833333333333333	0	30	9.61875	1	0.6513671875
2157.673828125	0.00833333333333333	0	30	9.61875	1	0.6064453125
2160.615234375	0.00833333333333333	0	30	9.61875	1	0.705078125
2163.7314453125	0.00833333333333333	0	30	9.61875	1	0.8125
2166.9736328125	0.00833333333333333	0	-30	-7.82083333333333	1	0.8193359375
2170.1318359375	0.00833333333333333	0	30	9.74375	1	0.6611328125
2172.8984375	0.00833333333333333	0	30	9.74375	1	1.0302734375
2176.15625	0.00833333333333333	0	30	9.74375	1	0.4765625
2179.0234375	0.00833333333333333	0	30	9.74375	1	0.4736328125
2181.9482421875	0.00833333333333333	0	30	9.74375	1	1.30859375
2185.6884765625	0.00833333333333333	0	30	9.86875	2	0.728515625
2188.46484375	0.00833333333333333	0	-30	-7.82083333333333	1	0.9765625
2191.865234375	0.00833333333333333	0	30	9.86875	2	0.65625
2194.71484375	0.00833333333333333	0	-30	-7.82083333333333	1	0.654296875
2197.72265625	0.00833333333333333	0	30	9.86875	1	0.8310546875
2200.623046875	0.00833333333333333	0	-30	-7.82083333333333	1	0.6748046875
2203.439453125	0.00833333333333333	0	-30	-7.69583333333333	1	0.9306640625
2206.36328125	0.00833333333333333	0	-30	-7.69583333333333	1	0.7099609375
2209.072265625	0.00833333333333333	0	-30	-7.69583333333333	1	0.6494140625
2212.130859375	0.00833333333333333	0	30	9.86875	1	0.6875
2214.8642578125	0.00833333333333333	0	-30	-7.69583333333333	1	0.7138671875
2308.1962890625	0.00833333333333333	0	30	9.86875	2	0.873046875
2311.404296875	0.00833333333333333	0	-30	-7.69583333333333	1	0.80078125
2314.4130859375	0.00833333333333333	0	-30	-7.57083333333333	2	0.728515625
2317.4130859375	0.00833333333333333	0	-30	-7.57083333333333	2	0.904296875
2320.5380859375	0.00833333333333333	0	-30	-7.57083333333333	1	0.9873046875
2323.587890625	0.00833333333333333	0	-30	-7.57083333333333	1	0.8974609375
2326.720703125	0.00833333333333333	0	-30	-7.57083333333333	2	0.693359375
2329.529296875	0.00833333333333333	0	-30	-7.57083333333333	2	0.724609375
2332.3623046875	0.00833333333333333	0	30	9.86875	2	0.9794921875
2335.62109375	0.00833333333333333	0	-30	-7.57083333333333	2	0.8251953125
2338.978515625	0.00833333333333333	0	30	9.86875	2	0.7314453125
2341.8291015625	0.00833333333333333	0	30	9.86875	2	0.705078125
2344.970703125	0.00833333333333333	0	30	9.86875	2	0.7080078125
2348.095703125	0.00833333333333333	0	30	9.74375	2	0.982421875
2351.3623046875	0.00833333333333333	0	-30	-7.57083333333333	1	0.99609375
2354.4541015625	0.00833333333333333	0	30	9.74375	2	0.6640625
2357.419921875	0.00833333333333333	0	-30	-7.57083333333333	2	0.72265625
2360.470703125	0.00833333333333333	0	30	9.74375	2	1.408203125
2364.203125	0.00833333333333333	0	30	9.74375	2	1.02734375
2367.5205078125	0.00833333333333333	0	-30	-7.57083333333333	2	0.6943359375
2370.537109375	0.00833333333333333	0	-30	-7.57083333333333	2	0.837890625
2373.720703125	0.00833333333333333	0	-30	-7.57083333333333	2	0.9423828125
2377.0537109375	0.00833333333333333	0	-30	-7.57083333333333	2	0.7294921875
2380.15234375	0.00833333333333333	0	30	9.74375	2	0.783203125
2383.38671875	0.00833333333333333	0	-30	-7.69583333333333	2	0.7412109375
2386.5947265625	0.00833333333333333	0	-30	-7.69583333333333	2	0.6689453125
2389.63671875	0.00833333333333333	0	30	9.61875	1	0.6826171875
2392.677734375	0.00833333333333333	0	-30	-7.69583333333333	1	1.1142578125
2396.14453125	0.00833333333333333	0	-30	-7.69583333333333	2	0.6796875
2399.162109375	0.00833333333333333	0	-30	-7.69583333333333	2	0.669921875
2401.9609375	0.00833333333333333	0	-30	-7.69583333333333	2	0.6708984375
2404.7119140625	0.00833333333333333	0	-30	-7.69583333333333	2	0.6328125
2407.64453125	0.00833333333333333	0	30	9.61875	2	0.5712890625
2410.3369140625	0.00833333333333333	0	-30	-7.69583333333333	2	0.607421875
2413.361328125	0.00833333333333333	0	-30	-7.82083333333333	1	0.607421875
2416.4111328125	0.00833333333333333	0	-30	-7.82083333333333	2	1.2529296875
2420.1865234375	0.00833333333333333	0	-30	-7.82083333333333	1	1.3818359375
2423.8447265625	0.00833333333333333	0	30	9.61875	2	1.31640625
2427.6611328125	0.00833333333333333	0	30	9.61875	2	1.2353515625
2431.369140625	0.00833333333333333	0	-30	-7.82083333333333	1	1.2802734375
2434.6767578125	0.00833333333333333	0	30	9.61875	2	0.796875
2437.6357421875	0.00833333333333333	0	-30	-7.82083333333333	1	0.8212890625
2440.8193359375	0.00833333333333333	0	-30	-7.82083333333333	1	0.91015625
2443.7265625	0.00833333333333333	0	30	9.61875	2	0.7314453125
2446.6943359375	0.00833333333333333	0	30	9.49375	1	1.427734375
2450.1279296875	0.00833333333333333	0	-30	-7.82083333333333	1	0.8818359375
2453.4443359375	0.00833333333333333	0	-30	-7.69583333333333	1	0.7412109375
2456.177734375	0.00833333333333333	0	30	9.49375	1	0.927734375
2459.251953125	0.00833333333333333	0	-30	-7.69583333333333	1	1.150390625
2462.4521484375	0.00833333333333333	0	-30	-7.69583333333333	1	0.677734375
2465.552734375	0.00833333333333333	0	-30	-7.69583333333333	1	0.705078125
2468.3271484375	0.00833333333333333	0	30	9.49375	1	0.8349609375
2471.2177734375	0.00833333333333333	0	-30	-7.69583333333333	1	0.744140625
2474.435546875	0.00833333333333333	0	30	9.49375	1	0.5908203125
2477.560546875	0.00833333333333333	0	-30	-7.57083333333333	1	0.8740234375
2480.7265625	0.00833333333333333	0	-30	-7.57083333333333	2	0.7724609375
2483.71875	0.00833333333333333	0	30	9.49375	2	0.8115234375
2487.0185546875	0.00833333333333333	0	-30	-7.57083333333333	1	0.744140625
2490.2431640625	0.00833333333333333	0	30	9.49375	1	0.7119140625
2493.2939453125	0.00833333333333333	0	-30	-7.57083333333333	1	0.7333984375
2496.126953125	0.00833333333333333	0	-30	-7.57083333333333	1	0.755859375
2499.4013671875	0.00833333333333333	0	30	9.49375	2	0.810546875
2502.634765625	0.00833333333333333	0	30	9.49375	1	0.9365234375
2505.759765625	0.00833333333333333	0	-30	-7.57083333333333	1	0.8994140625
2508.759765625	0.00833333333333333	0	-30	-7.57083333333333	1	1.0517578125
2512.068359375	0.00833333333333333	0	30	9.49375	2	1.2314453125
2515.4931640625	0.00833333333333333	0	-30	-7.44583333333333	2	1.1181640625
2519.068359375	0.00833333333333333	0	-30	-7.44583333333333	2	0.7275390625
2521.91015625	0.00833333333333333	0	-30	-7.44583333333333	1	0.7822265625
2524.80859375	0.00833333333333333	0	30	9.49375	1	0.7158203125
2527.767578125	0.00833333333333333	0	-30	-7.44583333333333	2	0.6767578125
2530.6416015625	0.00833333333333333	0	-30	-7.44583333333333	1	0.7783203125
2533.42578125	0.00833333333333333	0	-30	-7.44583333333333	1	0.70703125
2536.201171875	0.00833333333333333	0	30	9.49375	1	0.7236328125
2538.9765625	0.00833333333333333	0	-30	-7.44583333333333	2	1.0517578125
2542.4931640625	0.00833333333333333	0	30	9.49375	2	1.17578125
2545.7177734375	0.00833333333333333	0	-30	-7.44583333333333	2	1.3828125
2549.6259765625	0.00833333333333333	0	-30	-7.44583333333333	2	0.626953125
2552.3095703125	0.00833333333333333	0	30	9.49375	1	0.927734375
2555.5087890625	0.00833333333333333	0	30	9.49375	1	1.064453125
2580.3671875	0.00833333333333333	0	-30	-7.44583333333333	1	0.7265625
2583.55859375	0.00833333333333333	0	-30	-7.44583333333333	2	0.9755859375
2586.80078125	0.00833333333333333	0	-30	-7.44583333333333	1	1.013671875
2589.9501953125	0.00833333333333333	0	-30	-7.44583333333333	1	0.736328125
2592.8916015625	0.00833333333333333	0	30	9.49375	2	0.5625
2595.6337890625	0.00833333333333333	0	-30	-7.44583333333333	2	0.9482421875
2598.6171875	0.00833333333333333	0	30	9.49375	2	1.212890625
2602.3251953125	0.00833333333333333	0	30	9.49375	2	1.0009765625
2605.650390625	0.00833333333333333	0	-30	-7.44583333333333	2	0.5966796875
2608.5830078125	0.00833333333333333	0	-30	-7.44583333333333	2	0.5595703125
2611.408203125	0.00833333333333333	0	30	9.49375	2	0.646484375
2614.3837890625	0.00833333333333333	0	30	9.49375	2	0.591796875
2617.3583984375	0.00833333333333333	0	-30	-7.44583333333333	2	0.79296875
2620.2998046875	0.00833333333333333	0	30	9.36875	2	0.6513671875
2623.3583984375	0.00833333333333333	0	30	9.36875	2	0.6884765625
2626.4501953125	0.00833333333333333	0	30	9.36875	2	0.669921875
2629.548828125	0.00833333333333333	0	-30	-7.44583333333333	1	0.73046875
2632.341796875	0.00833333333333333	0	-30	-7.44583333333333	1	1.43359375
2635.82421875	0.00833333333333333	0	30	9.36875	2	0.7998046875
2639.099609375	0.00833333333333333	0	-30	-7.44583333333333	2	0.7001953125
2642.048828125	0.00833333333333333	0	-30	-7.44583333333333	2	0.8388671875
2645.0576171875	0.00833333333333333	0	30	9.36875	1	1.1259765625
2648.44921875	0.00833333333333333	0	30	9.36875	1	0.7744140625
2651.416015625	0.00833333333333333	0	30	9.36875	2	0.6796875
2654.6162109375	0.00833333333333333	0	-30	-7.44583333333333	1	0.6240234375
2657.56640625	0.00833333333333333	0	-30	-7.44583333333333	1	0.7861328125
2660.607421875	0.00833333333333333	0	30	9.36875	2	0.6171875
2663.3330078125	0.00833333333333333	0	30	9.36875	2	0.8271484375
2666.390625	0.00833333333333333	0	-30	-7.44583333333333	2	0.9140625
2669.6494140625	0.00833333333333333	0	-30	-7.44583333333333	2	0.759765625
2672.7900390625	0.00833333333333333	0	-30	-7.44583333333333	1	0.70703125
2675.9404296875	0.00833333333333333	0	-30	-7.44583333333333	2	0.916015625
2678.8828125	0.00833333333333333	0	-30	-7.44583333333333	1	0.9423828125
2682.298828125	0.00833333333333333	0	-30	-7.44583333333333	1	0.7265625
2685.1484375	0.00833333333333333	0	-30	-7.44583333333333	1	1.1884765625
2688.6650390625	0.00833333333333333	0	-30	-7.44583333333333	1	0.984375
2691.7490234375	0.00833333333333333	0	-30	-7.44583333333333	1	0.6123046875
2694.6484375	0.00833333333333333	0	30	9.36875	2	1.048828125
2698.048828125	0.00833333333333333	0	-30	-7.32083333333333	1	0.7685546875
2701.3408203125	0.00833333333333333	0	-30	-7.32083333333333	1	0.708984375
2704.33203125	0.00833333333333333	0	-30	-7.32083333333333	2	1.3818359375
2708.265625	0.00833333333333333	0	-30	-7.32083333333333	2	0.6640625
2711.380859375	0.00833333333333333	0	-30	-7.32083333333333	2	0.6611328125
2714.4990234375	0.00833333333333333	0	-30	-7.32083333333333	2	0.9755859375
2717.83984375	0.00833333333333333	0	-30	-7.32083333333333	2	0.875
2721.115234375	0.00833333333333333	0	-30	-7.44583333333333	2	0.9267578125
2724.3564453125	0.00833333333333333	0	-30	-7.44583333333333	2	0.89453125
2727.681640625	0.00833333333333333	0	-30	-7.44583333333333	1	0.9609375
2730.7236328125	0.00833333333333333	0	30	9.36875	2	0.7431640625
2733.7900390625	0.00833333333333333	0	-30	-7.44583333333333	2	0.884765625
2736.9228515625	0.00833333333333333	0	30	9.24375	1	0.927734375
2739.998046875	0.00833333333333333	0	30	9.24375	2	0.708984375
2742.865234375	0.00833333333333333	0	-30	-7.44583333333333	1	1.3466796875
2746.4560546875	0.00833333333333333	0	30	9.24375	2	0.8671875
2749.8310546875	0.00833333333333333	0	30	9.24375	2	0.65234375
2752.939453125	0.00833333333333333	0	-30	-7.44583333333333	1	0.83984375
2756.1064453125	0.00833333333333333	0	30	9.24375	1	0.80078125
2759.138671875	0.00833333333333333	0	30	9.24375	1	0.6494140625
2761.8564453125	0.00833333333333333	0	30	9.24375	1	2.0751953125
2766.09765625	0.00833333333333333	0	30	9.24375	2	0.810546875
2769.09765625	0.00833333333333333	0	30	9.24375	2	0.978515625
2772.4306640625	0.00833333333333333	0	-30	-7.44583333333333	2	0.669921875
2775.1728515625	0.00833333333333333	0	-30	-7.44583333333333	1	0.630859375
2778.10546875	0.00833333333333333	0	30	9.24375	1	0.8271484375
2781.064453125	0.00833333333333333	0	30	9.24375	1	0.7880859375
2784.0390625	0.00833333333333333	0	30	9.24375	2	0.685546875
2787.189453125	0.00833333333333333	0	30	9.24375	2	0.8955078125
2790.5146484375	0.00833333333333333	0	30	9.24375	2	0.9140625
2793.98046875	0.00833333333333333	0	-30	-7.44583333333333	2	0.720703125
2796.822265625	0.00833333333333333	0	-30	-7.44583333333333	2	0.6708984375
2799.697265625	0.00833333333333333	0	30	9.24375	2	1.7880859375
2803.7392578125	0.00833333333333333	0	-30	-7.44583333333333	2	0.7138671875
2806.6376953125	0.00833333333333333	0	-30	-7.44583333333333	1	1.0556640625
2809.755859375	0.00833333333333333	0	30	9.24375	2	0.7451171875
2812.6884765625	0.00833333333333333	0	-30	-7.44583333333333	2	0.9169921875
2815.7802734375	0.00833333333333333	0	30	9.11875	2	0.80078125
2818.9638671875	0.00833333333333333	0	-30	-7.44583333333333	1	1.146484375
2822.462890625	0.00833333333333333	0	-30	-7.44583333333333	2	0.5751953125
2825.380859375	0.00833333333333333	0	-30	-7.44583333333333	2	0.720703125
2828.3134765625	0.00833333333333333	0	-30	-7.44583333333333	2	0.6201171875
3005.1435546875	0.00833333333333333	0	-30	-7.44583333333333	1	0.8681640625
3008.369140625	0.00833333333333333	0	-30	-7.44583333333333	2	0.7626953125
3011.2021484375	0.00833333333333333	0	30	9.11875	2	0.849609375
3014.15234375	0.00833333333333333	0	-30	-7.44583333333333	2	0.69921875
3016.935546875	0.00833333333333333	0	30	9.11875	2	0.8525390625
3020.04296875	0.00833333333333333	0	30	9.11875	2	0.78515625
3022.8603515625	0.00833333333333333	0	30	9.11875	2	0.6640625
3025.626953125	0.00833333333333333	0	30	8.99375	2	0.712890625
3028.8935546875	0.00833333333333333	0	30	8.99375	2	0.783203125
3031.8017578125	0.00833333333333333	0	30	8.99375	2	0.5791015625
3034.7685546875	0.00833333333333333	0	-30	-7.44583333333333	2	0.5634765625
3037.6767578125	0.00833333333333333	0	-30	-7.44583333333333	2	0.6474609375
3040.5341796875	0.00833333333333333	0	30	8.99375	2	0.806640625
3043.4521484375	0.00833333333333333	0	-30	-7.44583333333333	2	0.640625
3046.1103515625	0.00833333333333333	0	30	8.99375	2	0.6943359375
3049.2021484375	0.00833333333333333	0	-30	-7.57083333333333	2	0.890625
3052.3681640625	0.00833333333333333	0	-30	-7.57083333333333	2	0.5244140625
3055.3515625	0.00833333333333333	0	30	8.86875	2	1.181640625
3058.5849609375	0.00833333333333333	0	-30	-7.57083333333333	2	0.6201171875
3061.693359375	0.00833333333333333	0	-30	-7.57083333333333	2	0.51953125
3064.6015625	0.00833333333333333	0	30	8.86875	2	0.5322265625
3067.376953125	0.00833333333333333	0	-30	-7.57083333333333	2	0.5966796875
3070.326171875	0.00833333333333333	0	-30	-7.69583333333333	2	0.599609375
3073.4169921875	0.00833333333333333	0	30	8.86875	2	0.6923828125
3076.318359375	0.00833333333333333	0	30	8.86875	2	1.0634765625
3079.8173828125	0.00833333333333333	0	30	8.86875	2	0.548828125
3082.7587890625	0.00833333333333333	0	30	8.74375	2	0.5107421875
3085.609375	0.00833333333333333	0	30	8.74375	2	0.6044921875
3088.7177734375	0.00833333333333333	0	30	8.74375	2	0.568359375
3091.5087890625	0.00833333333333333	0	30	8.74375	2	1.09765625
3094.833984375	0.00833333333333333	0	-30	-7.69583333333333	1	0.8203125
3098.06640625	0.00833333333333333	0	-30	-7.69583333333333	2	0.64453125
3100.8173828125	0.00833333333333333	0	-30	-7.69583333333333	1	1.541015625
3104.6923828125	0.00833333333333333	0	30	8.74375	1	0.8583984375
3107.884765625	0.00833333333333333	0	30	8.74375	2	0.986328125
3111.30078125	0.00833333333333333	0	30	8.74375	1	0.7861328125
3114.3173828125	0.00833333333333333	0	30	8.74375	2	0.953125
3117.5009765625	0.00833333333333333	0	30	8.74375	2	0.72265625
3120.75	0.00833333333333333	0	-30	-7.69583333333333	2	1.2890625
3124.2587890625	0.00833333333333333	0	30	8.74375	2	0.7490234375
3127.0751953125	0.00833333333333333	0	-30	-7.69583333333333	1	1.4599609375
3130.6005859375	0.00833333333333333	0	30	8.74375	2	0.7587890625
3133.8173828125	0.00833333333333333	0	-30	-7.69583333333333	2	1.56640625
3137.708984375	0.00833333333333333	0	-30	-7.69583333333333	2	0.603515625
3140.517578125	0.00833333333333333	0	-30	-7.69583333333333	2	0.73828125
3143.3671875	0.00833333333333333	0	-30	-7.69583333333333	2	0.625
3146.3251953125	0.00833333333333333	0	-30	-7.69583333333333	2	0.6591796875
3149.400390625	0.00833333333333333	0	30	8.74375	1	0.7919921875
3152.7001953125	0.00833333333333333	0	30	8.74375	2	1.0595703125
3156.18359375	0.00833333333333333	0	30	8.74375	2	0.6005859375
3158.9833984375	0.00833333333333333	0	30	8.74375	2	0.7373046875
3161.974609375	0.00833333333333333	0	30	8.74375	2	0.658203125
3164.9404296875	0.00833333333333333	0	30	8.74375	2	0.6845703125
3167.724609375	0.00833333333333333	0	-30	-7.82083333333333	2	0.6201171875
3170.533203125	0.00833333333333333	0	-30	-7.82083333333333	2	0.7080078125
3173.2744140625	0.00833333333333333	0	30	8.61875	1	1.0546875
3176.408203125	0.00833333333333333	0	-30	-7.82083333333333	2	0.6806640625
3179.4833984375	0.00833333333333333	0	-30	-7.82083333333333	2	0.685546875
3182.3828125	0.00833333333333333	0	-30	-7.82083333333333	2	0.6025390625
3185.041015625	0.00833333333333333	0	30	8.61875	2	0.7919921875
3188.3076171875	0.00833333333333333	0	30	8.61875	2	0.7578125
3191.2158203125	0.00833333333333333	0	30	8.61875	2	0.6494140625
3194.0322265625	0.00833333333333333	0	30	8.61875	2	0.681640625
3196.765625	0.00833333333333333	0	30	8.61875	2	0.66796875
3199.666015625	0.00833333333333333	0	30	8.49375	2	0.6396484375
3202.6826171875	0.00833333333333333	0	-30	-7.94583333333333	1	0.5595703125
3205.2744140625	0.00833333333333333	0	-30	-7.94583333333333	2	0.6552734375
3208.1328125	0.00833333333333333	0	30	8.49375	2	0.5654296875
3211.0732421875	0.00833333333333333	0	30	8.49375	1	0.5693359375
3213.9658203125	0.00833333333333333	0	-30	-7.94583333333333	1	0.5888671875
3216.8662109375	0.00833333333333333	0	30	8.49375	2	0.583984375
3219.7578125	0.00833333333333333	0	-30	-7.94583333333333	1	0.9248046875
3222.890625	0.00833333333333333	0	-30	-7.94583333333333	2	0.48828125
3225.4326171875	0.00833333333333333	0	30	8.49375	2	0.4658203125
3228.0810546875	0.00833333333333333	0	-30	-7.94583333333333	1	0.6015625
3231.0322265625	0.00833333333333333	0	30	8.49375	2	0.6025390625
3233.923828125	0.00833333333333333	0	-30	-7.94583333333333	2	0.775390625
3237.2734375	0.00833333333333333	0	-30	-7.94583333333333	1	0.8740234375
3240.240234375	0.00833333333333333	0	-30	-7.94583333333333	2	0.5146484375
3243.1572265625	0.00833333333333333	0	30	8.49375	2	0.662109375
3260.306640625	0.00833333333333333	0	30	8.49375	2	0.720703125
3263.21484375	0.00833333333333333	0	-30	-7.94583333333333	1	1.0048828125
3266.498046875	0.00833333333333333	0	30	8.36875	1	0.76171875
3269.4404296875	0.00833333333333333	0	30	8.36875	1	0.7158203125
3272.681640625	0.00833333333333333	0	-30	-7.94583333333333	1	0.6103515625
3275.490234375	0.00833333333333333	0	-30	-7.94583333333333	1	0.658203125
3278.306640625	0.00833333333333333	0	30	8.36875	1	0.5458984375
3281.03125	0.00833333333333333	0	30	8.36875	1	0.701171875
3283.9814453125	0.00833333333333333	0	30	8.36875	1	0.775390625
3287.1904296875	0.00833333333333333	0	30	8.49375	1	2.173828125
3291.8466796875	0.00833333333333333	0	-30	-7.94583333333333	1	2.8544921875
3297.123046875	0.00833333333333333	0	30	8.49375	2	0.73828125
3299.9228515625	0.00833333333333333	0	-30	-7.94583333333333	1	1.146484375
3303.0966796875	0.00833333333333333	0	-30	-7.82083333333333	1	1.4130859375
3306.6396484375	0.00833333333333333	0	-30	-7.82083333333333	1	0.5732421875
3309.630859375	0.00833333333333333	0	-30	-7.82083333333333	1	1.0068359375
3312.8896484375	0.00833333333333333	0	30	8.49375	1	0.7314453125
3315.7724609375	0.00833333333333333	0	30	8.49375	1	0.6806640625
3318.888671875	0.00833333333333333	0	-30	-7.82083333333333	1	1.125
3322.3974609375	0.00833333333333333	0	30	8.49375	1	0.6884765625
3325.380859375	0.00833333333333333	0	30	8.49375	1	0.888671875
3328.5810546875	0.00833333333333333	0	30	8.49375	1	0.7529296875
3331.6630859375	0.00833333333333333	0	30	8.61875	1	1.142578125
3334.90625	0.00833333333333333	0	30	8.61875	1	0.939453125
3338.10546875	0.00833333333333333	0	-30	-7.82083333333333	1	1.388671875
3341.7890625	0.00833333333333333	0	-30	-7.69583333333333	1	0.6572265625
3344.796875	0.00833333333333333	0	30	8.61875	1	0.5615234375
3347.73046875	0.00833333333333333	0	30	8.61875	1	0.84375
3350.7470703125	0.00833333333333333	0	30	8.61875	2	0.8359375
3353.6884765625	0.00833333333333333	0	30	8.61875	2	0.89453125
3356.85546875	0.00833333333333333	0	30	8.61875	2	0.8876953125
3360.12109375	0.00833333333333333	0	-30	-7.69583333333333	1	0.9580078125
3363.4052734375	0.00833333333333333	0	30	8.61875	2	0.6416015625
3366.11328125	0.00833333333333333	0	-30	-7.69583333333333	1	0.6298828125
3369.072265625	0.00833333333333333	0	30	8.61875	2	1.134765625
3372.3388671875	0.00833333333333333	0	30	8.49375	2	0.5966796875
3375.271484375	0.00833333333333333	0	30	8.49375	2	0.583984375
3378.2216796875	0.00833333333333333	0	-30	-7.69583333333333	2	0.75390625
3381.3798828125	0.00833333333333333	0	-30	-7.69583333333333	2	0.8037109375
3384.2373046875	0.00833333333333333	0	-30	-7.69583333333333	1	0.72265625
3387.271484375	0.00833333333333333	0	-30	-7.69583333333333	1	0.7685546875
3390.0458984375	0.00833333333333333	0	-30	-7.69583333333333	1	0.8740234375
3392.921875	0.00833333333333333	0	30	8.49375	2	0.990234375
3396.23828125	0.00833333333333333	0	-30	-7.69583333333333	2	0.578125
3399.0205078125	0.00833333333333333	0	-30	-7.69583333333333	2	0.587890625
3402.0712890625	0.00833333333333333	0	-30	-7.69583333333333	2	0.6005859375
3404.87109375	0.00833333333333333	0	30	8.49375	2	0.544921875
3407.9130859375	0.00833333333333333	0	30	8.49375	2	0.7998046875
3411.11328125	0.00833333333333333	0	-30	-7.69583333333333	2	1.455078125
3414.8046875	0.00833333333333333	0	-30	-7.69583333333333	1	1.076171875
3418.080078125	0.00833333333333333	0	30	8.36875	2	0.728515625
3421.1123046875	0.00833333333333333	0	30	8.36875	1	0.6162109375
3424.0205078125	0.00833333333333333	0	30	8.36875	2	0.6201171875
3426.8369140625	0.00833333333333333	0	30	8.36875	2	0.66015625
3429.578125	0.00833333333333333	0	30	8.36875	2	0.607421875
3432.396484375	0.00833333333333333	0	-30	-7.69583333333333	2	0.5244140625
3435.337890625	0.00833333333333333	0	30	8.36875	2	0.775390625
3438.404296875	0.00833333333333333	0	-30	-7.69583333333333	2	0.5087890625
3441.078125	0.00833333333333333	0	-30	-7.69583333333333	2	0.515625
3443.64453125	0.00833333333333333	0	-30	-7.69583333333333	2	0.5166015625
3446.37890625	0.00833333333333333	0	-30	-7.69583333333333	2	0.4384765625
3449.3203125	0.00833333333333333	0	-30	-7.82083333333333	2	0.45703125
3451.919921875	0.00833333333333333	0	30	8.36875	2	0.609375
3454.611328125	0.00833333333333333	0	30	8.24375	2	0.5830078125
3457.3779296875	0.00833333333333333	0	-30	-7.82083333333333	2	0.560546875
3460.38671875	0.00833333333333333	0	30	8.24375	2	0.54296875
3463.2197265625	0.00833333333333333	0	-30	-7.82083333333333	2	0.5263671875
3466.1025390625	0.00833333333333333	0	-30	-7.82083333333333	2	0.6201171875
3469.0283203125	0.00833333333333333	0	30	8.24375	2	1.349609375
3472.611328125	0.00833333333333333	0	-30	-7.82083333333333	1	0.630859375
3475.3701171875	0.00833333333333333	0	30	8.24375	2	0.720703125
3478.4453125	0.00833333333333333	0	-30	-7.82083333333333	1	0.78125
3481.5615234375	0.00833333333333333	0	-30	-7.82083333333333	2	0.7373046875
3484.6455078125	0.00833333333333333	0	30	8.24375	2	0.701171875
3487.4951171875	0.00833333333333333	0	-30	-7.82083333333333	2	0.515625
3490.50390625	0.00833333333333333	0	-30	-7.82083333333333	1	0.771484375
3493.3203125	0.00833333333333333	0	30	8.11875	1	0.642578125
3496.2529296875	0.00833333333333333	0	-30	-7.82083333333333	1	0.646484375
3499.1865234375	0.00833333333333333	0	-30	-7.82083333333333	1	0.640625
3502.0859375	0.00833333333333333	0	30	8.11875	1	0.693359375
3535.8115234375	0.00833333333333333	0	-30	-7.82083333333333	2	4.2255859375
3542.26953125	0.00833333333333333	0	30	8.11875	2	0.7763671875
3545.1767578125	0.00833333333333333	0	-30	-7.82083333333333	1	0.8525390625
3548.46875	0.00833333333333333	0	-30	-7.82083333333333	1	1.576171875
3552.2607421875	0.00833333333333333	0	-30	-7.82083333333333	1	0.9765625
3555.443359375	0.00833333333333333	0	30	8.11875	1	0.74609375
3558.6025390625	0.00833333333333333	0	30	8.11875	1	0.810546875
3561.869140625	0.00833333333333333	0	30	8.11875	1	0.8720703125
3564.7939453125	0.00833333333333333	0	30	8.11875	1	0.931640625
3567.9599609375	0.00833333333333333	0	-30	-7.82083333333333	1	0.853515625
3570.8935546875	0.00833333333333333	0	30	8.11875	1	0.9765625
3574.001953125	0.00833333333333333	0	-30	-7.82083333333333	1	0.69140625
3576.994140625	0.00833333333333333	0	-30	-7.69583333333333	1	1.0673828125
3580.0517578125	0.00833333333333333	0	-30	-7.69583333333333	1	0.9462890625
3583.4443359375	0.00833333333333333	0	-30	-7.69583333333333	1	0.7138671875
3586.34375	0.00833333333333333	0	-30	-7.69583333333333	1	1.7822265625
3590.3017578125	0.00833333333333333	0	30	8.24375	1	1.240234375
3593.6103515625	0.00833333333333333	0	-30	-7.69583333333333	2	0.931640625
3596.77734375	0.00833333333333333	0	-30	-7.69583333333333	1	0.6689453125
3599.6181640625	0.00833333333333333	0	30	8.24375	2	0.8125
3602.560546875	0.00833333333333333	0	30	8.24375	2	0.654296875
3605.310546875	0.00833333333333333	0	-30	-7.69583333333333	1	1.0166015625
3608.66796875	0.00833333333333333	0	-30	-7.69583333333333	1	0.7548828125
3611.8935546875	0.00833333333333333	0	30	8.24375	1	0.697265625
3614.859375	0.00833333333333333	0	-30	-7.69583333333333	1	0.7392578125
3617.66015625	0.00833333333333333	0	30	8.24375	1	0.787109375
3620.4931640625	0.00833333333333333	0	30	8.24375	2	0.642578125
3623.3515625	0.00833333333333333	0	-30	-7.69583333333333	1	0.607421875
3626.1669921875	0.00833333333333333	0	30	8.24375	2	0.576171875
3629.2099609375	0.00833333333333333	0	30	8.24375	2	0.7578125
3632.41796875	0.00833333333333333	0	-30	-7.57083333333333	1	0.6298828125
3635.0849609375	0.00833333333333333	0	30	8.24375	2	2.794921875
3640.201171875	0.00833333333333333	0	30	8.24375	2	0.646484375
3642.9599609375	0.00833333333333333	0	-30	-7.57083333333333	1	0.6640625
3645.8759765625	0.00833333333333333	0	-30	-7.57083333333333	1	0.5166015625
3648.7587890625	0.00833333333333333	0	30	8.11875	1	0.6181640625
3651.6591796875	0.00833333333333333	0	-30	-7.57083333333333	1	0.556640625
3654.43359375	0.00833333333333333	0	-30	-7.57083333333333	1	0.6064453125
3657.1005859375	0.00833333333333333	0	-30	-7.44583333333333	2	0.603515625
3660.150390625	0.00833333333333333	0	-30	-7.44583333333333	2	0.5947265625
3663.076171875	0.00833333333333333	0	-30	-7.44583333333333	2	0.6845703125
3665.92578125	0.00833333333333333	0	-30	-7.44583333333333	1	0.8271484375
3669.05078125	0.00833333333333333	0	30	8.11875	2	1.0625
3672.3173828125	0.00833333333333333	0	30	8.11875	1	0.7236328125
3675.392578125	0.00833333333333333	0	-30	-7.44583333333333	1	0.640625
3678.3505859375	0.00833333333333333	0	-30	-7.44583333333333	1	1.40234375
3682.234375	0.00833333333333333	0	30	8.11875	2	0.6787109375
3685.099609375	0.00833333333333333	0	-30	-7.44583333333333	1	0.662109375
3687.767578125	0.00833333333333333	0	30	8.11875	1	0.74609375
3690.642578125	0.00833333333333333	0	-30	-7.44583333333333	1	0.5751953125
3693.625	0.00833333333333333	0	-30	-7.32083333333333	2	0.65625
3696.6337890625	0.00833333333333333	0	-30	-7.32083333333333	2	0.6962890625
3699.3251953125	0.00833333333333333	0	30	8.11875	2	0.8369140625
3702.224609375	0.00833333333333333	0	-30	-7.32083333333333	1	0.712890625
3704.966796875	0.00833333333333333	0	30	8.11875	2	0.7470703125
3708.1171875	0.00833333333333333	0	-30	-7.32083333333333	2	0.6611328125
3710.80859375	0.00833333333333333	0	30	8.11875	2	0.9140625
3714.083984375	0.00833333333333333	0	30	8.11875	2	0.6787109375
3717.0166015625	0.00833333333333333	0	-30	-7.32083333333333	2	0.6015625
3719.6748046875	0.00833333333333333	0	-30	-7.32083333333333	2	0.6318359375
3722.4169921875	0.00833333333333333	0	-30	-7.32083333333333	2	0.59375
3725.2001953125	0.00833333333333333	0	30	8.11875	2	0.6181640625
3727.849609375	0.00833333333333333	0	30	7.99375	2	0.5615234375
3730.625	0.00833333333333333	0	30	7.99375	2	0.658203125
3733.6748046875	0.00833333333333333	0	-30	-7.32083333333333	2	0.640625
3736.7001953125	0.00833333333333333	0	30	7.99375	2	0.7431640625
3739.80859375	0.00833333333333333	0	-30	-7.44583333333333	1	0.72265625
3742.8251953125	0.00833333333333333	0	-30	-7.44583333333333	1	0.666015625
3745.8828125	0.00833333333333333	0	30	7.99375	2	2.728515625
3750.6494140625	0.00833333333333333	0	-30	-7.44583333333333	1	0.6259765625
3753.4658203125	0.00833333333333333	0	30	7.99375	1	1.0341796875
3756.931640625	0.00833333333333333	0	-30	-7.44583333333333	2	0.5517578125
3759.6083984375	0.00833333333333333	0	-30	-7.44583333333333	1	0.626953125
3762.482421875	0.00833333333333333	0	-30	-7.44583333333333	2	0.505859375
3765.291015625	0.00833333333333333	0	30	7.99375	2	0.560546875
3767.94921875	0.00833333333333333	0	30	7.99375	2	0.783203125
3770.8408203125	0.00833333333333333	0	30	7.99375	2	0.7314453125
3773.6162109375	0.00833333333333333	0	30	7.99375	2	0.8994140625
3777.0078125	0.00833333333333333	0	30	7.99375	2	0.6845703125
3780.0498046875	0.00833333333333333	0	-30	-7.44583333333333	2	0.9794921875
3811.2158203125	0.00833333333333333	0	30	7.86875	2	0.7255859375
3814.0068359375	0.00833333333333333	0	30	7.86875	1	0.9033203125
3817.357421875	0.00833333333333333	0	30	7.86875	2	0.6005859375
3819.9814453125	0.00833333333333333	0	30	7.86875	2	0.83203125
3822.7900390625	0.00833333333333333	0	30	7.86875	1	0.6318359375
3825.4814453125	0.00833333333333333	0	30	7.86875	1	0.6201171875
3828.1484375	0.00833333333333333	0	30	7.86875	2	0.6259765625
3831.20703125	0.00833333333333333	0	-30	-7.44583333333333	1	0.607421875
3834.10546875	0.00833333333333333	0	-30	-7.44583333333333	2	0.5732421875
3836.9736328125	0.00833333333333333	0	-30	-7.44583333333333	1	0.736328125
3839.83984375	0.00833333333333333	0	30	7.86875	2	1.0546875
3843.3564453125	0.00833333333333333	0	30	7.86875	2	0.681640625
3846.4970703125	0.00833333333333333	0	30	7.86875	1	0.765625
3849.3486328125	0.00833333333333333	0	-30	-7.44583333333333	1	0.6904296875
3852.1484375	0.00833333333333333	0	30	7.86875	2	0.833984375
3855.1650390625	0.00833333333333333	0	-30	-7.44583333333333	2	0.6982421875
3858.013671875	0.00833333333333333	0	-30	-7.44583333333333	1	0.4814453125
3860.5810546875	0.00833333333333333	0	-30	-7.44583333333333	1	1.07421875
3864.08984375	0.00833333333333333	0	30	7.86875	1	0.6533203125
3866.939453125	0.00833333333333333	0	-30	-7.44583333333333	2	0.7958984375
3869.78125	0.00833333333333333	0	-30	-7.44583333333333	2	0.8984375
3872.86328125	0.00833333333333333	0	-30	-7.44583333333333	1	0.576171875
3875.5224609375	0.00833333333333333	0	30	7.86875	2	0.8525390625
3878.6640625	0.00833333333333333	0	30	7.86875	2	0.7197265625
3881.40625	0.00833333333333333	0	-30	-7.44583333333333	2	0.6328125
3884.2392578125	0.00833333333333333	0	-30	-7.44583333333333	2	0.583984375
3887.2978515625	0.00833333333333333	0	30	7.86875	2	0.6943359375
3890.11328125	0.00833333333333333	0	30	7.86875	2	0.638671875
3892.9228515625	0.00833333333333333	0	-30	-7.44583333333333	2	0.60546875
3895.85546875	0.00833333333333333	0	-30	-7.44583333333333	2	0.6328125
3898.5810546875	0.00833333333333333	0	30	7.86875	1	0.779296875
3901.72265625	0.00833333333333333	0	30	7.86875	1	0.9580078125
3904.6806640625	0.00833333333333333	0	30	7.86875	1	0.6396484375
3907.4638671875	0.00833333333333333	0	30	7.86875	2	0.736328125
3910.2392578125	0.00833333333333333	0	30	7.86875	1	0.5693359375
3912.814453125	0.00833333333333333	0	-30	-7.44583333333333	2	0.666015625
3915.59765625	0.00833333333333333	0	-30	-7.57083333333333	1	0.939453125
3918.796875	0.00833333333333333	0	-30	-7.57083333333333	2	0.603515625
3921.505859375	0.00833333333333333	0	30	7.86875	1	0.775390625
3924.36328125	0.00833333333333333	0	-30	-7.57083333333333	1	0.669921875
3927.4306640625	0.00833333333333333	0	-30	-7.57083333333333	1	0.546875
3930.2470703125	0.00833333333333333	0	30	7.86875	1	0.6181640625
3933.0302734375	0.00833333333333333	0	30	7.86875	1	0.69921875
3935.7958984375	0.00833333333333333	0	-30	-7.57083333333333	1	0.7578125
3938.6630859375	0.00833333333333333	0	30	7.86875	1	0.5625
3941.3466796875	0.00833333333333333	0	-30	-7.57083333333333	1	0.8154296875
3944.421875	0.00833333333333333	0	30	7.99375	1	0.7080078125
3947.61328125	0.00833333333333333	0	30	7.99375	1	0.62890625
3950.4384765625	0.00833333333333333	0	30	7.99375	1	0.626953125
3953.513671875	0.00833333333333333	0	30	7.99375	2	1.4326171875
3957.021484375	0.00833333333333333	0	-30	-7.57083333333333	1	0.64453125
3959.7041015625	0.00833333333333333	0	30	7.99375	1	0.681640625
3962.796875	0.00833333333333333	0	-30	-7.44583333333333	1	0.60546875
3965.8466796875	0.00833333333333333	0	-30	-7.44583333333333	1	0.69140625
3968.8291015625	0.00833333333333333	0	30	7.99375	1	0.6220703125
3971.837890625	0.00833333333333333	0	30	7.99375	1	0.693359375
3974.5791015625	0.00833333333333333	0	-30	-7.44583333333333	1	0.6640625
3977.4716796875	0.00833333333333333	0	-30	-7.44583333333333	1	0.626953125
3980.4130859375	0.00833333333333333	0	-30	-7.44583333333333	1	0.60546875
3983.4130859375	0.00833333333333333	0	-30	-7.32083333333333	1	0.5341796875
3986.212890625	0.00833333333333333	0	30	7.99375	1	0.56640625
3989.1376953125	0.00833333333333333	0	-30	-7.32083333333333	1	0.6337890625
3992.021484375	0.00833333333333333	0	-30	-7.32083333333333	1	0.5498046875
3994.6962890625	0.00833333333333333	0	-30	-7.32083333333333	2	0.5224609375
3997.2294921875	0.00833333333333333	0	-30	-7.32083333333333	1	1.0703125
4000.5546875	0.00833333333333333	0	30	7.99375	2	0.81640625
4003.595703125	0.00833333333333333	0	-30	-7.32083333333333	1	0.744140625
4006.5703125	0.00833333333333333	0	-30	-7.32083333333333	2	0.7373046875
4009.4375	0.00833333333333333	0	-30	-7.32083333333333	1	0.7177734375
4012.529296875	0.00833333333333333	0	30	7.99375	1	0.72265625
4015.453125	0.00833333333333333	0	30	7.99375	2	0.7431640625
4018.2197265625	0.00833333333333333	0	30	7.99375	1	0.80859375
4021.37109375	0.00833333333333333	0	30	7.99375	2	0.529296875
4024.037109375	0.00833333333333333	0	-30	-7.32083333333333	2	0.630859375
4027.1201171875	0.00833333333333333	0	30	7.99375	2	0.716796875
4030.01171875	0.00833333333333333	0	30	7.99375	2	0.78515625
4032.9873046875	0.00833333333333333	0	30	7.99375	1	0.697265625
4035.912109375	0.00833333333333333	0	30	7.99375	1	0.5888671875
4038.720703125	0.00833333333333333	0	-30	-7.32083333333333	1	0.8603515625
4042.1201171875	0.00833333333333333	0	-30	-7.32083333333333	1	0.65234375
4061.669921875	0.00833333333333333	0	30	7.99375	2	0.7275390625
4064.5537109375	0.00833333333333333	0	-30	-7.32083333333333	1	0.6279296875
4067.2783203125	0.00833333333333333	0	-30	-7.32083333333333	1	0.591796875
4070.1279296875	0.00833333333333333	0	-30	-7.32083333333333	1	0.4541015625
4072.8779296875	0.00833333333333333	0	-30	-7.19583333333333	1	0.263671875
4075.2353515625	0.00833333333333333	0	-30	-7.19583333333333	1	0.5146484375
4078.2529296875	0.00833333333333333	0	-30	-7.19583333333333	2	0.6650390625
4081.0947265625	0.00833333333333333	0	30	7.99375	2	0.53515625
4083.8701171875	0.00833333333333333	0	30	7.99375	2	0.5517578125
4086.5361328125	0.00833333333333333	0	30	7.99375	2	0.517578125
4089.0615234375	0.00833333333333333	0	30	7.99375	1	0.705078125
4092.01171875	0.00833333333333333	0	30	7.99375	1	1.04296875
4095.3701171875	0.00833333333333333	0	-30	-7.19583333333333	1	1.900390625
4099.7197265625	0.00833333333333333	0	-30	-7.19583333333333	1	0.8232421875
4102.5859375	0.00833333333333333	0	30	7.99375	1	1.068359375
4105.89453125	0.00833333333333333	0	-30	-7.19583333333333	1	2.248046875
4110.27734375	0.00833333333333333	0	30	7.99375	1	0.7373046875
4113.3359375	0.00833333333333333	0	30	7.99375	1	0.630859375
4116.1357421875	0.00833333333333333	0	-30	-7.19583333333333	1	0.51953125
4118.744140625	0.00833333333333333	0	-30	-7.19583333333333	1	0.5986328125
4121.744140625	0.00833333333333333	0	30	8.11875	1	0.5029296875
4124.501953125	0.00833333333333333	0	30	8.11875	2	0.841796875
4127.6103515625	0.00833333333333333	0	30	8.11875	1	0.701171875
4130.5771484375	0.00833333333333333	0	30	8.11875	1	0.71875
4133.5771484375	0.00833333333333333	0	30	8.11875	1	0.623046875
4136.5439453125	0.00833333333333333	0	-30	-7.07083333333333	1	0.83203125
4139.8359375	0.00833333333333333	0	30	8.11875	2	0.5078125
4142.52734375	0.00833333333333333	0	-30	-7.07083333333333	1	0.544921875
4145.3359375	0.00833333333333333	0	30	8.11875	2	0.6640625
4148.4267578125	0.00833333333333333	0	-30	-7.07083333333333	1	0.5341796875
4151.34375	0.00833333333333333	0	30	8.11875	1	0.5361328125
4153.9267578125	0.00833333333333333	0	-30	-7.07083333333333	2	0.865234375
4156.84375	0.00833333333333333	0	30	8.11875	1	0.6767578125
4159.568359375	0.00833333333333333	0	-30	-7.07083333333333	2	0.6005859375
4162.693359375	0.00833333333333333	0	-30	-7.07083333333333	2	0.626953125
4165.53515625	0.00833333333333333	0	30	8.11875	1	0.59375
4168.3349609375	0.00833333333333333	0	-30	-7.07083333333333	2	0.59375
4171.3427734375	0.00833333333333333	0	-30	-7.07083333333333	2	0.5625
4174.384765625	0.00833333333333333	0	30	8.11875	2	0.583984375
4177.4599609375	0.00833333333333333	0	-30	-7.19583333333333	2	0.7490234375
4180.3017578125	0.00833333333333333	0	30	8.11875	2	0.5791015625
4183.3095703125	0.00833333333333333	0	-30	-7.19583333333333	2	0.4833984375
4186.1591796875	0.00833333333333333	0	30	8.11875	2	0.73828125
4189.03515625	0.00833333333333333	0	-30	-7.19583333333333	2	0.9345703125
4192.4677734375	0.00833333333333333	0	30	8.11875	2	0.6220703125
4195.109375	0.00833333333333333	0	-30	-7.19583333333333	2	0.5078125
4198.03515625	0.00833333333333333	0	30	8.11875	2	0.822265625
4201.3349609375	0.00833333333333333	0	30	7.99375	2	0.890625
4204.3017578125	0.00833333333333333	0	-30	-7.19583333333333	2	1.0205078125
4207.42578125	0.00833333333333333	0	-30	-7.32083333333333	1	0.48828125
4210.04296875	0.00833333333333333	0	30	7.99375	1	0.7197265625
4212.892578125	0.00833333333333333	0	-30	-7.32083333333333	1	0.7978515625
4216.201171875	0.00833333333333333	0	-30	-7.32083333333333	1	0.689453125
4219.2177734375	0.00833333333333333	0	30	7.99375	1	3.1611328125
4224.8505859375	0.00833333333333333	0	30	7.99375	2	0.6162109375
4227.7421875	0.00833333333333333	0	-30	-7.32083333333333	2	0.572265625
4230.484375	0.00833333333333333	0	30	7.99375	2	0.6865234375
4233.326171875	0.00833333333333333	0	30	7.99375	2	1.052734375
4236.833984375	0.00833333333333333	0	-30	-7.32083333333333	1	0.7294921875
4239.5673828125	0.00833333333333333	0	30	7.99375	1	0.7568359375
4242.359375	0.00833333333333333	0	30	7.99375	1	0.7001953125
4245.2587890625	0.00833333333333333	0	30	7.99375	1	0.583984375
4247.9501953125	0.00833333333333333	0	-30	-7.32083333333333	1	0.5576171875
4250.6591796875	0.00833333333333333	0	30	7.99375	1	0.47265625
4253.583984375	0.00833333333333333	0	30	7.99375	1	0.5791015625
4256.1923828125	0.00833333333333333	0	30	8.11875	2	0.69140625
4259.25	0.00833333333333333	0	30	8.11875	2	0.8095703125
4262.4091796875	0.00833333333333333	0	30	8.11875	2	0.6025390625
4265.32421875	0.00833333333333333	0	-30	-7.32083333333333	1	0.583984375
4268.18359375	0.00833333333333333	0	-30	-7.32083333333333	1	0.6279296875
4270.9755859375	0.00833333333333333	0	30	8.11875	2	0.94921875
4274.0673828125	0.00833333333333333	0	30	8.11875	1	0.560546875
4276.7080078125	0.00833333333333333	0	-30	-7.32083333333333	1	0.552734375
4279.7001953125	0.00833333333333333	0	-30	-7.19583333333333	1	0.576171875
4282.44921875	0.00833333333333333	0	-30	-7.19583333333333	1	0.5234375
4285.2587890625	0.00833333333333333	0	-30	-7.19583333333333	1	0.7861328125
4288.2744140625	0.00833333333333333	0	-30	-7.19583333333333	1	0.5390625
4291.150390625	0.00833333333333333	0	30	8.11875	2	0.7353515625
4294.091796875	0.00833333333333333	0	-30	-7.19583333333333	1	0.537109375
4296.900390625	0.00833333333333333	0	-30	-7.07083333333333	1	0.5126953125
4317.44140625	0.00833333333333333	0	30	8.11875	2	0.587890625
4320.1484375	0.00833333333333333	0	30	8.11875	1	0.712890625
4323.015625	0.00833333333333333	0	30	8.11875	2	0.55859375
4325.7333984375	0.00833333333333333	0	-30	-7.07083333333333	1	0.4970703125
4328.5166015625	0.00833333333333333	0	30	8.11875	2	0.6572265625
4331.3994140625	0.00833333333333333	0	30	8.11875	2	0.5830078125
4334.0908203125	0.00833333333333333	0	30	8.11875	1	0.5478515625
4336.982421875	0.00833333333333333	0	30	8.11875	1	0.6796875
4339.8330078125	0.00833333333333333	0	30	8.11875	2	0.7021484375
4342.599609375	0.00833333333333333	0	-30	-7.07083333333333	1	0.798828125
4345.4072265625	0.00833333333333333	0	30	8.11875	1	0.6796875
4348.3076171875	0.00833333333333333	0	-30	-7.07083333333333	1	0.6748046875
4350.9736328125	0.00833333333333333	0	-30	-7.07083333333333	1	0.681640625
4353.7578125	0.00833333333333333	0	30	8.11875	1	0.5849609375
4356.765625	0.00833333333333333	0	-30	-6.94583333333333	1	0.5615234375
4359.33203125	0.00833333333333333	0	30	8.11875	1	0.619140625
4362.123046875	0.00833333333333333	0	-30	-6.94583333333333	1	0.587890625
4364.8408203125	0.00833333333333333	0	30	8.11875	2	0.6220703125
4367.5576171875	0.00833333333333333	0	30	8.11875	2	0.609375
4370.5322265625	0.00833333333333333	0	30	8.11875	2	0.5556640625
4373.5146484375	0.00833333333333333	0	30	8.11875	2	0.548828125
4376.07421875	0.00833333333333333	0	-30	-6.94583333333333	2	0.533203125
4378.9990234375	0.00833333333333333	0	30	8.11875	2	0.4326171875
4381.83203125	0.00833333333333333	0	-30	-6.94583333333333	2	0.52734375
4384.3984375	0.00833333333333333	0	30	7.99375	2	0.5537109375
4387.373046875	0.00833333333333333	0	30	7.99375	2	0.474609375
4390.3486328125	0.00833333333333333	0	30	7.99375	1	0.6669921875
4393.0224609375	0.00833333333333333	0	-30	-6.94583333333333	1	0.74609375
4395.7900390625	0.00833333333333333	0	30	7.99375	1	0.578125
4398.59765625	0.00833333333333333	0	30	7.99375	2	0.6982421875
4401.4638671875	0.00833333333333333	0	30	7.99375	1	0.6240234375
4404.2734375	0.00833333333333333	0	-30	-6.94583333333333	1	0.8154296875
4407.2314453125	0.00833333333333333	0	30	7.99375	1	0.625
4409.998046875	0.00833333333333333	0	-30	-6.94583333333333	1	0.6025390625
4412.83984375	0.00833333333333333	0	-30	-6.94583333333333	1	0.6005859375
4415.71484375	0.00833333333333333	0	30	7.99375	1	0.57421875
4418.6650390625	0.00833333333333333	0	30	7.99375	1	0.51171875
4421.3896484375	0.00833333333333333	0	-30	-6.94583333333333	1	0.603515625
4424.0478515625	0.00833333333333333	0	-30	-6.82083333333333	1	0.5771484375
4426.8896484375	0.00833333333333333	0	-30	-6.82083333333333	1	0.607421875
4429.4892578125	0.00833333333333333	0	-30	-6.82083333333333	2	0.9921875
4432.8564453125	0.00833333333333333	0	30	7.99375	2	0.6083984375
4435.5146484375	0.00833333333333333	0	-30	-6.82083333333333	2	0.7587890625
4438.7646484375	0.00833333333333333	0	30	7.99375	2	0.5810546875
4441.623046875	0.00833333333333333	0	30	7.99375	2	0.6025390625
4444.498046875	0.00833333333333333	0	-30	-6.82083333333333	1	0.6962890625
4447.431640625	0.00833333333333333	0	30	7.99375	2	0.458984375
4450.1552734375	0.00833333333333333	0	30	7.99375	2	0.5185546875
4452.9560546875	0.00833333333333333	0	-30	-6.82083333333333	2	0.5576171875
4455.630859375	0.00833333333333333	0	30	7.86875	2	0.546875
4458.439453125	0.00833333333333333	0	-30	-6.82083333333333	1	0.6103515625
4461.0810546875	0.00833333333333333	0	-30	-6.82083333333333	1	0.77734375
4464.0634765625	0.00833333333333333	0	30	7.86875	2	0.794921875
4467.322265625	0.00833333333333333	0	30	7.86875	2	0.47265625
4469.939453125	0.00833333333333333	0	30	7.86875	2	0.615234375
4472.9052734375	0.00833333333333333	0	30	7.86875	2	0.505859375
4475.4306640625	0.00833333333333333	0	30	7.74375	2	0.4765625
4478.23046875	0.00833333333333333	0	30	7.74375	2	0.587890625
4480.9296875	0.00833333333333333	0	-30	-6.82083333333333	1	0.513671875
4483.630859375	0.00833333333333333	0	-30	-6.82083333333333	1	0.5966796875
4486.671875	0.00833333333333333	0	-30	-6.82083333333333	1	0.4677734375
4489.322265625	0.00833333333333333	0	-30	-6.69583333333333	1	0.5771484375
4491.9638671875	0.00833333333333333	0	30	7.74375	1	0.6474609375
4494.962890625	0.00833333333333333	0	30	7.74375	2	0.6728515625
4497.7548828125	0.00833333333333333	0	30	7.74375	2	0.5849609375
4500.6123046875	0.00833333333333333	0	30	7.74375	1	0.6318359375
4503.6884765625	0.00833333333333333	0	30	7.74375	1	0.5390625
4506.48046875	0.00833333333333333	0	-30	-6.69583333333333	2	0.515625
4509.1220703125	0.00833333333333333	0	-30	-6.69583333333333	1	0.5380859375
4511.7548828125	0.00833333333333333	0	30	7.74375	2	1.5927734375
4515.4794921875	0.00833333333333333	0	-30	-6.69583333333333	1	0.5732421875
4518.4052734375	0.00833333333333333	0	-30	-6.69583333333333	2	1.4072265625
4522.2373046875	0.00833333333333333	0	30	7.74375	1	0.6865234375
4525.146484375	0.00833333333333333	0	-30	-6.69583333333333	2	0.7060546875
4528.080078125	0.00833333333333333	0	30	7.74375	1	0.66796875
4531.11328125	0.00833333333333333	0	30	7.74375	2	0.5791015625
4533.6962890625	0.00833333333333333	0	30	7.74375	1	1.580078125
4537.5546875	0.00833333333333333	0	-30	-6.69583333333333	1	0.666015625
4540.6298828125	0.00833333333333333	0	-30	-6.69583333333333	1	0.6474609375
4543.5458984375	0.00833333333333333	0	30	7.74375	2	0.6826171875
4571.5546875	0.00833333333333333	0	-30	-6.69583333333333	1	0.69921875
4574.25390625	0.00833333333333333	0	30	7.74375	2	0.5439453125
4577.1875	0.00833333333333333	0	30	7.74375	1	0.634765625
4580.2626953125	0.00833333333333333	0	30	7.74375	2	0.447265625
4582.87890625	0.00833333333333333	0	30	7.74375	2	0.6474609375
4585.99609375	0.00833333333333333	0	30	7.74375	2	0.5703125
4588.787109375	0.00833333333333333	0	30	7.74375	2	0.8115234375
4592.0205078125	0.00833333333333333	0	30	7.74375	2	0.6103515625
4594.912109375	0.00833333333333333	0	-30	-6.69583333333333	1	0.5107421875
4597.8876953125	0.00833333333333333	0	-30	-6.69583333333333	1	0.623046875
4600.76171875	0.00833333333333333	0	30	7.61875	2	0.4853515625
4603.5869140625	0.00833333333333333	0	30	7.61875	1	0.580078125
4606.39453125	0.00833333333333333	0	30	7.61875	2	0.572265625
4608.9619140625	0.00833333333333333	0	30	7.61875	2	0.7333984375
4611.828125	0.00833333333333333	0	-30	-6.57083333333333	2	0.5625
4614.8291015625	0.00833333333333333	0	-30	-6.57083333333333	2	0.5302734375
4617.4619140625	0.00833333333333333	0	30	7.61875	2	0.6259765625
4620.1953125	0.00833333333333333	0	30	7.61875	2	0.587890625
4622.853515625	0.00833333333333333	0	-30	-6.57083333333333	2	0.578125
4625.5869140625	0.00833333333333333	0	30	7.61875	2	0.5166015625
4628.21875	0.00833333333333333	0	30	7.49375	2	0.6533203125
4631.078125	0.00833333333333333	0	30	7.49375	2	0.6171875
4633.7451171875	0.00833333333333333	0	30	7.49375	2	0.5830078125
4636.611328125	0.00833333333333333	0	30	7.49375	2	0.572265625
4639.26953125	0.00833333333333333	0	-30	-6.57083333333333	2	0.578125
4642.2451171875	0.00833333333333333	0	-30	-6.57083333333333	2	0.5234375
4645.0693359375	0.00833333333333333	0	-30	-6.69583333333333	2	0.5791015625
4647.8193359375	0.00833333333333333	0	-30	-6.69583333333333	2	0.5166015625
4650.4033203125	0.00833333333333333	0	-30	-6.69583333333333	1	0.6767578125
4653.5615234375	0.00833333333333333	0	30	7.49375	2	1.119140625
4657.0693359375	0.00833333333333333	0	-30	-6.69583333333333	2	0.595703125
4660.0029296875	0.00833333333333333	0	30	7.36875	2	0.6376953125
4663.0283203125	0.00833333333333333	0	30	7.36875	2	0.556640625
4665.8115234375	0.00833333333333333	0	-30	-6.69583333333333	2	0.5498046875
4668.3193359375	0.00833333333333333	0	30	7.36875	2	0.681640625
4671.4111328125	0.00833333333333333	0	-30	-6.69583333333333	2	0.5341796875
4674.0107421875	0.00833333333333333	0	30	7.36875	1	0.6865234375
4676.8935546875	0.00833333333333333	0	-30	-6.69583333333333	2	0.5478515625
4679.5029296875	0.00833333333333333	0	-30	-6.69583333333333	2	0.5380859375
4682.119140625	0.00833333333333333	0	-30	-6.82083333333333	2	0.5703125
4684.77734375	0.00833333333333333	0	-30	-6.82083333333333	2	0.7119140625
4687.8779296875	0.00833333333333333	0	-30	-6.82083333333333	2	1.236328125
4691.40234375	0.00833333333333333	0	30	7.36875	1	0.5673828125
4694.09375	0.00833333333333333	0	-30	-6.82083333333333	2	0.5634765625
4696.7021484375	0.00833333333333333	0	-30	-6.82083333333333	1	0.748046875
4699.818359375	0.00833333333333333	0	-30	-6.82083333333333	2	0.49609375
4702.65234375	0.00833333333333333	0	-30	-6.82083333333333	2	0.6220703125
4705.5927734375	0.00833333333333333	0	30	7.36875	2	0.9208984375
4708.9267578125	0.00833333333333333	0	30	7.36875	2	0.6513671875
4711.810546875	0.00833333333333333	0	30	7.36875	2	0.5517578125
4714.46875	0.00833333333333333	0	30	7.36875	1	1.4541015625
4718.201171875	0.00833333333333333	0	30	7.36875	2	0.673828125
4721.2763671875	0.00833333333333333	0	30	7.36875	1	1.0146484375
4724.267578125	0.00833333333333333	0	-30	-6.82083333333333	2	0.53515625
4727.2763671875	0.00833333333333333	0	-30	-6.82083333333333	1	0.822265625
4730.2431640625	0.00833333333333333	0	30	7.36875	2	0.583984375
4733.2021484375	0.00833333333333333	0	-30	-6.82083333333333	1	0.5927734375
4735.9677734375	0.00833333333333333	0	-30	-6.82083333333333	2	0.611328125
4738.9599609375	0.00833333333333333	0	-30	-6.82083333333333	1	0.69140625
4741.84375	0.00833333333333333	0	-30	-6.82083333333333	1	0.623046875
4744.7431640625	0.00833333333333333	0	30	7.36875	1	0.5400390625
4747.41015625	0.00833333333333333	0	-30	-6.82083333333333	1	0.681640625
4750.4853515625	0.00833333333333333	0	30	7.36875	1	0.6220703125
4753.41796875	0.00833333333333333	0	30	7.36875	1	0.529296875
4756.0595703125	0.00833333333333333	0	-30	-6.82083333333333	1	0.640625
4759.142578125	0.00833333333333333	0	30	7.36875	1	0.6533203125
4761.951171875	0.00833333333333333	0	-30	-6.82083333333333	1	0.533203125
4764.91015625	0.00833333333333333	0	30	7.36875	1	0.6943359375
4767.943359375	0.00833333333333333	0	-30	-6.69583333333333	2	0.64453125
4770.833984375	0.00833333333333333	0	30	7.49375	2	0.74609375
4773.7265625	0.00833333333333333	0	-30	-6.69583333333333	2	0.6298828125
4776.6845703125	0.00833333333333333	0	30	7.49375	2	0.5595703125
4779.4013671875	0.00833333333333333	0	-30	-6.69583333333333	2	0.931640625
4782.6923828125	0.00833333333333333	0	30	7.49375	2	0.50390625
4785.3837890625	0.00833333333333333	0	-30	-6.69583333333333	2	0.5810546875
4788.201171875	0.00833333333333333	0	30	7.49375	2	0.5078125
4790.892578125	0.00833333333333333	0	-30	-6.69583333333333	2	0.6005859375
4793.5341796875	0.00833333333333333	0	30	7.49375	2	0.5263671875
4796.3505859375	0.00833333333333333	0	30	7.36875	2	0.5986328125
4798.951171875	0.00833333333333333	0	30	7.36875	1	0.7099609375
